cm-1,A
4000.0,-0.0042
3999.0,-0.0041
3998.0,-0.0041
3997.0,-0.0041
3996.0,-0.0041
3995.0,-0.0041
3994.0,-0.004
3993.0,-0.004
3992.0,-0.0039
3991.0,-0.0039
3990.0,-0.0039
3989.0,-0.0039
3988.0,-0.004
3987.0,-0.0041
3986.0,-0.0043
3985.0,-0.0043
3984.0,-0.0043
3983.0,-0.0042
3982.0,-0.0041
3981.0,-0.004
3980.0,-0.004
3979.0,-0.004
3978.0,-0.0041
3977.0,-0.0041
3976.0,-0.0041
3975.0,-0.0042
3974.0,-0.0042
3973.0,-0.0042
3972.0,-0.0042
3971.0,-0.0042
3970.0,-0.0041
3969.0,-0.0041
3968.0,-0.0041
3967.0,-0.0041
3966.0,-0.0041
3965.0,-0.0041
3964.0,-0.004
3963.0,-0.0039
3962.0,-0.0039
3961.0,-0.0038
3960.0,-0.0038
3959.0,-0.0038
3958.0,-0.0038
3957.0,-0.0039
3956.0,-0.004
3955.0,-0.004
3954.0,-0.0041
3953.0,-0.0041
3952.0,-0.0042
3951.0,-0.0041
3950.0,-0.0041
3949.0,-0.0041
3948.0,-0.0042
3947.0,-0.0042
3946.0,-0.0042
3945.0,-0.0042
3944.0,-0.0042
3943.0,-0.0042
3942.0,-0.0042
3941.0,-0.0042
3940.0,-0.0042
3939.0,-0.0042
3938.0,-0.0042
3937.0,-0.0042
3936.0,-0.0042
3935.0,-0.0042
3934.0,-0.0042
3933.0,-0.0041
3932.0,-0.0041
3931.0,-0.0042
3930.0,-0.0042
3929.0,-0.0043
3928.0,-0.0043
3927.0,-0.0043
3926.0,-0.0042
3925.0,-0.0041
3924.0,-0.004
3923.0,-0.0039
3922.0,-0.0039
3921.0,-0.0039
3920.0,-0.004
3919.0,-0.004
3918.0,-0.0041
3917.0,-0.0042
3916.0,-0.0042
3915.0,-0.0043
3914.0,-0.0043
3913.0,-0.0044
3912.0,-0.0044
3911.0,-0.0043
3910.0,-0.0043
3909.0,-0.0043
3908.0,-0.0043
3907.0,-0.0042
3906.0,-0.0042
3905.0,-0.0041
3904.0,-0.0041
3903.0,-0.0041
3902.0,-0.0041
3901.0,-0.0042
3900.0,-0.0042
3899.0,-0.0042
3898.0,-0.0042
3897.0,-0.0042
3896.0,-0.0042
3895.0,-0.0043
3894.0,-0.0042
3893.0,-0.0041
3892.0,-0.004
3891.0,-0.004
3890.0,-0.0039
3889.0,-0.0038
3888.0,-0.0037
3887.0,-0.0036
3886.0,-0.0037
3885.0,-0.0038
3884.0,-0.0039
3883.0,-0.0039
3882.0,-0.0039
3881.0,-0.0039
3880.0,-0.004
3879.0,-0.004
3878.0,-0.0041
3877.0,-0.0041
3876.0,-0.0042
3875.0,-0.0043
3874.0,-0.0044
3873.0,-0.0044
3872.0,-0.0044
3871.0,-0.0045
3870.0,-0.0046
3869.0,-0.0047
3868.0,-0.0047
3867.0,-0.0046
3866.0,-0.0045
3865.0,-0.0043
3864.0,-0.0042
3863.0,-0.0041
3862.0,-0.0041
3861.0,-0.004
3860.0,-0.004
3859.0,-0.0041
3858.0,-0.0041
3857.0,-0.0042
3856.0,-0.0042
3855.0,-0.0042
3854.0,-0.0043
3853.0,-0.0044
3852.0,-0.0044
3851.0,-0.0044
3850.0,-0.0044
3849.0,-0.0044
3848.0,-0.0044
3847.0,-0.0044
3846.0,-0.0044
3845.0,-0.0043
3844.0,-0.0043
3843.0,-0.0043
3842.0,-0.0043
3841.0,-0.0043
3840.0,-0.0043
3839.0,-0.0043
3838.0,-0.0042
3837.0,-0.0041
3836.0,-0.004
3835.0,-0.004
3834.0,-0.004
3833.0,-0.0041
3832.0,-0.0042
3831.0,-0.0042
3830.0,-0.0043
3829.0,-0.0043
3828.0,-0.0043
3827.0,-0.0044
3826.0,-0.0043
3825.0,-0.0043
3824.0,-0.0042
3823.0,-0.0042
3822.0,-0.0043
3821.0,-0.0045
3820.0,-0.0046
3819.0,-0.0045
3818.0,-0.0044
3817.0,-0.0044
3816.0,-0.0044
3815.0,-0.0043
3814.0,-0.0043
3813.0,-0.0042
3812.0,-0.0042
3811.0,-0.0042
3810.0,-0.0042
3809.0,-0.0042
3808.0,-0.0042
3807.0,-0.0043
3806.0,-0.0043
3805.0,-0.0043
3804.0,-0.0043
3803.0,-0.0042
3802.0,-0.0042
3801.0,-0.0042
3800.0,-0.0042
3799.0,-0.0042
3798.0,-0.0043
3797.0,-0.0044
3796.0,-0.0044
3795.0,-0.0044
3794.0,-0.0044
3793.0,-0.0044
3792.0,-0.0044
3791.0,-0.0043
3790.0,-0.0043
3789.0,-0.0042
3788.0,-0.0042
3787.0,-0.0042
3786.0,-0.0042
3785.0,-0.0043
3784.0,-0.0044
3783.0,-0.0044
3782.0,-0.0045
3781.0,-0.0045
3780.0,-0.0046
3779.0,-0.0046
3778.0,-0.0045
3777.0,-0.0044
3776.0,-0.0043
3775.0,-0.0043
3774.0,-0.0042
3773.0,-0.0042
3772.0,-0.0043
3771.0,-0.0044
3770.0,-0.0045
3769.0,-0.0046
3768.0,-0.0046
3767.0,-0.0045
3766.0,-0.0043
3765.0,-0.0042
3764.0,-0.0041
3763.0,-0.0041
3762.0,-0.0042
3761.0,-0.0042
3760.0,-0.0043
3759.0,-0.0044
3758.0,-0.0044
3757.0,-0.0045
3756.0,-0.0045
3755.0,-0.0045
3754.0,-0.0045
3753.0,-0.0043
3752.0,-0.0041
3751.0,-0.004
3750.0,-0.0041
3749.0,-0.0043
3748.0,-0.0044
3747.0,-0.0045
3746.0,-0.0045
3745.0,-0.0045
3744.0,-0.0045
3743.0,-0.0045
3742.0,-0.0044
3741.0,-0.0045
3740.0,-0.0045
3739.0,-0.0046
3738.0,-0.0046
3737.0,-0.0046
3736.0,-0.0046
3735.0,-0.0047
3734.0,-0.0047
3733.0,-0.0047
3732.0,-0.0046
3731.0,-0.0045
3730.0,-0.0045
3729.0,-0.0045
3728.0,-0.0045
3727.0,-0.0045
3726.0,-0.0045
3725.0,-0.0044
3724.0,-0.0045
3723.0,-0.0046
3722.0,-0.0047
3721.0,-0.0048
3720.0,-0.0048
3719.0,-0.0047
3718.0,-0.0046
3717.0,-0.0045
3716.0,-0.0043
3715.0,-0.0043
3714.0,-0.0043
3713.0,-0.0045
3712.0,-0.0048
3711.0,-0.005
3710.0,-0.005
3709.0,-0.0049
3708.0,-0.0048
3707.0,-0.0047
3706.0,-0.0047
3705.0,-0.0046
3704.0,-0.0046
3703.0,-0.0046
3702.0,-0.0046
3701.0,-0.0046
3700.0,-0.0046
3699.0,-0.0045
3698.0,-0.0045
3697.0,-0.0045
3696.0,-0.0046
3695.0,-0.0046
3694.0,-0.0046
3693.0,-0.0046
3692.0,-0.0046
3691.0,-0.0046
3690.0,-0.0047
3689.0,-0.0049
3688.0,-0.005
3687.0,-0.0049
3686.0,-0.0047
3685.0,-0.0045
3684.0,-0.0044
3683.0,-0.0043
3682.0,-0.0044
3681.0,-0.0045
3680.0,-0.0047
3679.0,-0.0048
3678.0,-0.0049
3677.0,-0.0048
3676.0,-0.0048
3675.0,-0.0048
3674.0,-0.0047
3673.0,-0.0047
3672.0,-0.0047
3671.0,-0.0048
3670.0,-0.0048
3669.0,-0.0048
3668.0,-0.0047
3667.0,-0.0046
3666.0,-0.0046
3665.0,-0.0046
3664.0,-0.0046
3663.0,-0.0046
3662.0,-0.0046
3661.0,-0.0046
3660.0,-0.0046
3659.0,-0.0046
3658.0,-0.0046
3657.0,-0.0045
3656.0,-0.0046
3655.0,-0.0047
3654.0,-0.0048
3653.0,-0.0049
3652.0,-0.005
3651.0,-0.005
3650.0,-0.005
3649.0,-0.005
3648.0,-0.005
3647.0,-0.005
3646.0,-0.0049
3645.0,-0.0049
3644.0,-0.0049
3643.0,-0.0049
3642.0,-0.0049
3641.0,-0.0049
3640.0,-0.0048
3639.0,-0.0047
3638.0,-0.0046
3637.0,-0.0046
3636.0,-0.0047
3635.0,-0.0047
3634.0,-0.0048
3633.0,-0.0048
3632.0,-0.0047
3631.0,-0.0046
3630.0,-0.0046
3629.0,-0.0048
3628.0,-0.005
3627.0,-0.0051
3626.0,-0.0052
3625.0,-0.0052
3624.0,-0.0052
3623.0,-0.0051
3622.0,-0.005
3621.0,-0.0048
3620.0,-0.0047
3619.0,-0.0047
3618.0,-0.0048
3617.0,-0.0049
3616.0,-0.0051
3615.0,-0.0053
3614.0,-0.0054
3613.0,-0.0055
3612.0,-0.0054
3611.0,-0.0052
3610.0,-0.005
3609.0,-0.0049
3608.0,-0.005
3607.0,-0.0051
3606.0,-0.0052
3605.0,-0.0052
3604.0,-0.0051
3603.0,-0.0051
3602.0,-0.0051
3601.0,-0.0053
3600.0,-0.0055
3599.0,-0.0056
3598.0,-0.0055
3597.0,-0.0054
3596.0,-0.0052
3595.0,-0.0051
3594.0,-0.0051
3593.0,-0.0052
3592.0,-0.0052
3591.0,-0.0052
3590.0,-0.0051
3589.0,-0.005
3588.0,-0.0051
3587.0,-0.0052
3586.0,-0.0053
3585.0,-0.0053
3584.0,-0.0053
3583.0,-0.0053
3582.0,-0.0053
3581.0,-0.0053
3580.0,-0.0053
3579.0,-0.0052
3578.0,-0.0051
3577.0,-0.005
3576.0,-0.005
3575.0,-0.0049
3574.0,-0.0049
3573.0,-0.0049
3572.0,-0.005
3571.0,-0.0051
3570.0,-0.0052
3569.0,-0.0053
3568.0,-0.0054
3567.0,-0.0054
3566.0,-0.0054
3565.0,-0.0054
3564.0,-0.0055
3563.0,-0.0054
3562.0,-0.0054
3561.0,-0.0052
3560.0,-0.0052
3559.0,-0.0052
3558.0,-0.0052
3557.0,-0.0053
3556.0,-0.0053
3555.0,-0.0052
3554.0,-0.0051
3553.0,-0.005
3552.0,-0.0049
3551.0,-0.0048
3550.0,-0.0047
3549.0,-0.0046
3548.0,-0.0046
3547.0,-0.0046
3546.0,-0.0046
3545.0,-0.0046
3544.0,-0.0046
3543.0,-0.0046
3542.0,-0.0046
3541.0,-0.0046
3540.0,-0.0046
3539.0,-0.0046
3538.0,-0.0046
3537.0,-0.0046
3536.0,-0.0045
3535.0,-0.0045
3534.0,-0.0045
3533.0,-0.0045
3532.0,-0.0044
3531.0,-0.0044
3530.0,-0.0043
3529.0,-0.0043
3528.0,-0.0044
3527.0,-0.0045
3526.0,-0.0046
3525.0,-0.0046
3524.0,-0.0046
3523.0,-0.0045
3522.0,-0.0045
3521.0,-0.0044
3520.0,-0.0043
3519.0,-0.0042
3518.0,-0.0041
3517.0,-0.004
3516.0,-0.0039
3515.0,-0.0039
3514.0,-0.0039
3513.0,-0.0038
3512.0,-0.0037
3511.0,-0.0036
3510.0,-0.0034
3509.0,-0.0033
3508.0,-0.0033
3507.0,-0.0033
3506.0,-0.0034
3505.0,-0.0035
3504.0,-0.0035
3503.0,-0.0034
3502.0,-0.0033
3501.0,-0.0031
3500.0,-0.003
3499.0,-0.0028
3498.0,-0.0027
3497.0,-0.0026
3496.0,-0.0025
3495.0,-0.0025
3494.0,-0.0024
3493.0,-0.0023
3492.0,-0.0021
3491.0,-0.0019
3490.0,-0.0018
3489.0,-0.0017
3488.0,-0.0017
3487.0,-0.0017
3486.0,-0.0016
3485.0,-0.0015
3484.0,-0.0013
3483.0,-0.0012
3482.0,-0.0011
3481.0,-0.0011
3480.0,-0.001
3479.0,-0.0009
3478.0,-0.0007
3477.0,-0.0007
3476.0,-0.0006
3475.0,-0.0005
3474.0,-0.0004
3473.0,-0.0002
3472.0,-0.0
3471.0,0.0002
3470.0,0.0003
3469.0,0.0004
3468.0,0.0006
3467.0,0.0008
3466.0,0.001
3465.0,0.0011
3464.0,0.0012
3463.0,0.0013
3462.0,0.0015
3461.0,0.0016
3460.0,0.0018
3459.0,0.0021
3458.0,0.0023
3457.0,0.0024
3456.0,0.0025
3455.0,0.0025
3454.0,0.0026
3453.0,0.0026
3452.0,0.0027
3451.0,0.0029
3450.0,0.0031
3449.0,0.0033
3448.0,0.0036
3447.0,0.0038
3446.0,0.004
3445.0,0.0042
3444.0,0.0043
3443.0,0.0045
3442.0,0.0046
3441.0,0.0047
3440.0,0.0049
3439.0,0.005
3438.0,0.0052
3437.0,0.0054
3436.0,0.0055
3435.0,0.0055
3434.0,0.0055
3433.0,0.0056
3432.0,0.0058
3431.0,0.0062
3430.0,0.0066
3429.0,0.007
3428.0,0.0072
3427.0,0.0074
3426.0,0.0076
3425.0,0.0079
3424.0,0.0083
3423.0,0.0087
3422.0,0.0092
3421.0,0.0097
3420.0,0.0102
3419.0,0.0107
3418.0,0.0113
3417.0,0.0117
3416.0,0.0121
3415.0,0.0124
3414.0,0.0126
3413.0,0.0129
3412.0,0.0133
3411.0,0.0139
3410.0,0.0145
3409.0,0.0151
3408.0,0.0157
3407.0,0.0162
3406.0,0.0167
3405.0,0.017
3404.0,0.0172
3403.0,0.0175
3402.0,0.0178
3401.0,0.0182
3400.0,0.0186
3399.0,0.019
3398.0,0.0194
3397.0,0.0198
3396.0,0.0202
3395.0,0.0205
3394.0,0.0207
3393.0,0.0209
3392.0,0.0212
3391.0,0.0214
3390.0,0.0217
3389.0,0.022
3388.0,0.0223
3387.0,0.0224
3386.0,0.0224
3385.0,0.0224
3384.0,0.0224
3383.0,0.0223
3382.0,0.0223
3381.0,0.0223
3380.0,0.0224
3379.0,0.0226
3378.0,0.0227
3377.0,0.0229
3376.0,0.0229
3375.0,0.0229
3374.0,0.0227
3373.0,0.0225
3372.0,0.0225
3371.0,0.0226
3370.0,0.0226
3369.0,0.0227
3368.0,0.0226
3367.0,0.0226
3366.0,0.0225
3365.0,0.0225
3364.0,0.0223
3363.0,0.0221
3362.0,0.0218
3361.0,0.0215
3360.0,0.0212
3359.0,0.021
3358.0,0.0209
3357.0,0.0207
3356.0,0.0204
3355.0,0.0201
3354.0,0.0197
3353.0,0.0194
3352.0,0.0191
3351.0,0.0188
3350.0,0.0185
3349.0,0.0182
3348.0,0.0179
3347.0,0.0177
3346.0,0.0173
3345.0,0.017
3344.0,0.0166
3343.0,0.0162
3342.0,0.0159
3341.0,0.0156
3340.0,0.0153
3339.0,0.0149
3338.0,0.0146
3337.0,0.0142
3336.0,0.0139
3335.0,0.0136
3334.0,0.0133
3333.0,0.013
3332.0,0.0128
3331.0,0.0125
3330.0,0.0122
3329.0,0.0118
3328.0,0.0115
3327.0,0.0112
3326.0,0.011
3325.0,0.0107
3324.0,0.0104
3323.0,0.01
3322.0,0.0096
3321.0,0.0093
3320.0,0.009
3319.0,0.0089
3318.0,0.0086
3317.0,0.0084
3316.0,0.008
3315.0,0.0077
3314.0,0.0073
3313.0,0.007
3312.0,0.0068
3311.0,0.0068
3310.0,0.0068
3309.0,0.0067
3308.0,0.0065
3307.0,0.0063
3306.0,0.0061
3305.0,0.006
3304.0,0.0058
3303.0,0.0055
3302.0,0.0051
3301.0,0.0048
3300.0,0.0046
3299.0,0.0045
3298.0,0.0043
3297.0,0.0041
3296.0,0.0039
3295.0,0.0037
3294.0,0.0036
3293.0,0.0035
3292.0,0.0033
3291.0,0.0031
3290.0,0.0028
3289.0,0.0026
3288.0,0.0025
3287.0,0.0024
3286.0,0.0024
3285.0,0.0022
3284.0,0.0021
3283.0,0.002
3282.0,0.002
3281.0,0.0019
3280.0,0.0019
3279.0,0.0018
3278.0,0.0017
3277.0,0.0016
3276.0,0.0015
3275.0,0.0015
3274.0,0.0014
3273.0,0.0015
3272.0,0.0014
3271.0,0.0013
3270.0,0.0012
3269.0,0.0011
3268.0,0.0011
3267.0,0.0011
3266.0,0.0012
3265.0,0.0013
3264.0,0.0014
3263.0,0.0014
3262.0,0.0013
3261.0,0.0012
3260.0,0.001
3259.0,0.001
3258.0,0.0011
3257.0,0.0013
3256.0,0.0016
3255.0,0.0018
3254.0,0.0019
3253.0,0.0019
3252.0,0.0017
3251.0,0.0015
3250.0,0.0014
3249.0,0.0014
3248.0,0.0015
3247.0,0.0016
3246.0,0.0017
3245.0,0.0018
3244.0,0.0019
3243.0,0.0021
3242.0,0.0023
3241.0,0.0025
3240.0,0.0026
3239.0,0.0027
3238.0,0.0026
3237.0,0.0024
3236.0,0.0023
3235.0,0.0021
3234.0,0.002
3233.0,0.0018
3232.0,0.0018
3231.0,0.0018
3230.0,0.002
3229.0,0.0021
3228.0,0.0021
3227.0,0.0021
3226.0,0.0019
3225.0,0.0018
3224.0,0.0017
3223.0,0.0015
3222.0,0.0014
3221.0,0.0013
3220.0,0.0013
3219.0,0.0013
3218.0,0.0012
3217.0,0.0011
3216.0,0.0009
3215.0,0.0008
3214.0,0.0007
3213.0,0.0006
3212.0,0.0004
3211.0,0.0003
3210.0,0.0002
3209.0,0.0002
3208.0,0.0001
3207.0,-0.0001
3206.0,-0.0002
3205.0,-0.0004
3204.0,-0.0006
3203.0,-0.0007
3202.0,-0.0008
3201.0,-0.0009
3200.0,-0.0009
3199.0,-0.001
3198.0,-0.001
3197.0,-0.001
3196.0,-0.001
3195.0,-0.0011
3194.0,-0.0013
3193.0,-0.0014
3192.0,-0.0016
3191.0,-0.0016
3190.0,-0.0016
3189.0,-0.0016
3188.0,-0.0017
3187.0,-0.0018
3186.0,-0.0019
3185.0,-0.0019
3184.0,-0.0019
3183.0,-0.0018
3182.0,-0.0018
3181.0,-0.0018
3180.0,-0.0018
3179.0,-0.0018
3178.0,-0.0018
3177.0,-0.0018
3176.0,-0.0018
3175.0,-0.0018
3174.0,-0.0019
3173.0,-0.0021
3172.0,-0.0022
3171.0,-0.0022
3170.0,-0.0022
3169.0,-0.0023
3168.0,-0.0022
3167.0,-0.0022
3166.0,-0.0021
3165.0,-0.0021
3164.0,-0.0021
3163.0,-0.0021
3162.0,-0.0021
3161.0,-0.0021
3160.0,-0.0021
3159.0,-0.0021
3158.0,-0.0022
3157.0,-0.0022
3156.0,-0.0023
3155.0,-0.0023
3154.0,-0.0023
3153.0,-0.0022
3152.0,-0.0022
3151.0,-0.0022
3150.0,-0.0022
3149.0,-0.0022
3148.0,-0.0021
3147.0,-0.002
3146.0,-0.002
3145.0,-0.002
3144.0,-0.0021
3143.0,-0.0022
3142.0,-0.0022
3141.0,-0.0021
3140.0,-0.0021
3139.0,-0.002
3138.0,-0.002
3137.0,-0.002
3136.0,-0.002
3135.0,-0.002
3134.0,-0.002
3133.0,-0.002
3132.0,-0.002
3131.0,-0.002
3130.0,-0.002
3129.0,-0.002
3128.0,-0.0021
3127.0,-0.0021
3126.0,-0.0022
3125.0,-0.0022
3124.0,-0.0022
3123.0,-0.0022
3122.0,-0.0022
3121.0,-0.0022
3120.0,-0.0022
3119.0,-0.0022
3118.0,-0.0022
3117.0,-0.0021
3116.0,-0.0021
3115.0,-0.0021
3114.0,-0.0021
3113.0,-0.0021
3112.0,-0.002
3111.0,-0.002
3110.0,-0.0019
3109.0,-0.0019
3108.0,-0.002
3107.0,-0.0021
3106.0,-0.0021
3105.0,-0.0021
3104.0,-0.002
3103.0,-0.0019
3102.0,-0.0018
3101.0,-0.0018
3100.0,-0.0018
3099.0,-0.0019
3098.0,-0.0019
3097.0,-0.0019
3096.0,-0.0019
3095.0,-0.0019
3094.0,-0.0018
3093.0,-0.0018
3092.0,-0.0019
3091.0,-0.002
3090.0,-0.0021
3089.0,-0.0021
3088.0,-0.002
3087.0,-0.002
3086.0,-0.0019
3085.0,-0.0019
3084.0,-0.0018
3083.0,-0.0018
3082.0,-0.0018
3081.0,-0.0018
3080.0,-0.0019
3079.0,-0.0019
3078.0,-0.0019
3077.0,-0.0018
3076.0,-0.0017
3075.0,-0.0017
3074.0,-0.0017
3073.0,-0.0018
3072.0,-0.0018
3071.0,-0.0018
3070.0,-0.0018
3069.0,-0.0019
3068.0,-0.0019
3067.0,-0.0018
3066.0,-0.0017
3065.0,-0.0015
3064.0,-0.0013
3063.0,-0.0013
3062.0,-0.0013
3061.0,-0.0013
3060.0,-0.0014
3059.0,-0.0014
3058.0,-0.0015
3057.0,-0.0015
3056.0,-0.0016
3055.0,-0.0017
3054.0,-0.0017
3053.0,-0.0017
3052.0,-0.0017
3051.0,-0.0018
3050.0,-0.0018
3049.0,-0.0018
3048.0,-0.0018
3047.0,-0.0017
3046.0,-0.0017
3045.0,-0.0016
3044.0,-0.0016
3043.0,-0.0015
3042.0,-0.0015
3041.0,-0.0015
3040.0,-0.0014
3039.0,-0.0014
3038.0,-0.0013
3037.0,-0.0013
3036.0,-0.0013
3035.0,-0.0014
3034.0,-0.0014
3033.0,-0.0013
3032.0,-0.0013
3031.0,-0.0013
3030.0,-0.0013
3029.0,-0.0013
3028.0,-0.0013
3027.0,-0.0013
3026.0,-0.0013
3025.0,-0.0013
3024.0,-0.0012
3023.0,-0.0012
3022.0,-0.0012
3021.0,-0.0013
3020.0,-0.0014
3019.0,-0.0015
3018.0,-0.0015
3017.0,-0.0015
3016.0,-0.0014
3015.0,-0.0012
3014.0,-0.0012
3013.0,-0.0012
3012.0,-0.0012
3011.0,-0.0012
3010.0,-0.0012
3009.0,-0.0011
3008.0,-0.0011
3007.0,-0.0012
3006.0,-0.0012
3005.0,-0.0012
3004.0,-0.0012
3003.0,-0.0012
3002.0,-0.0013
3001.0,-0.0013
3000.0,-0.0012
2999.0,-0.0012
2998.0,-0.0013
2997.0,-0.0013
2996.0,-0.0013
2995.0,-0.0012
2994.0,-0.0011
2993.0,-0.001
2992.0,-0.001
2991.0,-0.0011
2990.0,-0.0012
2989.0,-0.0013
2988.0,-0.0013
2987.0,-0.0013
2986.0,-0.0012
2985.0,-0.0012
2984.0,-0.0011
2983.0,-0.0011
2982.0,-0.0011
2981.0,-0.001
2980.0,-0.001
2979.0,-0.0011
2978.0,-0.0011
2977.0,-0.0011
2976.0,-0.0011
2975.0,-0.0011
2974.0,-0.0011
2973.0,-0.0011
2972.0,-0.0011
2971.0,-0.0011
2970.0,-0.001
2969.0,-0.0009
2968.0,-0.0009
2967.0,-0.0009
2966.0,-0.001
2965.0,-0.0011
2964.0,-0.0011
2963.0,-0.001
2962.0,-0.0009
2961.0,-0.0009
2960.0,-0.0008
2959.0,-0.0008
2958.0,-0.0008
2957.0,-0.0007
2956.0,-0.0007
2955.0,-0.0008
2954.0,-0.0008
2953.0,-0.0008
2952.0,-0.0008
2951.0,-0.0008
2950.0,-0.0008
2949.0,-0.0008
2948.0,-0.0007
2947.0,-0.0007
2946.0,-0.0008
2945.0,-0.0008
2944.0,-0.0009
2943.0,-0.001
2942.0,-0.001
2941.0,-0.0011
2940.0,-0.001
2939.0,-0.001
2938.0,-0.001
2937.0,-0.001
2936.0,-0.0011
2935.0,-0.0011
2934.0,-0.0011
2933.0,-0.001
2932.0,-0.0008
2931.0,-0.0007
2930.0,-0.0006
2929.0,-0.0006
2928.0,-0.0006
2927.0,-0.0007
2926.0,-0.0008
2925.0,-0.0009
2924.0,-0.0009
2923.0,-0.001
2922.0,-0.001
2921.0,-0.0009
2920.0,-0.0009
2919.0,-0.0008
2918.0,-0.0008
2917.0,-0.0008
2916.0,-0.0008
2915.0,-0.0008
2914.0,-0.0008
2913.0,-0.0008
2912.0,-0.0008
2911.0,-0.0007
2910.0,-0.0007
2909.0,-0.0006
2908.0,-0.0006
2907.0,-0.0006
2906.0,-0.0007
2905.0,-0.0007
2904.0,-0.0008
2903.0,-0.0008
2902.0,-0.0008
2901.0,-0.0007
2900.0,-0.0007
2899.0,-0.0007
2898.0,-0.0008
2897.0,-0.0008
2896.0,-0.0008
2895.0,-0.0009
2894.0,-0.0009
2893.0,-0.0009
2892.0,-0.0009
2891.0,-0.0008
2890.0,-0.0008
2889.0,-0.0008
2888.0,-0.0008
2887.0,-0.0008
2886.0,-0.0008
2885.0,-0.0007
2884.0,-0.0007
2883.0,-0.0007
2882.0,-0.0007
2881.0,-0.0006
2880.0,-0.0006
2879.0,-0.0006
2878.0,-0.0006
2877.0,-0.0007
2876.0,-0.0007
2875.0,-0.0007
2874.0,-0.0006
2873.0,-0.0007
2872.0,-0.0007
2871.0,-0.0007
2870.0,-0.0007
2869.0,-0.0007
2868.0,-0.0008
2867.0,-0.0008
2866.0,-0.0009
2865.0,-0.0008
2864.0,-0.0008
2863.0,-0.0008
2862.0,-0.0007
2861.0,-0.0008
2860.0,-0.0008
2859.0,-0.0008
2858.0,-0.0008
2857.0,-0.0007
2856.0,-0.0007
2855.0,-0.0007
2854.0,-0.0007
2853.0,-0.0008
2852.0,-0.0008
2851.0,-0.0008
2850.0,-0.0008
2849.0,-0.0007
2848.0,-0.0007
2847.0,-0.0006
2846.0,-0.0006
2845.0,-0.0006
2844.0,-0.0005
2843.0,-0.0005
2842.0,-0.0005
2841.0,-0.0005
2840.0,-0.0005
2839.0,-0.0006
2838.0,-0.0007
2837.0,-0.0007
2836.0,-0.0006
2835.0,-0.0004
2834.0,-0.0004
2833.0,-0.0004
2832.0,-0.0004
2831.0,-0.0005
2830.0,-0.0005
2829.0,-0.0005
2828.0,-0.0005
2827.0,-0.0005
2826.0,-0.0005
2825.0,-0.0005
2824.0,-0.0005
2823.0,-0.0006
2822.0,-0.0006
2821.0,-0.0005
2820.0,-0.0005
2819.0,-0.0005
2818.0,-0.0005
2817.0,-0.0005
2816.0,-0.0005
2815.0,-0.0005
2814.0,-0.0005
2813.0,-0.0005
2812.0,-0.0005
2811.0,-0.0005
2810.0,-0.0004
2809.0,-0.0003
2808.0,-0.0003
2807.0,-0.0003
2806.0,-0.0004
2805.0,-0.0004
2804.0,-0.0005
2803.0,-0.0005
2802.0,-0.0005
2801.0,-0.0006
2800.0,-0.0005
2799.0,-0.0005
2798.0,-0.0005
2797.0,-0.0004
2796.0,-0.0004
2795.0,-0.0005
2794.0,-0.0005
2793.0,-0.0005
2792.0,-0.0005
2791.0,-0.0005
2790.0,-0.0005
2789.0,-0.0005
2788.0,-0.0004
2787.0,-0.0004
2786.0,-0.0004
2785.0,-0.0004
2784.0,-0.0004
2783.0,-0.0005
2782.0,-0.0005
2781.0,-0.0005
2780.0,-0.0005
2779.0,-0.0004
2778.0,-0.0004
2777.0,-0.0004
2776.0,-0.0004
2775.0,-0.0004
2774.0,-0.0003
2773.0,-0.0003
2772.0,-0.0003
2771.0,-0.0003
2770.0,-0.0003
2769.0,-0.0003
2768.0,-0.0003
2767.0,-0.0003
2766.0,-0.0002
2765.0,-0.0003
2764.0,-0.0003
2763.0,-0.0004
2762.0,-0.0004
2761.0,-0.0004
2760.0,-0.0004
2759.0,-0.0003
2758.0,-0.0003
2757.0,-0.0004
2756.0,-0.0004
2755.0,-0.0004
2754.0,-0.0003
2753.0,-0.0003
2752.0,-0.0003
2751.0,-0.0003
2750.0,-0.0003
2749.0,-0.0003
2748.0,-0.0003
2747.0,-0.0003
2746.0,-0.0003
2745.0,-0.0002
2744.0,-0.0003
2743.0,-0.0003
2742.0,-0.0004
2741.0,-0.0004
2740.0,-0.0004
2739.0,-0.0004
2738.0,-0.0004
2737.0,-0.0004
2736.0,-0.0004
2735.0,-0.0004
2734.0,-0.0004
2733.0,-0.0004
2732.0,-0.0003
2731.0,-0.0003
2730.0,-0.0003
2729.0,-0.0004
2728.0,-0.0004
2727.0,-0.0005
2726.0,-0.0005
2725.0,-0.0005
2724.0,-0.0005
2723.0,-0.0004
2722.0,-0.0004
2721.0,-0.0003
2720.0,-0.0003
2719.0,-0.0003
2718.0,-0.0003
2717.0,-0.0003
2716.0,-0.0003
2715.0,-0.0004
2714.0,-0.0004
2713.0,-0.0004
2712.0,-0.0004
2711.0,-0.0003
2710.0,-0.0003
2709.0,-0.0003
2708.0,-0.0004
2707.0,-0.0004
2706.0,-0.0004
2705.0,-0.0004
2704.0,-0.0003
2703.0,-0.0003
2702.0,-0.0003
2701.0,-0.0003
2700.0,-0.0004
2699.0,-0.0004
2698.0,-0.0005
2697.0,-0.0005
2696.0,-0.0005
2695.0,-0.0004
2694.0,-0.0004
2693.0,-0.0003
2692.0,-0.0003
2691.0,-0.0003
2690.0,-0.0003
2689.0,-0.0004
2688.0,-0.0004
2687.0,-0.0004
2686.0,-0.0003
2685.0,-0.0003
2684.0,-0.0002
2683.0,-0.0003
2682.0,-0.0003
2681.0,-0.0003
2680.0,-0.0004
2679.0,-0.0004
2678.0,-0.0004
2677.0,-0.0003
2676.0,-0.0003
2675.0,-0.0003
2674.0,-0.0003
2673.0,-0.0004
2672.0,-0.0003
2671.0,-0.0003
2670.0,-0.0002
2669.0,-0.0002
2668.0,-0.0001
2667.0,-0.0002
2666.0,-0.0003
2665.0,-0.0003
2664.0,-0.0003
2663.0,-0.0002
2662.0,-0.0002
2661.0,-0.0002
2660.0,-0.0002
2659.0,-0.0002
2658.0,-0.0002
2657.0,-0.0002
2656.0,-0.0002
2655.0,-0.0001
2654.0,-0.0002
2653.0,-0.0002
2652.0,-0.0003
2651.0,-0.0003
2650.0,-0.0003
2649.0,-0.0003
2648.0,-0.0003
2647.0,-0.0002
2646.0,-0.0002
2645.0,-0.0002
2644.0,-0.0002
2643.0,-0.0002
2642.0,-0.0002
2641.0,-0.0001
2640.0,-0.0001
2639.0,-0.0001
2638.0,-0.0002
2637.0,-0.0003
2636.0,-0.0003
2635.0,-0.0004
2634.0,-0.0004
2633.0,-0.0004
2632.0,-0.0004
2631.0,-0.0004
2630.0,-0.0004
2629.0,-0.0004
2628.0,-0.0003
2627.0,-0.0003
2626.0,-0.0003
2625.0,-0.0003
2624.0,-0.0002
2623.0,-0.0002
2622.0,-0.0002
2621.0,-0.0002
2620.0,-0.0002
2619.0,-0.0002
2618.0,-0.0002
2617.0,-0.0001
2616.0,-0.0001
2615.0,-0.0001
2614.0,-0.0002
2613.0,-0.0002
2612.0,-0.0003
2611.0,-0.0003
2610.0,-0.0003
2609.0,-0.0003
2608.0,-0.0003
2607.0,-0.0003
2606.0,-0.0003
2605.0,-0.0003
2604.0,-0.0003
2603.0,-0.0003
2602.0,-0.0004
2601.0,-0.0003
2600.0,-0.0003
2599.0,-0.0002
2598.0,-0.0002
2597.0,-0.0002
2596.0,-0.0002
2595.0,-0.0001
2594.0,-0.0001
2593.0,-0.0002
2592.0,-0.0002
2591.0,-0.0003
2590.0,-0.0003
2589.0,-0.0003
2588.0,-0.0003
2587.0,-0.0003
2586.0,-0.0003
2585.0,-0.0003
2584.0,-0.0003
2583.0,-0.0002
2582.0,-0.0002
2581.0,-0.0002
2580.0,-0.0003
2579.0,-0.0004
2578.0,-0.0005
2577.0,-0.0005
2576.0,-0.0005
2575.0,-0.0005
2574.0,-0.0005
2573.0,-0.0004
2572.0,-0.0003
2571.0,-0.0003
2570.0,-0.0003
2569.0,-0.0003
2568.0,-0.0003
2567.0,-0.0003
2566.0,-0.0004
2565.0,-0.0004
2564.0,-0.0004
2563.0,-0.0004
2562.0,-0.0005
2561.0,-0.0005
2560.0,-0.0005
2559.0,-0.0004
2558.0,-0.0002
2557.0,-0.0001
2556.0,-0.0001
2555.0,-0.0001
2554.0,-0.0002
2553.0,-0.0002
2552.0,-0.0002
2551.0,-0.0001
2550.0,-0.0
2549.0,0.0001
2548.0,0.0001
2547.0,0.0001
2546.0,0.0001
2545.0,-0.0
2544.0,-0.0002
2543.0,-0.0003
2542.0,-0.0003
2541.0,-0.0003
2540.0,-0.0003
2539.0,-0.0003
2538.0,-0.0003
2537.0,-0.0002
2536.0,-0.0002
2535.0,-0.0002
2534.0,-0.0001
2533.0,-0.0002
2532.0,-0.0002
2531.0,-0.0003
2530.0,-0.0004
2529.0,-0.0004
2528.0,-0.0003
2527.0,-0.0003
2526.0,-0.0003
2525.0,-0.0004
2524.0,-0.0004
2523.0,-0.0003
2522.0,-0.0002
2521.0,-0.0001
2520.0,-0.0001
2519.0,-0.0001
2518.0,-0.0001
2517.0,-0.0001
2516.0,-0.0001
2515.0,-0.0002
2514.0,-0.0002
2513.0,-0.0002
2512.0,-0.0001
2511.0,-0.0002
2510.0,-0.0002
2509.0,-0.0003
2508.0,-0.0003
2507.0,-0.0003
2506.0,-0.0003
2505.0,-0.0003
2504.0,-0.0003
2503.0,-0.0002
2502.0,-0.0002
2501.0,-0.0002
2500.0,-0.0002
2499.0,-0.0003
2498.0,-0.0003
2497.0,-0.0003
2496.0,-0.0004
2495.0,-0.0004
2494.0,-0.0004
2493.0,-0.0003
2492.0,-0.0003
2491.0,-0.0002
2490.0,-0.0002
2489.0,-0.0002
2488.0,-0.0002
2487.0,-0.0002
2486.0,-0.0003
2485.0,-0.0003
2484.0,-0.0003
2483.0,-0.0003
2482.0,-0.0003
2481.0,-0.0002
2480.0,-0.0002
2479.0,-0.0002
2478.0,-0.0002
2477.0,-0.0002
2476.0,-0.0002
2475.0,-0.0002
2474.0,-0.0002
2473.0,-0.0003
2472.0,-0.0003
2471.0,-0.0003
2470.0,-0.0002
2469.0,-0.0002
2468.0,-0.0002
2467.0,-0.0002
2466.0,-0.0002
2465.0,-0.0001
2464.0,-0.0002
2463.0,-0.0002
2462.0,-0.0002
2461.0,-0.0003
2460.0,-0.0003
2459.0,-0.0003
2458.0,-0.0003
2457.0,-0.0003
2456.0,-0.0003
2455.0,-0.0004
2454.0,-0.0004
2453.0,-0.0003
2452.0,-0.0003
2451.0,-0.0003
2450.0,-0.0003
2449.0,-0.0004
2448.0,-0.0004
2447.0,-0.0004
2446.0,-0.0004
2445.0,-0.0005
2444.0,-0.0004
2443.0,-0.0004
2442.0,-0.0003
2441.0,-0.0002
2440.0,-0.0001
2439.0,-0.0001
2438.0,-0.0001
2437.0,-0.0001
2436.0,-0.0001
2435.0,-0.0002
2434.0,-0.0002
2433.0,-0.0002
2432.0,-0.0002
2431.0,-0.0002
2430.0,-0.0001
2429.0,-0.0001
2428.0,-0.0001
2427.0,-0.0001
2426.0,-0.0002
2425.0,-0.0002
2424.0,-0.0002
2423.0,-0.0002
2422.0,-0.0002
2421.0,-0.0002
2420.0,-0.0002
2419.0,-0.0003
2418.0,-0.0003
2417.0,-0.0003
2416.0,-0.0003
2415.0,-0.0003
2414.0,-0.0003
2413.0,-0.0003
2412.0,-0.0002
2411.0,-0.0002
2410.0,-0.0002
2409.0,-0.0003
2408.0,-0.0003
2407.0,-0.0004
2406.0,-0.0004
2405.0,-0.0004
2404.0,-0.0004
2403.0,-0.0003
2402.0,-0.0003
2401.0,-0.0002
2400.0,-0.0002
2399.0,-0.0003
2398.0,-0.0003
2397.0,-0.0004
2396.0,-0.0004
2395.0,-0.0003
2394.0,-0.0003
2393.0,-0.0002
2392.0,-0.0001
2391.0,-0.0001
2390.0,-0.0001
2389.0,-0.0
2388.0,-0.0
2387.0,0.0
2386.0,0.0
2385.0,0.0001
2384.0,0.0001
2383.0,0.0001
2382.0,0.0001
2381.0,0.0
2380.0,0.0
2379.0,0.0
2378.0,-0.0
2377.0,0.0
2376.0,0.0002
2375.0,0.0004
2374.0,0.0006
2373.0,0.0006
2372.0,0.0005
2371.0,0.0007
2370.0,0.0012
2369.0,0.0018
2368.0,0.0021
2367.0,0.002
2366.0,0.0015
2365.0,0.0006
2364.0,-0.0004
2363.0,-0.0012
2362.0,-0.0017
2361.0,-0.0018
2360.0,-0.0016
2359.0,-0.0013
2358.0,-0.0011
2357.0,-0.0012
2356.0,-0.0013
2355.0,-0.001
2354.0,-0.0006
2353.0,-0.0004
2352.0,-0.0005
2351.0,-0.0007
2350.0,-0.0009
2349.0,-0.001
2348.0,-0.0009
2347.0,-0.0008
2346.0,-0.0006
2345.0,-0.0006
2344.0,-0.0006
2343.0,-0.0004
2342.0,-0.0003
2341.0,-0.0004
2340.0,-0.0005
2339.0,-0.0005
2338.0,-0.0005
2337.0,-0.0006
2336.0,-0.0008
2335.0,-0.001
2334.0,-0.0011
2333.0,-0.0011
2332.0,-0.001
2331.0,-0.0008
2330.0,-0.0006
2329.0,-0.0005
2328.0,-0.0004
2327.0,-0.0002
2326.0,0.0001
2325.0,0.0003
2324.0,0.0003
2323.0,0.0003
2322.0,0.0003
2321.0,0.0005
2320.0,0.0008
2319.0,0.001
2318.0,0.0012
2317.0,0.0013
2316.0,0.0013
2315.0,0.0012
2314.0,0.0012
2313.0,0.0011
2312.0,0.0011
2311.0,0.0011
2310.0,0.001
2309.0,0.0009
2308.0,0.0009
2307.0,0.0008
2306.0,0.0007
2305.0,0.0007
2304.0,0.0007
2303.0,0.0007
2302.0,0.0008
2301.0,0.0008
2300.0,0.0007
2299.0,0.0007
2298.0,0.0007
2297.0,0.0006
2296.0,0.0006
2295.0,0.0006
2294.0,0.0006
2293.0,0.0006
2292.0,0.0005
2291.0,0.0004
2290.0,0.0004
2289.0,0.0004
2288.0,0.0004
2287.0,0.0005
2286.0,0.0005
2285.0,0.0004
2284.0,0.0004
2283.0,0.0004
2282.0,0.0004
2281.0,0.0004
2280.0,0.0005
2279.0,0.0005
2278.0,0.0005
2277.0,0.0005
2276.0,0.0004
2275.0,0.0004
2274.0,0.0003
2273.0,0.0003
2272.0,0.0004
2271.0,0.0004
2270.0,0.0005
2269.0,0.0005
2268.0,0.0004
2267.0,0.0004
2266.0,0.0004
2265.0,0.0005
2264.0,0.0005
2263.0,0.0005
2262.0,0.0005
2261.0,0.0005
2260.0,0.0005
2259.0,0.0006
2258.0,0.0006
2257.0,0.0006
2256.0,0.0007
2255.0,0.0007
2254.0,0.0007
2253.0,0.0006
2252.0,0.0006
2251.0,0.0006
2250.0,0.0006
2249.0,0.0006
2248.0,0.0006
2247.0,0.0005
2246.0,0.0005
2245.0,0.0005
2244.0,0.0006
2243.0,0.0007
2242.0,0.0007
2241.0,0.0007
2240.0,0.0007
2239.0,0.0007
2238.0,0.0007
2237.0,0.0007
2236.0,0.0007
2235.0,0.0007
2234.0,0.0007
2233.0,0.0007
2232.0,0.0007
2231.0,0.0007
2230.0,0.0008
2229.0,0.0008
2228.0,0.0008
2227.0,0.0008
2226.0,0.0007
2225.0,0.0006
2224.0,0.0006
2223.0,0.0007
2222.0,0.0008
2221.0,0.0008
2220.0,0.0008
2219.0,0.0008
2218.0,0.0007
2217.0,0.0008
2216.0,0.0008
2215.0,0.0007
2214.0,0.0007
2213.0,0.0006
2212.0,0.0006
2211.0,0.0006
2210.0,0.0006
2209.0,0.0006
2208.0,0.0006
2207.0,0.0007
2206.0,0.0007
2205.0,0.0007
2204.0,0.0008
2203.0,0.0008
2202.0,0.0008
2201.0,0.0008
2200.0,0.0007
2199.0,0.0007
2198.0,0.0007
2197.0,0.0007
2196.0,0.0007
2195.0,0.0007
2194.0,0.0007
2193.0,0.0006
2192.0,0.0006
2191.0,0.0007
2190.0,0.0007
2189.0,0.0007
2188.0,0.0007
2187.0,0.0008
2186.0,0.0008
2185.0,0.0008
2184.0,0.0009
2183.0,0.0009
2182.0,0.0008
2181.0,0.0008
2180.0,0.0008
2179.0,0.0007
2178.0,0.0007
2177.0,0.0008
2176.0,0.0008
2175.0,0.0008
2174.0,0.0009
2173.0,0.0008
2172.0,0.0008
2171.0,0.0008
2170.0,0.0008
2169.0,0.0008
2168.0,0.0008
2167.0,0.0009
2166.0,0.0008
2165.0,0.0008
2164.0,0.0007
2163.0,0.0007
2162.0,0.0007
2161.0,0.0007
2160.0,0.0007
2159.0,0.0007
2158.0,0.0008
2157.0,0.0008
2156.0,0.0008
2155.0,0.0008
2154.0,0.0008
2153.0,0.0008
2152.0,0.0008
2151.0,0.0008
2150.0,0.0008
2149.0,0.0009
2148.0,0.0009
2147.0,0.0009
2146.0,0.0009
2145.0,0.0009
2144.0,0.0009
2143.0,0.0009
2142.0,0.0009
2141.0,0.0008
2140.0,0.0008
2139.0,0.0007
2138.0,0.0007
2137.0,0.0008
2136.0,0.0009
2135.0,0.0009
2134.0,0.0008
2133.0,0.0008
2132.0,0.0008
2131.0,0.0008
2130.0,0.0008
2129.0,0.0008
2128.0,0.0008
2127.0,0.0009
2126.0,0.0009
2125.0,0.001
2124.0,0.001
2123.0,0.0009
2122.0,0.0009
2121.0,0.0008
2120.0,0.0007
2119.0,0.0007
2118.0,0.0008
2117.0,0.0008
2116.0,0.0009
2115.0,0.0009
2114.0,0.0009
2113.0,0.0008
2112.0,0.0007
2111.0,0.0007
2110.0,0.0007
2109.0,0.0007
2108.0,0.0008
2107.0,0.0008
2106.0,0.0009
2105.0,0.0009
2104.0,0.0009
2103.0,0.0009
2102.0,0.001
2101.0,0.001
2100.0,0.001
2099.0,0.001
2098.0,0.001
2097.0,0.0009
2096.0,0.001
2095.0,0.001
2094.0,0.001
2093.0,0.001
2092.0,0.001
2091.0,0.001
2090.0,0.001
2089.0,0.0009
2088.0,0.0009
2087.0,0.0009
2086.0,0.0009
2085.0,0.0009
2084.0,0.001
2083.0,0.001
2082.0,0.001
2081.0,0.001
2080.0,0.001
2079.0,0.001
2078.0,0.0009
2077.0,0.0009
2076.0,0.0009
2075.0,0.0009
2074.0,0.0009
2073.0,0.001
2072.0,0.001
2071.0,0.001
2070.0,0.001
2069.0,0.001
2068.0,0.001
2067.0,0.0009
2066.0,0.0009
2065.0,0.0009
2064.0,0.0009
2063.0,0.0009
2062.0,0.0009
2061.0,0.001
2060.0,0.001
2059.0,0.001
2058.0,0.0011
2057.0,0.0011
2056.0,0.0011
2055.0,0.0011
2054.0,0.001
2053.0,0.001
2052.0,0.001
2051.0,0.001
2050.0,0.001
2049.0,0.0011
2048.0,0.0011
2047.0,0.0011
2046.0,0.0011
2045.0,0.0011
2044.0,0.001
2043.0,0.0011
2042.0,0.0011
2041.0,0.0011
2040.0,0.0011
2039.0,0.0011
2038.0,0.0011
2037.0,0.0011
2036.0,0.0011
2035.0,0.0011
2034.0,0.0011
2033.0,0.0011
2032.0,0.0011
2031.0,0.0011
2030.0,0.0011
2029.0,0.0011
2028.0,0.0011
2027.0,0.0011
2026.0,0.001
2025.0,0.001
2024.0,0.001
2023.0,0.001
2022.0,0.001
2021.0,0.001
2020.0,0.0011
2019.0,0.0012
2018.0,0.0012
2017.0,0.0012
2016.0,0.0012
2015.0,0.0011
2014.0,0.0011
2013.0,0.0011
2012.0,0.001
2011.0,0.0011
2010.0,0.0011
2009.0,0.0011
2008.0,0.0011
2007.0,0.0011
2006.0,0.001
2005.0,0.0011
2004.0,0.0011
2003.0,0.0011
2002.0,0.0011
2001.0,0.0011
2000.0,0.0011
1999.0,0.0011
1998.0,0.0011
1997.0,0.0011
1996.0,0.0011
1995.0,0.0012
1994.0,0.0012
1993.0,0.0011
1992.0,0.0011
1991.0,0.0011
1990.0,0.001
1989.0,0.001
1988.0,0.0011
1987.0,0.0011
1986.0,0.0011
1985.0,0.0011
1984.0,0.0011
1983.0,0.0011
1982.0,0.0011
1981.0,0.0011
1980.0,0.0011
1979.0,0.0011
1978.0,0.0011
1977.0,0.0011
1976.0,0.0012
1975.0,0.0012
1974.0,0.0012
1973.0,0.0012
1972.0,0.0012
1971.0,0.0011
1970.0,0.0011
1969.0,0.0011
1968.0,0.0012
1967.0,0.0012
1966.0,0.0012
1965.0,0.0012
1964.0,0.0012
1963.0,0.0012
1962.0,0.0012
1961.0,0.0011
1960.0,0.0011
1959.0,0.0011
1958.0,0.0011
1957.0,0.0012
1956.0,0.0012
1955.0,0.0012
1954.0,0.0012
1953.0,0.0013
1952.0,0.0013
1951.0,0.0013
1950.0,0.0013
1949.0,0.0013
1948.0,0.0012
1947.0,0.0012
1946.0,0.0012
1945.0,0.0012
1944.0,0.0012
1943.0,0.0012
1942.0,0.0012
1941.0,0.0012
1940.0,0.0012
1939.0,0.0012
1938.0,0.0012
1937.0,0.0012
1936.0,0.0012
1935.0,0.0012
1934.0,0.0012
1933.0,0.0012
1932.0,0.0012
1931.0,0.0013
1930.0,0.0013
1929.0,0.0013
1928.0,0.0012
1927.0,0.0012
1926.0,0.0012
1925.0,0.0012
1924.0,0.0012
1923.0,0.0012
1922.0,0.0012
1921.0,0.0012
1920.0,0.0012
1919.0,0.0013
1918.0,0.0013
1917.0,0.0013
1916.0,0.0013
1915.0,0.0013
1914.0,0.0013
1913.0,0.0012
1912.0,0.0012
1911.0,0.0012
1910.0,0.0012
1909.0,0.0012
1908.0,0.0012
1907.0,0.0012
1906.0,0.0012
1905.0,0.0013
1904.0,0.0013
1903.0,0.0012
1902.0,0.0012
1901.0,0.0012
1900.0,0.0012
1899.0,0.0011
1898.0,0.0011
1897.0,0.0011
1896.0,0.0012
1895.0,0.0012
1894.0,0.0012
1893.0,0.0012
1892.0,0.0012
1891.0,0.0012
1890.0,0.0011
1889.0,0.0011
1888.0,0.0011
1887.0,0.0012
1886.0,0.0012
1885.0,0.0013
1884.0,0.0013
1883.0,0.0014
1882.0,0.0014
1881.0,0.0014
1880.0,0.0013
1879.0,0.0012
1878.0,0.0012
1877.0,0.0012
1876.0,0.0012
1875.0,0.0012
1874.0,0.0012
1873.0,0.0012
1872.0,0.0013
1871.0,0.0013
1870.0,0.0013
1869.0,0.0013
1868.0,0.0012
1867.0,0.0011
1866.0,0.0012
1865.0,0.0012
1864.0,0.0012
1863.0,0.0012
1862.0,0.0012
1861.0,0.0012
1860.0,0.0012
1859.0,0.0011
1858.0,0.0011
1857.0,0.0011
1856.0,0.0011
1855.0,0.0011
1854.0,0.0011
1853.0,0.0011
1852.0,0.0011
1851.0,0.0011
1850.0,0.0011
1849.0,0.0011
1848.0,0.0011
1847.0,0.0011
1846.0,0.0011
1845.0,0.0011
1844.0,0.001
1843.0,0.0009
1842.0,0.0009
1841.0,0.0009
1840.0,0.001
1839.0,0.001
1838.0,0.001
1837.0,0.0009
1836.0,0.0009
1835.0,0.0009
1834.0,0.0009
1833.0,0.001
1832.0,0.001
1831.0,0.001
1830.0,0.0009
1829.0,0.0008
1828.0,0.0008
1827.0,0.0008
1826.0,0.0008
1825.0,0.0008
1824.0,0.0008
1823.0,0.0008
1822.0,0.0008
1821.0,0.0008
1820.0,0.0008
1819.0,0.0007
1818.0,0.0007
1817.0,0.0007
1816.0,0.0007
1815.0,0.0007
1814.0,0.0007
1813.0,0.0007
1812.0,0.0007
1811.0,0.0007
1810.0,0.0007
1809.0,0.0006
1808.0,0.0005
1807.0,0.0004
1806.0,0.0004
1805.0,0.0005
1804.0,0.0005
1803.0,0.0006
1802.0,0.0006
1801.0,0.0007
1800.0,0.0006
1799.0,0.0006
1798.0,0.0005
1797.0,0.0004
1796.0,0.0004
1795.0,0.0004
1794.0,0.0004
1793.0,0.0004
1792.0,0.0003
1791.0,0.0002
1790.0,0.0001
1789.0,0.0001
1788.0,0.0
1787.0,-0.0
1786.0,-0.0001
1785.0,-0.0001
1784.0,-0.0001
1783.0,-0.0001
1782.0,-0.0001
1781.0,-0.0001
1780.0,-0.0002
1779.0,-0.0002
1778.0,-0.0003
1777.0,-0.0003
1776.0,-0.0004
1775.0,-0.0005
1774.0,-0.0006
1773.0,-0.0008
1772.0,-0.001
1771.0,-0.001
1770.0,-0.001
1769.0,-0.001
1768.0,-0.0011
1767.0,-0.0012
1766.0,-0.0013
1765.0,-0.0013
1764.0,-0.0013
1763.0,-0.0014
1762.0,-0.0015
1761.0,-0.0017
1760.0,-0.0018
1759.0,-0.0019
1758.0,-0.002
1757.0,-0.0022
1756.0,-0.0023
1755.0,-0.0024
1754.0,-0.0023
1753.0,-0.0023
1752.0,-0.0025
1751.0,-0.0026
1750.0,-0.0027
1749.0,-0.0028
1748.0,-0.0027
1747.0,-0.0026
1746.0,-0.0024
1745.0,-0.0021
1744.0,-0.0019
1743.0,-0.0016
1742.0,-0.0013
1741.0,-0.0009
1740.0,-0.0005
1739.0,-0.0
1738.0,0.0004
1737.0,0.0007
1736.0,0.0011
1735.0,0.0017
1734.0,0.0025
1733.0,0.0031
1732.0,0.0035
1731.0,0.004
1730.0,0.0045
1729.0,0.005
1728.0,0.0054
1727.0,0.0058
1726.0,0.0062
1725.0,0.0065
1724.0,0.0069
1723.0,0.0072
1722.0,0.0075
1721.0,0.0078
1720.0,0.008
1719.0,0.0083
1718.0,0.0087
1717.0,0.009
1716.0,0.0092
1715.0,0.0093
1714.0,0.0093
1713.0,0.0093
1712.0,0.0093
1711.0,0.0092
1710.0,0.0091
1709.0,0.0089
1708.0,0.0088
1707.0,0.0085
1706.0,0.0083
1705.0,0.008
1704.0,0.0077
1703.0,0.0075
1702.0,0.0073
1701.0,0.0071
1700.0,0.0067
1699.0,0.0064
1698.0,0.0062
1697.0,0.0061
1696.0,0.0058
1695.0,0.0055
1694.0,0.0053
1693.0,0.0051
1692.0,0.0049
1691.0,0.0047
1690.0,0.0045
1689.0,0.0043
1688.0,0.0042
1687.0,0.004
1686.0,0.0038
1685.0,0.0036
1684.0,0.0034
1683.0,0.0032
1682.0,0.0032
1681.0,0.0031
1680.0,0.003
1679.0,0.0029
1678.0,0.0028
1677.0,0.0026
1676.0,0.0025
1675.0,0.0023
1674.0,0.0022
1673.0,0.0022
1672.0,0.0021
1671.0,0.002
1670.0,0.0018
1669.0,0.0016
1668.0,0.0015
1667.0,0.0013
1666.0,0.0013
1665.0,0.0012
1664.0,0.0011
1663.0,0.001
1662.0,0.001
1661.0,0.001
1660.0,0.001
1659.0,0.001
1658.0,0.001
1657.0,0.0012
1656.0,0.0014
1655.0,0.0018
1654.0,0.0024
1653.0,0.003
1652.0,0.0031
1651.0,0.0033
1650.0,0.0036
1649.0,0.0041
1648.0,0.005
1647.0,0.0063
1646.0,0.0074
1645.0,0.0081
1644.0,0.0085
1643.0,0.0089
1642.0,0.0092
1641.0,0.0096
1640.0,0.01
1639.0,0.0104
1638.0,0.011
1637.0,0.012
1636.0,0.0141
1635.0,0.016
1634.0,0.0171
1633.0,0.0177
1632.0,0.018
1631.0,0.0183
1630.0,0.0184
1629.0,0.0187
1628.0,0.0191
1627.0,0.0196
1626.0,0.0196
1625.0,0.0192
1624.0,0.0185
1623.0,0.0175
1622.0,0.0164
1621.0,0.0154
1620.0,0.0145
1619.0,0.0136
1618.0,0.0127
1617.0,0.0117
1616.0,0.011
1615.0,0.0105
1614.0,0.0101
1613.0,0.0097
1612.0,0.0093
1611.0,0.009
1610.0,0.0087
1609.0,0.0085
1608.0,0.0083
1607.0,0.008
1606.0,0.0078
1605.0,0.0076
1604.0,0.0074
1603.0,0.0073
1602.0,0.0071
1601.0,0.007
1600.0,0.0069
1599.0,0.0068
1598.0,0.0067
1597.0,0.0067
1596.0,0.0066
1595.0,0.0065
1594.0,0.0065
1593.0,0.0064
1592.0,0.0063
1591.0,0.0063
1590.0,0.0063
1589.0,0.0062
1588.0,0.0062
1587.0,0.0061
1586.0,0.0061
1585.0,0.006
1584.0,0.006
1583.0,0.0061
1582.0,0.0063
1581.0,0.0065
1580.0,0.0066
1579.0,0.0067
1578.0,0.0068
1577.0,0.0069
1576.0,0.007
1575.0,0.0071
1574.0,0.007
1573.0,0.007
1572.0,0.007
1571.0,0.0069
1570.0,0.0069
1569.0,0.0069
1568.0,0.0069
1567.0,0.0068
1566.0,0.0068
1565.0,0.0068
1564.0,0.0068
1563.0,0.0068
1562.0,0.0067
1561.0,0.0066
1560.0,0.0065
1559.0,0.0068
1558.0,0.0067
1557.0,0.0067
1556.0,0.0067
1555.0,0.0068
1554.0,0.0068
1553.0,0.0067
1552.0,0.0066
1551.0,0.0066
1550.0,0.0066
1549.0,0.0066
1548.0,0.0065
1547.0,0.0064
1546.0,0.0064
1545.0,0.0064
1544.0,0.0064
1543.0,0.0065
1542.0,0.0064
1541.0,0.0064
1540.0,0.0062
1539.0,0.0061
1538.0,0.0061
1537.0,0.0061
1536.0,0.0062
1535.0,0.0063
1534.0,0.0064
1533.0,0.0064
1532.0,0.0064
1531.0,0.0064
1530.0,0.0063
1529.0,0.0063
1528.0,0.0062
1527.0,0.0062
1526.0,0.0062
1525.0,0.0063
1524.0,0.0063
1523.0,0.0063
1522.0,0.0063
1521.0,0.0062
1520.0,0.0061
1519.0,0.0061
1518.0,0.0061
1517.0,0.006
1516.0,0.0059
1515.0,0.0059
1514.0,0.0059
1513.0,0.0059
1512.0,0.0058
1511.0,0.0057
1510.0,0.0056
1509.0,0.0056
1508.0,0.0058
1507.0,0.0063
1506.0,0.0067
1505.0,0.0068
1504.0,0.0069
1503.0,0.0069
1502.0,0.0069
1501.0,0.0067
1500.0,0.0066
1499.0,0.0064
1498.0,0.0064
1497.0,0.0064
1496.0,0.0063
1495.0,0.0061
1494.0,0.0059
1493.0,0.0057
1492.0,0.0056
1491.0,0.0055
1490.0,0.0056
1489.0,0.0057
1488.0,0.0057
1487.0,0.0056
1486.0,0.0056
1485.0,0.0055
1484.0,0.0055
1483.0,0.0055
1482.0,0.0055
1481.0,0.0055
1480.0,0.0055
1479.0,0.0055
1478.0,0.0054
1477.0,0.0054
1476.0,0.0054
1475.0,0.0054
1474.0,0.0054
1473.0,0.0054
1472.0,0.0054
1471.0,0.0053
1470.0,0.0052
1469.0,0.0052
1468.0,0.0051
1467.0,0.0051
1466.0,0.0051
1465.0,0.0051
1464.0,0.0052
1463.0,0.0053
1462.0,0.0054
1461.0,0.0055
1460.0,0.0056
1459.0,0.0057
1458.0,0.0059
1457.0,0.0061
1456.0,0.0061
1455.0,0.0061
1454.0,0.0062
1453.0,0.0063
1452.0,0.0063
1451.0,0.0063
1450.0,0.0063
1449.0,0.0064
1448.0,0.0064
1447.0,0.0064
1446.0,0.0064
1445.0,0.0065
1444.0,0.0065
1443.0,0.0065
1442.0,0.0065
1441.0,0.0065
1440.0,0.0064
1439.0,0.0063
1438.0,0.0063
1437.0,0.0063
1436.0,0.0063
1435.0,0.0062
1434.0,0.0061
1433.0,0.006
1432.0,0.0059
1431.0,0.0058
1430.0,0.0056
1429.0,0.0055
1428.0,0.0054
1427.0,0.0053
1426.0,0.0052
1425.0,0.005
1424.0,0.0049
1423.0,0.0048
1422.0,0.0048
1421.0,0.0047
1420.0,0.0046
1419.0,0.0045
1418.0,0.0043
1417.0,0.0043
1416.0,0.0045
1415.0,0.0048
1414.0,0.0053
1413.0,0.006
1412.0,0.0068
1411.0,0.0077
1410.0,0.0084
1409.0,0.009
1408.0,0.0093
1407.0,0.0094
1406.0,0.0094
1405.0,0.0092
1404.0,0.0089
1403.0,0.0086
1402.0,0.0083
1401.0,0.0081
1400.0,0.0078
1399.0,0.0076
1398.0,0.0073
1397.0,0.0071
1396.0,0.007
1395.0,0.0069
1394.0,0.0068
1393.0,0.0067
1392.0,0.0066
1391.0,0.0065
1390.0,0.0063
1389.0,0.0062
1388.0,0.0061
1387.0,0.0059
1386.0,0.0058
1385.0,0.0057
1384.0,0.0056
1383.0,0.0055
1382.0,0.0055
1381.0,0.0054
1380.0,0.0054
1379.0,0.0053
1378.0,0.0053
1377.0,0.0053
1376.0,0.0054
1375.0,0.0056
1374.0,0.0058
1373.0,0.006
1372.0,0.0061
1371.0,0.0062
1370.0,0.0063
1369.0,0.0064
1368.0,0.0064
1367.0,0.0064
1366.0,0.0063
1365.0,0.0062
1364.0,0.006
1363.0,0.0059
1362.0,0.0057
1361.0,0.0056
1360.0,0.0054
1359.0,0.0052
1358.0,0.0051
1357.0,0.0049
1356.0,0.0048
1355.0,0.0046
1354.0,0.0045
1353.0,0.0044
1352.0,0.0043
1351.0,0.0042
1350.0,0.0041
1349.0,0.0041
1348.0,0.0042
1347.0,0.0042
1346.0,0.0042
1345.0,0.0042
1344.0,0.0043
1343.0,0.0044
1342.0,0.0045
1341.0,0.0047
1340.0,0.0049
1339.0,0.0049
1338.0,0.0049
1337.0,0.0048
1336.0,0.0046
1335.0,0.0043
1334.0,0.004
1333.0,0.0037
1332.0,0.0035
1331.0,0.0033
1330.0,0.0031
1329.0,0.0029
1328.0,0.0027
1327.0,0.0026
1326.0,0.0025
1325.0,0.0024
1324.0,0.0024
1323.0,0.0023
1322.0,0.0023
1321.0,0.0024
1320.0,0.0024
1319.0,0.0024
1318.0,0.0024
1317.0,0.0024
1316.0,0.0024
1315.0,0.0025
1314.0,0.0026
1313.0,0.0027
1312.0,0.0028
1311.0,0.0029
1310.0,0.0031
1309.0,0.0032
1308.0,0.0034
1307.0,0.0035
1306.0,0.0037
1305.0,0.0039
1304.0,0.004
1303.0,0.0042
1302.0,0.0045
1301.0,0.0048
1300.0,0.0052
1299.0,0.0057
1298.0,0.0062
1297.0,0.0068
1296.0,0.0075
1295.0,0.0081
1294.0,0.0087
1293.0,0.0094
1292.0,0.01
1291.0,0.0106
1290.0,0.0111
1289.0,0.0116
1288.0,0.012
1287.0,0.0124
1286.0,0.0129
1285.0,0.0133
1284.0,0.0136
1283.0,0.0139
1282.0,0.0142
1281.0,0.0144
1280.0,0.0146
1279.0,0.0148
1278.0,0.015
1277.0,0.0152
1276.0,0.0154
1275.0,0.0157
1274.0,0.016
1273.0,0.0164
1272.0,0.0169
1271.0,0.0175
1270.0,0.0182
1269.0,0.0189
1268.0,0.0196
1267.0,0.0203
1266.0,0.021
1265.0,0.0216
1264.0,0.0222
1263.0,0.0228
1262.0,0.0233
1261.0,0.0237
1260.0,0.0241
1259.0,0.0244
1258.0,0.0247
1257.0,0.0248
1256.0,0.025
1255.0,0.0252
1254.0,0.0253
1253.0,0.0255
1252.0,0.0258
1251.0,0.0261
1250.0,0.0264
1249.0,0.0268
1248.0,0.0273
1247.0,0.0278
1246.0,0.0283
1245.0,0.0289
1244.0,0.0295
1243.0,0.03
1242.0,0.0305
1241.0,0.0309
1240.0,0.0313
1239.0,0.0315
1238.0,0.0317
1237.0,0.0318
1236.0,0.0318
1235.0,0.0317
1234.0,0.0316
1233.0,0.0313
1232.0,0.031
1231.0,0.0306
1230.0,0.0301
1229.0,0.0296
1228.0,0.0291
1227.0,0.0287
1226.0,0.0282
1225.0,0.0277
1224.0,0.0273
1223.0,0.0269
1222.0,0.0265
1221.0,0.0261
1220.0,0.0257
1219.0,0.0253
1218.0,0.0249
1217.0,0.0245
1216.0,0.0242
1215.0,0.0238
1214.0,0.0234
1213.0,0.0231
1212.0,0.0227
1211.0,0.0224
1210.0,0.0221
1209.0,0.0218
1208.0,0.0216
1207.0,0.0213
1206.0,0.021
1205.0,0.0207
1204.0,0.0205
1203.0,0.0203
1202.0,0.0201
1201.0,0.0198
1200.0,0.0196
1199.0,0.0193
1198.0,0.0191
1197.0,0.0188
1196.0,0.0186
1195.0,0.0184
1194.0,0.0182
1193.0,0.0179
1192.0,0.0177
1191.0,0.0174
1190.0,0.0172
1189.0,0.017
1188.0,0.0167
1187.0,0.0165
1186.0,0.0163
1185.0,0.0162
1184.0,0.016
1183.0,0.0158
1182.0,0.0156
1181.0,0.0155
1180.0,0.0154
1179.0,0.0153
1178.0,0.0153
1177.0,0.0153
1176.0,0.0153
1175.0,0.0153
1174.0,0.0153
1173.0,0.0153
1172.0,0.0152
1171.0,0.0151
1170.0,0.0149
1169.0,0.0146
1168.0,0.0143
1167.0,0.0139
1166.0,0.0137
1165.0,0.0134
1164.0,0.0131
1163.0,0.0128
1162.0,0.0125
1161.0,0.0122
1160.0,0.0119
1159.0,0.0117
1158.0,0.0116
1157.0,0.0115
1156.0,0.0113
1155.0,0.0112
1154.0,0.0111
1153.0,0.011
1152.0,0.0108
1151.0,0.0107
1150.0,0.0107
1149.0,0.0107
1148.0,0.0108
1147.0,0.0109
1146.0,0.0111
1145.0,0.0112
1144.0,0.0115
1143.0,0.0118
1142.0,0.0121
1141.0,0.0125
1140.0,0.0128
1139.0,0.013
1138.0,0.0133
1137.0,0.0136
1136.0,0.0139
1135.0,0.0142
1134.0,0.0144
1133.0,0.0145
1132.0,0.0147
1131.0,0.0149
1130.0,0.0151
1129.0,0.0155
1128.0,0.016
1127.0,0.0165
1126.0,0.0171
1125.0,0.0178
1124.0,0.0184
1123.0,0.0191
1122.0,0.0198
1121.0,0.0204
1120.0,0.021
1119.0,0.0214
1118.0,0.0218
1117.0,0.022
1116.0,0.0222
1115.0,0.0222
1114.0,0.022
1113.0,0.0219
1112.0,0.0217
1111.0,0.0215
1110.0,0.0215
1109.0,0.0218
1108.0,0.0223
1107.0,0.023
1106.0,0.0238
1105.0,0.0247
1104.0,0.0256
1103.0,0.0267
1102.0,0.0278
1101.0,0.0289
1100.0,0.0299
1099.0,0.0309
1098.0,0.0317
1097.0,0.0326
1096.0,0.0334
1095.0,0.0341
1094.0,0.0347
1093.0,0.0351
1092.0,0.0355
1091.0,0.0359
1090.0,0.0362
1089.0,0.0363
1088.0,0.0364
1087.0,0.0364
1086.0,0.0364
1085.0,0.0363
1084.0,0.0363
1083.0,0.0362
1082.0,0.0361
1081.0,0.0359
1080.0,0.0357
1079.0,0.0354
1078.0,0.035
1077.0,0.0345
1076.0,0.0341
1075.0,0.0336
1074.0,0.0332
1073.0,0.0328
1072.0,0.0324
1071.0,0.0319
1070.0,0.0314
1069.0,0.031
1068.0,0.0305
1067.0,0.0301
1066.0,0.0297
1065.0,0.0294
1064.0,0.0291
1063.0,0.0288
1062.0,0.0285
1061.0,0.0282
1060.0,0.0279
1059.0,0.0277
1058.0,0.0274
1057.0,0.0271
1056.0,0.0268
1055.0,0.0266
1054.0,0.0264
1053.0,0.0264
1052.0,0.0264
1051.0,0.0265
1050.0,0.0266
1049.0,0.0268
1048.0,0.0269
1047.0,0.0271
1046.0,0.0273
1045.0,0.0274
1044.0,0.0276
1043.0,0.0278
1042.0,0.0279
1041.0,0.028
1040.0,0.0282
1039.0,0.0282
1038.0,0.0282
1037.0,0.0282
1036.0,0.0281
1035.0,0.0281
1034.0,0.0281
1033.0,0.0281
1032.0,0.028
1031.0,0.0278
1030.0,0.0277
1029.0,0.0275
1028.0,0.0273
1027.0,0.0271
1026.0,0.0268
1025.0,0.0266
1024.0,0.0265
1023.0,0.0267
1022.0,0.0272
1021.0,0.0282
1020.0,0.0295
1019.0,0.0313
1018.0,0.0331
1017.0,0.0347
1016.0,0.0359
1015.0,0.0365
1014.0,0.0365
1013.0,0.0361
1012.0,0.0354
1011.0,0.0347
1010.0,0.034
1009.0,0.0335
1008.0,0.033
1007.0,0.0326
1006.0,0.0321
1005.0,0.0318
1004.0,0.0315
1003.0,0.0313
1002.0,0.0311
1001.0,0.0309
1000.0,0.0308
999.0,0.0306
998.0,0.0304
997.0,0.0302
996.0,0.03
995.0,0.0299
994.0,0.0298
993.0,0.0298
992.0,0.0297
991.0,0.0296
990.0,0.0296
989.0,0.0295
988.0,0.0295
987.0,0.0294
986.0,0.0293
985.0,0.0292
984.0,0.0292
983.0,0.0292
982.0,0.0291
981.0,0.0291
980.0,0.0291
979.0,0.029
978.0,0.029
977.0,0.0291
976.0,0.0292
975.0,0.0292
974.0,0.0292
973.0,0.0291
972.0,0.0291
971.0,0.029
970.0,0.029
969.0,0.029
968.0,0.0289
967.0,0.029
966.0,0.029
965.0,0.029
964.0,0.029
963.0,0.0289
962.0,0.0288
961.0,0.0287
960.0,0.0286
959.0,0.0286
958.0,0.0286
957.0,0.0285
956.0,0.0285
955.0,0.0285
954.0,0.0284
953.0,0.0284
952.0,0.0283
951.0,0.0282
950.0,0.0281
949.0,0.0281
948.0,0.028
947.0,0.0279
946.0,0.0279
945.0,0.0279
944.0,0.0278
943.0,0.0278
942.0,0.0277
941.0,0.0277
940.0,0.0276
939.0,0.0276
938.0,0.0275
937.0,0.0275
936.0,0.0276
935.0,0.0276
934.0,0.0275
933.0,0.0274
932.0,0.0272
931.0,0.0271
930.0,0.027
929.0,0.0269
928.0,0.0269
927.0,0.0269
926.0,0.0269
925.0,0.0268
924.0,0.0267
923.0,0.0265
922.0,0.0264
921.0,0.0263
920.0,0.0262
919.0,0.0261
918.0,0.0261
917.0,0.0262
916.0,0.0262
915.0,0.0262
914.0,0.0262
913.0,0.0261
912.0,0.0261
911.0,0.0261
910.0,0.0261
909.0,0.0262
908.0,0.0263
907.0,0.0264
906.0,0.0266
905.0,0.0268
904.0,0.027
903.0,0.0273
902.0,0.0275
901.0,0.0277
900.0,0.028
899.0,0.0281
898.0,0.0282
897.0,0.0282
896.0,0.0282
895.0,0.0283
894.0,0.0284
893.0,0.0286
892.0,0.0287
891.0,0.0287
890.0,0.0286
889.0,0.0284
888.0,0.0283
887.0,0.0283
886.0,0.0283
885.0,0.0284
884.0,0.0285
883.0,0.0287
882.0,0.0289
881.0,0.0292
880.0,0.0297
879.0,0.0303
878.0,0.0309
877.0,0.0315
876.0,0.032
875.0,0.0326
874.0,0.0334
873.0,0.0341
872.0,0.0347
871.0,0.0349
870.0,0.035
869.0,0.0348
868.0,0.0346
867.0,0.0342
866.0,0.0338
865.0,0.0334
864.0,0.033
863.0,0.0328
862.0,0.0326
861.0,0.0324
860.0,0.0322
859.0,0.0318
858.0,0.0314
857.0,0.0312
856.0,0.0311
855.0,0.0312
854.0,0.0312
853.0,0.0312
852.0,0.0312
851.0,0.0311
850.0,0.031
849.0,0.0309
848.0,0.0309
847.0,0.031
846.0,0.0311
845.0,0.0312
844.0,0.0313
843.0,0.0313
842.0,0.0313
841.0,0.0313
840.0,0.0312
839.0,0.0311
838.0,0.031
837.0,0.0309
836.0,0.031
835.0,0.031
834.0,0.0311
833.0,0.0311
832.0,0.031
831.0,0.0309
830.0,0.0307
829.0,0.0307
828.0,0.0307
827.0,0.0306
826.0,0.0305
825.0,0.0303
824.0,0.0303
823.0,0.0303
822.0,0.0303
821.0,0.0302
820.0,0.03
819.0,0.0298
818.0,0.0296
817.0,0.0295
816.0,0.0295
815.0,0.0296
814.0,0.0298
813.0,0.0299
812.0,0.03
811.0,0.0298
810.0,0.0296
809.0,0.0294
808.0,0.0293
807.0,0.0292
806.0,0.0292
805.0,0.029
804.0,0.0289
803.0,0.0288
802.0,0.0287
801.0,0.0286
800.0,0.0285
799.0,0.0283
798.0,0.0283
797.0,0.0285
796.0,0.029
795.0,0.0296
794.0,0.0302
793.0,0.0305
792.0,0.0307
791.0,0.0307
790.0,0.0305
789.0,0.0302
788.0,0.0298
787.0,0.0294
786.0,0.0289
785.0,0.0286
784.0,0.0283
783.0,0.0282
782.0,0.028
781.0,0.0278
780.0,0.0275
779.0,0.0272
778.0,0.027
777.0,0.0268
776.0,0.0266
775.0,0.0264
774.0,0.0263
773.0,0.0261
772.0,0.0259
771.0,0.0257
770.0,0.0256
769.0,0.0254
768.0,0.0251
767.0,0.0247
766.0,0.0242
765.0,0.0239
764.0,0.0237
763.0,0.0236
762.0,0.0233
761.0,0.0229
760.0,0.0225
759.0,0.0223
758.0,0.0221
757.0,0.0219
756.0,0.0216
755.0,0.0212
754.0,0.0209
753.0,0.0206
752.0,0.0203
751.0,0.0197
750.0,0.019
749.0,0.0181
748.0,0.0173
747.0,0.0165
746.0,0.0159
745.0,0.0153
744.0,0.0148
743.0,0.0145
742.0,0.0145
741.0,0.0152
740.0,0.0165
739.0,0.0183
738.0,0.0205
737.0,0.023
736.0,0.0257
735.0,0.0285
734.0,0.0316
733.0,0.0352
732.0,0.039
731.0,0.0427
730.0,0.0461
729.0,0.0494
728.0,0.053
727.0,0.0568
726.0,0.0604
725.0,0.0632
724.0,0.0646
723.0,0.0645
722.0,0.063
721.0,0.0607
720.0,0.0579
719.0,0.0551
718.0,0.0525
717.0,0.0504
716.0,0.0485
715.0,0.047
714.0,0.0455
713.0,0.0443
712.0,0.0432
711.0,0.0422
710.0,0.0414
709.0,0.0408
708.0,0.0404
707.0,0.0402
706.0,0.0399
705.0,0.0397
704.0,0.0395
703.0,0.0392
702.0,0.0388
701.0,0.0383
700.0,0.0379
699.0,0.0377
698.0,0.0374
697.0,0.037
696.0,0.0363
695.0,0.0354
694.0,0.0344
693.0,0.0337
692.0,0.0332
691.0,0.033
690.0,0.0331
689.0,0.0334
688.0,0.0336
687.0,0.0337
686.0,0.0334
685.0,0.0332
684.0,0.0333
683.0,0.0336
682.0,0.0338
681.0,0.0336
680.0,0.0332
679.0,0.0327
678.0,0.0325
677.0,0.0324
676.0,0.0324
675.0,0.0326
674.0,0.033
673.0,0.0335
672.0,0.0342
671.0,0.0346
670.0,0.0346
669.0,0.0341
668.0,0.0337
667.0,0.0339
666.0,0.0339
665.0,0.0335
664.0,0.0333
663.0,0.0331
662.0,0.0329
661.0,0.0328
660.0,0.0328
659.0,0.0332
658.0,0.0338
657.0,0.0347
656.0,0.0354
655.0,0.0358
654.0,0.0359
653.0,0.0357
652.0,0.0357
651.0,0.0361
650.0,0.0366
649.0,0.0373
648.0,0.0378
647.0,0.0378
646.0,0.0374
645.0,0.0372
644.0,0.0374
643.0,0.0382
642.0,0.039
641.0,0.0394
640.0,0.0395
639.0,0.0396
638.0,0.0399
637.0,0.0407
636.0,0.0419
635.0,0.043
634.0,0.044
633.0,0.0448
632.0,0.0453
631.0,0.0457
630.0,0.0463
629.0,0.0471
628.0,0.048
627.0,0.0483
626.0,0.048
625.0,0.0476
624.0,0.0475
623.0,0.0478
622.0,0.0484
621.0,0.049
620.0,0.0496
619.0,0.05
618.0,0.0503
617.0,0.0507
616.0,0.0512
615.0,0.0517
614.0,0.0521
613.0,0.0527
612.0,0.0535
611.0,0.0545
610.0,0.0553
609.0,0.0558
608.0,0.056
607.0,0.0562
606.0,0.0564
605.0,0.0566
604.0,0.0563
603.0,0.0554
602.0,0.0544
601.0,0.0539
600.0,0.0533
