nm,Intensity
526.508,832.3
526.645,829.7
526.782,830.3
526.919,830.2
527.055,832.1
527.192,830.1
527.329,830.6
527.465,830.8
527.602,832.6
527.739,830.8
527.875,830.1
528.012,830.3
528.149,831.5
528.285,829.3
528.422,830.8
528.558,830.6
528.695,831.0
528.832,830.6
528.968,831.6
529.105,831.5
529.241,829.4
529.378,829.8
529.514,829.3
529.651,830.2
529.787,832.0
529.924,830.5
530.061,829.7
530.197,831.8
530.334,831.1
530.47,830.9
530.606,831.0
530.743,828.7
530.879,829.9
531.016,831.0
531.152,830.7
531.289,832.3
531.425,831.5
531.562,831.1
531.698,829.4
531.834,831.4
531.971,838.9
532.107,891.4
532.244,904.5
532.38,844.8
532.516,830.6
532.653,831.7
532.789,831.2
532.925,831.1
533.062,831.1
533.198,830.5
533.334,830.2
533.471,831.5
533.607,848.1
533.743,975.6
533.879,1535.9
534.016,2398.5
534.152,2737.9
534.288,2729.4
534.424,2581.3
534.561,2490.0
534.697,2428.2
534.833,2333.4
534.969,2215.0
535.106,2141.9
535.242,2075.5
535.378,2024.9
535.514,1980.4
535.65,1952.8
535.786,1896.7
535.923,1867.8
536.059,1817.1
536.195,1791.5
536.331,1758.7
536.467,1744.8
536.603,1719.7
536.739,1722.5
536.876,1709.0
537.012,1708.0
537.148,1711.8
537.284,1693.6
537.42,1676.5
537.556,1695.5
537.692,1685.4
537.828,1696.9
537.964,1686.1
538.1,1692.2
538.236,1708.5
538.372,1706.6
538.508,1710.1
538.644,1715.3
538.78,1700.0
538.916,1707.5
539.052,1716.0
539.188,1712.1
539.324,1721.0
539.46,1728.0
539.596,1740.0
539.732,1756.6
539.868,1786.7
540.004,1776.3
540.14,1775.3
540.275,1768.5
540.411,1746.5
540.547,1741.5
540.683,1747.0
540.819,1742.7
540.955,1739.6
541.091,1737.9
541.227,1727.5
541.362,1736.4
541.498,1743.3
541.634,1732.3
541.77,1748.0
541.906,1756.7
542.041,1745.1
542.177,1755.3
542.313,1742.9
542.449,1745.7
542.585,1766.3
542.72,1763.1
542.856,1769.5
542.992,1779.7
543.128,1779.7
543.263,1788.4
543.399,1782.1
543.535,1793.0
543.67,1792.0
543.806,1804.4
543.942,1795.3
544.078,1810.6
544.213,1802.5
544.349,1816.2
544.485,1801.7
544.62,1815.1
544.756,1816.3
544.892,1815.5
545.027,1832.0
545.163,1831.5
545.298,1828.1
545.434,1835.1
545.57,1834.2
545.705,1847.5
545.841,1836.1
545.976,1843.7
546.112,1854.8
546.248,1850.1
546.383,1859.6
546.519,1855.2
546.654,1855.3
546.79,1873.0
546.925,1859.9
547.061,1865.5
547.196,1879.1
547.332,1863.7
547.467,1874.7
547.603,1867.8
547.738,1882.5
547.874,1877.6
548.009,1892.0
548.145,1864.8
548.28,1882.4
548.416,1894.9
548.551,1901.6
548.686,1901.2
548.822,1907.0
548.957,1915.0
549.093,1909.2
549.228,1916.9
549.363,1924.9
549.499,1907.9
549.634,1913.6
549.77,1937.9
549.905,1924.9
550.04,1939.4
550.176,1928.4
550.311,1940.4
550.446,1962.0
550.582,2103.0
550.717,2259.6
550.852,2090.7
550.988,1969.9
551.123,1951.4
551.258,1957.1
551.394,1967.3
551.529,1972.0
551.664,1966.1
551.799,1987.1
551.935,1985.6
552.07,1997.5
552.205,1987.4
552.34,1988.9
552.476,1985.5
552.611,2004.8
552.746,2056.0
552.881,2093.6
553.016,2055.1
553.152,2014.7
553.287,2004.9
553.422,2004.3
553.557,2008.9
553.692,2010.0
553.827,2012.2
553.963,2017.6
554.098,2034.5
554.233,2033.3
554.368,2041.6
554.503,2040.5
554.638,2042.6
554.773,2060.7
554.908,2042.4
555.043,2050.7
555.179,2053.4
555.314,2067.6
555.449,2102.1
555.584,2123.4
555.719,2138.7
555.854,2126.2
555.989,2119.5
556.124,2135.5
556.259,2142.8
556.394,2149.6
556.529,2160.6
556.664,2160.0
556.799,2169.0
556.934,2152.9
557.069,2189.4
557.204,2227.3
557.339,2310.3
557.474,2431.9
557.609,2561.8
557.744,2543.7
557.879,2369.9
558.014,2244.2
558.149,2198.9
558.284,2200.2
558.419,2211.7
558.553,2206.2
558.688,2188.2
558.823,2183.2
558.958,2150.7
559.093,2151.5
559.228,2139.1
559.363,2156.3
559.498,2158.8
559.632,2156.4
559.767,2165.1
559.902,2175.3
560.037,2172.2
560.172,2182.3
560.307,2181.8
560.441,2183.6
560.576,2197.8
560.711,2179.2
560.846,2184.7
560.981,2189.1
561.115,2193.7
561.25,2211.5
561.385,2207.7
561.52,2211.2
561.654,2230.5
561.789,2231.5
561.924,2271.1
562.059,2280.0
562.193,2301.7
562.328,2281.5
562.463,2269.3
562.598,2274.5
562.732,2256.4
562.867,2275.7
563.002,2294.9
563.136,2294.5
563.271,2294.0
563.406,2293.0
563.54,2288.2
563.675,2295.6
563.81,2301.0
563.944,2308.9
564.079,2312.7
564.213,2322.8
564.348,2338.9
564.483,2348.1
564.617,2391.8
564.752,2397.0
564.887,2432.9
565.021,2525.0
565.156,2559.6
565.29,2537.1
565.425,2518.6
565.559,2531.7
565.694,2549.4
565.828,2566.8
565.963,2540.6
566.098,2508.9
566.232,2479.8
566.367,2437.1
566.501,2397.0
566.636,2384.3
566.77,2384.0
566.905,2358.8
567.039,2381.3
567.174,2378.5
567.308,2395.5
567.443,2409.3
567.577,2462.8
567.711,2503.4
567.846,2493.4
567.98,2465.4
568.115,2447.9
568.249,2435.9
568.384,2413.5
568.518,2417.4
568.652,2417.3
568.787,2407.6
568.921,2427.7
569.056,2435.3
569.19,2433.9
569.324,2449.4
569.459,2475.6
569.593,2473.1
569.727,2489.9
569.862,2509.1
569.996,2499.7
570.131,2497.6
570.265,2523.3
570.399,2540.0
570.534,2592.2
570.668,2639.5
570.802,2700.6
570.936,2777.2
571.071,2889.5
571.205,2989.1
571.339,3055.7
571.474,3034.9
571.608,2969.6
571.742,2839.6
571.876,2756.2
572.011,2744.1
572.145,2690.0
572.279,2630.0
572.413,2610.7
572.548,2577.2
572.682,2567.0
572.816,2542.2
572.95,2544.4
573.084,2562.7
573.219,2561.3
573.353,2566.5
573.487,2574.6
573.621,2568.4
573.755,2584.4
573.889,2589.5
574.024,2593.2
574.158,2614.1
574.292,2613.4
574.426,2597.1
574.56,2597.1
574.694,2598.4
574.828,2604.5
574.963,2623.7
575.097,2619.2
575.231,2653.1
575.365,2692.3
575.499,2714.8
575.633,2694.8
575.767,2668.3
575.901,2634.2
576.035,2630.9
576.169,2646.3
576.303,2644.5
576.437,2673.9
576.571,2687.6
576.706,2683.6
576.84,2708.2
576.974,2706.9
577.108,2699.5
577.242,2696.5
577.376,2688.7
577.51,2698.7
577.644,2679.6
577.778,2667.4
577.912,2648.8
578.046,2659.5
578.179,2670.2
578.313,2669.7
578.447,2670.3
578.581,2687.8
578.715,2686.8
578.849,2705.8
578.983,2696.1
579.117,2697.7
579.251,2696.5
579.385,2702.9
579.519,2698.1
579.653,2714.6
579.787,2712.2
579.921,2738.0
580.054,2720.9
580.188,2705.0
580.322,2734.7
580.456,2737.2
580.59,2737.0
580.724,2744.1
580.858,2756.0
580.991,2765.6
581.125,2769.0
581.259,2770.5
581.393,2799.4
581.527,2832.8
581.661,2948.4
581.794,3142.1
581.928,3566.0
582.062,4394.9
582.196,5144.0
582.33,4591.7
582.463,3518.9
582.597,3021.7
582.731,2896.1
582.865,2851.7
582.998,2844.5
583.132,2840.6
583.266,2819.7
583.4,2802.2
583.533,2825.9
583.667,2800.8
583.801,2821.3
583.935,2825.6
584.068,2829.3
584.202,2827.3
584.336,2844.3
584.469,2857.7
584.603,2841.5
584.737,2844.8
584.87,2861.4
585.004,2861.8
585.138,2897.5
585.271,2942.9
585.405,3008.5
585.539,3158.0
585.672,3424.0
585.806,3690.2
585.94,3926.3
586.073,4031.2
586.207,3900.0
586.34,3698.6
586.474,3484.1
586.608,3287.5
586.741,3128.9
586.875,3019.4
587.008,2966.6
587.142,2963.8
587.276,2938.2
587.409,2937.8
587.543,2915.8
587.676,2902.0
587.81,2905.7
587.943,2901.3
588.077,2906.0
588.21,2905.8
588.344,2918.5
588.478,2904.8
588.611,2899.2
588.745,2893.0
588.878,2894.4
589.012,2912.8
589.145,2881.8
589.279,2882.5
589.412,2904.3
589.546,2888.9
589.679,2889.8
589.812,2897.2
589.946,2900.6
590.079,2896.3
590.213,2910.7
590.346,2891.0
590.48,2915.5
590.613,2909.1
590.747,2907.9
590.88,2932.3
591.013,2918.5
591.147,2924.8
591.28,2928.0
591.414,2928.0
591.547,2936.7
591.68,2919.5
591.814,2928.9
591.947,2930.4
592.081,2921.8
592.214,2931.1
592.347,2939.1
592.481,2926.5
592.614,2910.4
592.747,2947.4
592.881,2934.4
593.014,2923.1
593.147,2924.7
593.281,2920.9
593.414,2940.4
593.547,2935.9
593.681,2942.3
593.814,2937.1
593.947,2932.8
594.081,2949.2
594.214,2954.4
594.347,2948.6
594.48,2959.7
594.614,2967.1
594.747,2965.8
594.88,2963.8
595.014,2977.0
595.147,2965.2
595.28,2980.9
595.413,2996.5
595.547,2996.8
595.68,2985.7
595.813,3011.0
595.946,3006.0
596.079,2999.6
596.213,2984.1
596.346,3007.9
596.479,3010.3
596.612,2996.9
596.745,3000.2
596.879,3015.7
597.012,3030.0
597.145,3005.6
597.278,3037.7
597.411,3002.5
597.545,3038.7
597.678,3026.4
597.811,3029.3
597.944,3043.9
598.077,3050.4
598.21,3058.4
598.343,3067.5
598.476,3056.3
598.61,3079.3
598.743,3057.9
598.876,3085.9
599.009,3072.2
599.142,3063.4
599.275,3090.3
599.408,3088.0
599.541,3095.7
599.674,3076.7
599.807,3076.2
599.941,3101.5
600.074,3081.5
600.207,3095.4
600.34,3097.8
600.473,3100.6
600.606,3071.4
600.739,3077.3
600.872,3091.4
601.005,3074.7
601.138,3096.4
601.271,3099.7
601.404,3094.5
601.537,3097.1
601.67,3103.0
601.803,3084.6
601.936,3106.7
602.069,3108.9
602.202,3101.7
602.335,3114.2
602.468,3111.1
602.601,3115.6
602.734,3131.2
602.867,3137.0
603.0,3121.7
603.133,3158.0
603.266,3151.5
603.399,3128.1
603.532,3140.8
603.664,3166.4
603.797,3160.6
603.93,3162.9
604.063,3151.3
604.196,3156.0
604.329,3152.5
604.462,3159.8
604.595,3142.4
604.728,3158.0
604.861,3150.8
604.994,3155.3
605.126,3140.0
605.259,3131.2
605.392,3146.1
605.525,3146.2
605.658,3145.9
605.791,3128.6
605.924,3128.6
606.056,3124.1
606.189,3130.9
606.322,3136.0
606.455,3116.2
606.588,3128.2
606.721,3150.2
606.853,3156.3
606.986,3167.5
607.119,3162.7
607.252,3177.9
607.385,3175.5
607.517,3176.0
607.65,3201.1
607.783,3227.1
607.916,3207.8
608.049,3232.4
608.181,3223.2
608.314,3235.8
608.447,3235.1
608.58,3234.3
608.712,3266.6
608.845,3263.3
608.978,3259.2
609.111,3269.8
609.243,3271.6
609.376,3278.1
609.509,3275.0
609.641,3271.3
609.774,3283.4
609.907,3263.7
610.04,3282.3
610.172,3279.1
610.305,3310.9
610.438,3303.9
610.57,3297.1
610.703,3323.1
610.836,3316.3
610.968,3313.0
611.101,3301.3
611.234,3335.9
611.366,3330.5
611.499,3333.7
611.632,3365.3
611.764,3365.4
611.897,3381.0
612.03,3388.6
612.162,3396.7
612.295,3423.7
612.428,3432.4
612.56,3449.1
612.693,3433.3
612.825,3452.3
612.958,3469.3
613.091,3486.6
613.223,3487.8
613.356,3496.6
613.488,3526.9
613.621,3527.6
613.754,3528.6
613.886,3540.6
614.019,3558.0
614.151,3543.9
614.284,3555.1
614.416,3561.4
614.549,3570.8
614.681,3580.2
614.814,3584.6
614.947,3578.0
615.079,3595.7
615.212,3590.1
615.344,3605.9
615.477,3605.5
615.609,3595.1
615.742,3627.1
615.874,3604.5
616.007,3637.8
616.139,3631.9
616.272,3632.1
616.404,3637.6
616.537,3634.6
616.669,3665.5
616.802,3711.0
616.934,3680.5
617.067,3710.0
617.199,3703.3
617.332,3725.7
617.464,3738.7
617.596,3724.1
617.729,3739.2
617.861,3758.9
617.994,3774.8
618.126,3781.7
618.259,3799.2
618.391,3822.1
618.524,3799.4
618.656,3821.2
618.788,3833.2
618.921,3825.6
619.053,3844.9
619.186,3825.5
619.318,3839.2
619.45,3831.2
619.583,3839.4
619.715,3857.7
619.848,3842.4
619.98,3866.9
620.112,3858.7
620.245,3867.2
620.377,3877.7
620.509,3875.2
620.642,3878.3
620.774,3897.8
620.907,3900.1
621.039,3910.0
621.171,3907.8
621.304,3931.8
621.436,3923.2
621.568,3939.6
621.701,3946.8
621.833,3966.9
621.965,3975.1
622.097,3977.7
622.23,3991.8
622.362,4037.0
622.494,4030.1
622.627,4039.7
622.759,4045.9
622.891,4064.2
623.024,4048.9
623.156,4066.1
623.288,4101.7
623.42,4083.7
623.553,4121.0
623.685,4146.0
623.817,4128.2
623.949,4143.8
624.082,4159.3
624.214,4171.3
624.346,4185.6
624.479,4167.0
624.611,4203.3
624.743,4208.6
624.875,4198.6
625.007,4227.7
625.14,4219.8
625.272,4248.0
625.404,4260.8
625.536,4241.0
625.669,4267.5
625.801,4250.2
625.933,4268.0
626.065,4287.6
626.197,4287.9
626.33,4272.5
626.462,4271.9
626.594,4291.7
626.726,4312.1
626.858,4327.2
626.99,4318.4
627.123,4343.0
627.255,4338.9
627.387,4329.8
627.519,4343.6
627.651,4375.9
627.783,4364.4
627.916,4402.1
628.048,4403.5
628.18,4408.4
628.312,4446.5
628.444,4459.5
628.576,4455.9
628.708,4475.0
628.84,4475.3
628.973,4552.5
629.105,4521.7
629.237,4521.3
629.369,4535.5
629.501,4545.4
629.633,4563.5
629.765,4572.4
629.897,4596.6
630.029,4573.2
630.161,4562.9
630.294,4578.3
630.426,4603.7
630.558,4625.3
630.69,4633.8
630.822,4628.7
630.954,4662.2
631.086,4709.6
631.218,4739.1
631.35,4801.2
631.482,4820.0
631.614,4855.3
631.746,4898.8
631.878,4923.3
632.01,4925.2
632.142,4915.9
632.274,4896.3
632.406,4871.7
632.538,4844.8
632.67,4835.2
632.802,4826.2
632.934,4829.0
633.066,4840.7
633.198,4858.4
633.33,4853.0
633.462,4861.7
633.594,4838.8
633.726,4831.1
633.858,4839.8
633.99,4832.8
634.122,4808.3
634.254,4830.8
634.386,4839.5
634.518,4799.3
634.65,4813.7
634.782,4851.0
634.914,4837.4
635.046,4857.7
635.178,4862.9
635.31,4869.5
635.442,4901.9
635.574,4925.9
635.706,4986.7
635.838,5030.9
635.97,5083.9
636.102,5102.7
636.234,5185.0
636.365,5266.3
636.497,5349.7
636.629,5398.2
636.761,5358.6
636.893,5239.6
637.025,5173.7
637.157,5129.7
637.289,5090.4
637.421,5078.1
637.553,5055.0
637.685,5070.8
637.816,5040.4
637.948,5049.5
638.08,5079.1
638.212,5043.2
638.344,5092.6
638.476,5058.7
638.608,5072.6
638.74,5085.6
638.871,5108.9
639.003,5099.5
639.135,5103.1
639.267,5127.8
639.399,5128.3
639.531,5130.4
639.662,5130.8
639.794,5132.8
639.926,5130.4
640.058,5162.6
640.19,5166.9
640.322,5183.2
640.453,5148.9
640.585,5186.4
640.717,5187.4
640.849,5174.1
640.981,5199.0
641.113,5211.2
641.244,5218.5
641.376,5235.6
641.508,5239.1
641.64,5250.0
641.772,5241.7
641.903,5240.3
642.035,5250.0
642.167,5268.4
642.299,5263.7
642.43,5297.9
642.562,5285.5
642.694,5265.5
642.826,5291.4
642.958,5261.1
643.089,5255.6
643.221,5246.5
643.353,5248.0
643.485,5254.8
643.616,5244.3
643.748,5230.0
643.88,5256.1
644.012,5239.4
644.143,5244.8
644.275,5242.8
644.407,5260.9
644.538,5254.8
644.67,5243.4
644.802,5232.8
644.934,5280.4
645.065,5251.7
645.197,5272.6
645.329,5250.8
645.461,5295.9
645.592,5249.8
645.724,5272.6
645.856,5277.3
645.987,5284.7
646.119,5310.4
646.251,5314.4
646.382,5302.8
646.514,5355.7
646.646,5333.5
646.777,5358.4
646.909,5319.8
647.041,5351.5
647.172,5363.6
647.304,5374.9
647.436,5391.9
647.567,5387.9
647.699,5390.0
647.831,5390.0
647.962,5390.1
648.094,5417.3
648.226,5368.6
648.357,5373.3
648.489,5404.1
648.621,5381.3
648.752,5392.0
648.884,5402.9
649.016,5376.3
649.147,5384.4
649.279,5397.5
649.411,5389.4
649.542,5399.1
649.674,5366.0
649.805,5403.0
649.937,5380.7
650.069,5419.4
650.2,5393.6
650.332,5394.8
650.463,5393.8
650.595,5396.0
650.727,5379.2
650.858,5391.6
650.99,5394.7
651.121,5419.0
651.253,5400.4
651.385,5440.0
651.516,5425.5
651.648,5437.4
651.779,5452.7
651.911,5436.1
652.043,5460.7
652.174,5468.4
652.306,5448.4
652.437,5452.2
652.569,5463.4
652.7,5468.1
652.832,5471.4
652.963,5469.4
653.095,5472.5
653.227,5483.0
653.358,5510.0
653.49,5493.1
653.621,5510.5
653.753,5526.9
653.884,5504.2
654.016,5508.7
654.147,5512.3
654.279,5515.8
654.41,5476.3
654.542,5505.4
654.674,5493.0
654.805,5517.7
654.937,5509.0
655.068,5478.0
655.2,5467.0
655.331,5516.2
655.463,5524.3
655.594,5527.0
655.726,5515.0
655.857,5535.7
655.989,5498.1
656.12,5514.3
656.252,5525.3
656.383,5528.5
656.515,5524.3
656.646,5526.8
656.778,5522.9
656.909,5540.3
657.041,5535.8
657.172,5540.2
657.304,5575.9
657.435,5565.7
657.567,5541.8
657.698,5523.1
657.829,5545.3
657.961,5563.4
658.092,5561.7
658.224,5580.9
658.355,5579.8
658.487,5568.3
658.618,5578.9
658.75,5585.5
658.881,5566.6
659.013,5585.7
659.144,5604.3
659.275,5615.1
659.407,5589.0
659.538,5621.9
659.67,5566.5
659.801,5579.2
659.933,5630.0
660.064,5589.2
660.196,5541.4
660.327,5595.4
660.458,5580.4
660.59,5567.5
660.721,5584.9
660.853,5552.0
660.984,5575.2
661.116,5581.3
661.247,5573.0
661.378,5563.3
661.51,5539.0
661.641,5506.9
661.773,5547.0
661.904,5554.1
662.035,5550.0
662.167,5506.9
662.298,5502.7
662.43,5519.4
662.561,5527.6
662.692,5569.9
662.824,5549.0
662.955,5494.1
663.087,5506.7
