cm-1,Intensity
-123.878,1860.5
-120.866,1861.6
-117.855,1860.5
-114.845,1859.85
-111.836,1861.15
-108.828,1860.15
-105.821,1858.95
-102.815,1859.4
-99.8104,1860.2
-96.8065,1861.1
-93.8036,1860.3
-90.8016,1861.3
-87.8007,1860.1
-84.8008,1859.0
-81.8019,1860.5
-78.8039,1860.15
-75.807,1861.55
-72.8111,1860.45
-69.8161,1859.3
-66.8222,1860.7
-63.8293,1861.9
-60.8373,1861.65
-57.8464,1861.25
-54.8564,1861.9
-51.8675,1859.5
-48.8795,1861.9
-45.8926,1862.6
-42.9066,1863.25
-39.9216,1894.05
-36.9377,1970.9
-33.9547,1863.4
-30.9727,1862.7
-27.9917,1863.55
-25.0117,1865.5
-22.0326,1866.2
-19.0546,1873.25
-16.0776,1891.9
-13.1015,1978.85
-10.1265,2279.4
-7.1524,2890.9
-4.17932,3626.75
-1.20723,3655.05
1.76388,3279.75
4.734,2498.9
7.70313,2004.55
10.6713,1877.0
13.6384,1865.7
16.6046,1864.55
19.5698,1863.95
22.534,1866.25
25.4972,1864.05
28.4595,1864.85
31.4207,1866.85
34.381,1865.75
37.3403,1866.7
40.2986,1870.1
43.256,1880.25
46.2123,1904.7
49.1677,1989.45
52.1221,2212.65
55.0755,2646.3
58.0279,3301.65
60.9794,3936.0
63.9299,4372.95
66.8794,4706.35
69.8279,4835.45
72.7754,4897.1
75.722,4887.15
78.6676,4833.65
81.6122,4736.45
84.5559,4717.95
87.4985,4777.8
90.4402,4808.35
93.381,4875.35
96.3207,4839.7
99.2595,4841.3
102.197,4830.25
105.134,4835.45
108.07,4819.6
111.005,4872.9
113.939,4993.25
116.872,4949.35
119.804,4927.8
122.735,4878.15
125.665,4900.5
128.594,4814.8
131.522,4771.2
134.449,4753.75
137.375,4754.25
140.301,4738.45
143.225,4771.65
146.148,4736.7
149.07,4755.95
151.992,4829.25
154.912,4877.3
157.832,4859.95
160.75,4826.25
163.668,4845.0
166.584,4874.85
169.5,4876.45
172.414,4884.65
175.328,4877.25
178.241,4893.85
181.153,4956.25
184.063,5021.85
186.973,4977.9
189.882,4897.3
192.79,4974.7
195.697,5000.55
198.603,5073.3
201.508,5071.4
204.412,5003.85
207.315,4983.1
210.217,5000.35
213.119,5045.3
216.019,5099.8
218.918,5104.15
221.816,5106.45
224.714,5069.25
227.61,5110.7
230.506,5144.4
233.4,5104.3
236.294,5045.7
239.187,5082.35
242.078,5193.5
244.969,5258.5
247.859,5271.5
250.748,5234.8
253.636,5295.65
256.523,5274.4
259.409,5297.75
262.294,5288.65
265.178,5322.15
268.061,5322.9
270.943,5319.1
273.824,5283.1
276.705,5285.4
279.584,5285.5
282.463,5388.4
285.34,5403.75
288.217,5443.3
291.092,5455.05
293.967,5471.3
296.841,5477.7
299.713,5508.9
302.585,5504.05
305.456,5496.2
308.326,5485.5
311.195,5436.4
314.063,5400.1
316.93,5466.5
319.797,5469.85
322.662,5483.75
325.526,5521.15
328.389,5571.05
331.252,5531.85
334.113,5551.25
336.974,5591.45
339.834,5597.65
342.692,5628.75
345.55,5628.2
348.407,5676.55
351.263,5616.9
354.118,5611.7
356.972,5695.0
359.825,5734.9
362.677,5690.8
365.529,5676.65
368.379,5727.9
371.228,5754.7
374.077,5786.25
376.924,5754.85
379.771,5673.95
382.616,5756.05
385.461,5901.5
388.305,5881.3
391.148,5834.5
393.99,5766.45
396.831,5724.5
399.671,5867.15
402.51,5944.4
405.348,5916.1
408.186,5905.35
411.022,5871.4
413.858,5979.4
416.692,6017.35
419.526,5947.05
422.359,5915.95
425.19,5965.95
428.021,6006.15
430.851,5959.85
433.68,5984.7
436.508,6036.5
439.335,6002.05
442.162,5904.0
444.987,5916.1
447.811,5971.0
450.635,6053.7
453.458,6118.3
456.279,6089.3
459.1,6066.85
461.92,6133.05
464.739,6154.3
467.557,6204.65
470.374,6149.55
473.19,6163.65
476.005,6206.0
478.82,6142.45
481.633,6129.65
484.445,6187.9
487.257,6204.2
490.068,6224.7
492.878,6279.55
495.686,6278.1
498.494,6247.95
501.301,6239.2
504.107,6274.2
506.913,6321.8
509.717,6275.95
512.52,6267.6
515.323,6205.25
518.124,6320.6
520.925,6345.85
523.725,6356.05
526.524,6283.1
529.322,6323.0
532.119,6314.1
534.915,6390.8
537.71,6443.95
540.504,6375.65
543.298,6392.05
546.09,6453.65
548.882,6474.6
551.673,6484.55
554.462,6477.65
557.251,6579.85
560.039,6628.5
562.826,6579.65
565.613,6570.6
568.398,6572.8
571.182,6551.55
573.966,6566.35
576.748,6532.5
579.53,6511.85
582.311,6660.45
585.091,6718.85
587.87,6667.0
590.648,6624.7
593.425,6497.95
596.201,6481.55
598.977,6574.9
601.751,6677.65
604.525,6695.3
607.298,6637.0
610.069,6600.1
612.84,6604.35
615.61,6647.2
618.38,6623.75
621.148,6698.0
623.915,6939.05
626.682,7066.4
629.447,7012.8
632.212,6987.7
634.976,6857.6
637.739,6737.2
640.501,6695.35
643.262,6736.65
646.022,6928.7
648.781,7006.15
651.54,6937.85
654.297,6862.75
657.054,6880.35
659.81,6920.75
662.565,6965.05
665.319,6991.9
668.072,6931.3
670.824,6949.9
673.575,6945.25
676.326,6923.0
679.075,6881.65
681.824,6987.35
684.572,7008.25
687.319,7067.05
690.065,7065.1
692.81,6955.2
695.554,6948.2
698.298,6984.9
701.04,7067.2
703.782,7090.25
706.522,7042.6
709.262,7093.8
712.001,7122.85
714.739,7059.1
717.477,7013.05
720.213,6942.7
722.948,7138.8
725.683,7245.9
728.417,7194.1
731.15,7035.45
733.882,7036.55
736.613,7131.2
739.343,7222.2
742.072,7164.85
744.801,7129.0
747.528,7290.9
750.255,7350.35
752.981,7311.25
755.706,7228.3
758.43,7153.6
761.153,7084.0
763.875,7241.4
766.597,7382.45
769.317,7386.7
772.037,7380.95
774.756,7284.45
777.474,7276.3
780.191,7399.2
782.907,7422.7
785.623,7434.45
788.337,7446.7
791.051,7518.85
793.764,7503.0
796.475,7548.7
799.186,7497.4
801.897,7465.2
804.606,7468.85
807.314,7464.1
810.022,7454.8
812.729,7430.2
815.434,7519.15
818.139,7589.8
820.844,7647.85
823.547,7562.95
826.249,7608.85
828.951,7601.15
831.651,7616.75
834.351,7683.45
837.05,7656.55
839.748,7685.05
842.445,7740.8
845.142,7860.25
847.837,7819.8
850.532,7902.9
853.225,8042.1
855.918,8202.8
858.61,8227.5
861.302,8194.5
863.992,8199.35
866.681,7973.25
869.37,7756.7
872.058,7801.45
874.745,7809.85
877.431,7811.25
880.116,7842.85
882.8,7884.0
885.484,7848.95
888.166,7799.8
890.848,7833.75
893.529,7852.65
896.209,7908.15
898.888,7951.6
901.566,7892.95
904.244,7817.7
906.921,7962.7
909.596,8022.3
912.271,7885.25
914.945,7861.0
917.619,7968.25
920.291,7991.25
922.963,8040.25
925.633,7951.95
928.303,7978.85
930.972,7960.4
933.64,8047.8
936.308,8187.65
938.974,8039.1
941.64,8007.65
944.304,7971.85
946.968,8018.35
949.631,7947.45
952.294,8168.65
954.955,8151.4
957.615,8152.6
960.275,8243.65
962.934,8236.9
965.592,8126.5
968.249,8214.55
970.905,8270.7
973.561,8257.4
976.215,8292.25
978.869,8386.8
981.522,8347.7
984.174,8176.35
986.826,8433.45
989.476,8538.0
992.126,8524.45
994.774,8571.35
997.422,8527.9
1000.07,8404.8
1002.72,8454.75
1005.36,8385.65
1008.01,8403.65
1010.65,8436.05
1013.29,8500.15
1015.93,8509.95
1018.58,8424.6
1021.22,8496.15
1023.86,8516.95
1026.49,8401.8
1029.13,8395.85
1031.77,8432.65
1034.4,8483.35
1037.04,8456.85
1039.67,8605.65
1042.31,8546.65
1044.94,8583.45
1047.57,8544.5
1050.2,8538.55
1052.83,8572.4
1055.46,8544.1
1058.09,8487.05
1060.72,8491.3
1063.35,8619.1
1065.97,8771.4
1068.6,8770.55
1071.22,8728.95
1073.85,8772.75
1076.47,8845.65
1079.09,8830.55
1081.71,8795.65
1084.33,8904.65
1086.95,8934.3
1089.57,8900.05
1092.19,8913.25
1094.81,9088.45
1097.42,9173.5
1100.04,9129.1
1102.65,9076.9
1105.27,9083.3
1107.88,9117.3
1110.49,9105.05
1113.1,9122.2
1115.71,9189.8
1118.32,9393.75
1120.93,9309.5
1123.54,9194.5
1126.15,9024.15
1128.75,8987.55
1131.36,8962.55
1133.97,9026.35
1136.57,8951.0
1139.17,8987.0
1141.77,9049.95
1144.38,9048.3
1146.98,9004.75
1149.58,9036.1
1152.18,9051.95
1154.77,9078.95
1157.37,9081.5
1159.97,9119.1
1162.56,9055.1
1165.16,9029.85
1167.75,9078.9
1170.35,9247.3
1172.94,9315.05
1175.53,9123.6
1178.12,9115.45
1180.71,9202.55
1183.3,9212.8
1185.89,9264.6
1188.48,9198.75
1191.06,9185.75
1193.65,9376.8
1196.23,9369.45
1198.82,9402.15
1201.4,9433.75
1203.99,9297.7
1206.57,9266.95
1209.15,9238.45
1211.73,9276.5
1214.31,9450.6
1216.89,9411.1
1219.46,9383.65
1222.04,9359.55
1224.62,9409.55
1227.19,9397.65
1229.77,9371.55
1232.34,9349.0
1234.92,9403.3
1237.49,9520.85
1240.06,9586.6
1242.63,9558.45
1245.2,9312.5
1247.77,9281.5
1250.34,9449.55
1252.9,9606.3
1255.47,9641.45
1258.04,9633.65
1260.6,9690.5
1263.17,9595.7
1265.73,9704.15
1268.29,9787.05
1270.85,9769.95
1273.41,9849.2
1275.97,10002.0
1278.53,10193.2
1281.09,10349.3
1283.65,10334.7
1286.21,10172.8
1288.76,10260.7
1291.32,10563.8
1293.87,10656.7
1296.43,10469.0
1298.98,10356.4
1301.53,10161.2
1304.08,10028.3
1306.63,9992.35
1309.18,9920.1
1311.73,9990.3
1314.28,10022.1
1316.83,9957.7
1319.38,9947.95
1321.92,9991.1
1324.47,9996.45
1327.01,9959.2
1329.55,9995.7
1332.1,9853.6
1334.64,9794.2
1337.18,9812.5
1339.72,9837.55
1342.26,9909.65
1344.8,9929.75
1347.34,9830.9
1349.87,9931.55
1352.41,9806.05
1354.95,9710.6
1357.48,9956.05
1360.01,10123.0
1362.55,9990.6
1365.08,9981.4
1367.61,9786.3
1370.14,9827.45
1372.67,9896.8
1375.2,9929.2
1377.73,9964.25
1380.26,9841.0
1382.78,9788.45
1385.31,9922.0
1387.84,10033.9
1390.36,10004.5
1392.88,9827.05
1395.41,9965.7
1397.93,10128.3
1400.45,10140.8
1402.97,10230.8
1405.49,10273.9
1408.01,10028.8
1410.53,10067.0
1413.05,10218.8
1415.56,10155.8
1418.08,10183.1
1420.59,10260.7
1423.11,10171.0
1425.62,10259.8
1428.14,10459.4
1430.65,10259.3
1433.16,10199.6
1435.67,10245.4
1438.18,10250.5
1440.69,10259.2
1443.2,10468.7
1445.7,10504.3
1448.21,10312.4
1450.72,10210.7
1453.22,10091.2
1455.72,10307.5
1458.23,10395.8
1460.73,10353.8
1463.23,10139.4
1465.73,10254.7
1468.23,10383.5
1470.73,10514.4
1473.23,10556.3
1475.73,10421.8
1478.23,10313.5
1480.72,10345.9
1483.22,10282.5
1485.72,10240.6
1488.21,10391.5
1490.7,10448.6
1493.2,10226.6
1495.69,10136.7
1498.18,10231.5
1500.67,10362.3
1503.16,10423.3
1505.65,10413.0
1508.14,10288.8
1510.62,10317.2
1513.11,10513.3
1515.59,10345.0
1518.08,10261.2
1520.56,10396.0
1523.05,10406.2
1525.53,10249.0
1528.01,10309.2
1530.49,10546.0
1532.97,10728.5
1535.45,10781.5
1537.93,10599.3
1540.41,10454.3
1542.89,10469.3
1545.36,10442.2
1547.84,10466.1
1550.31,10544.1
1552.79,10622.0
1555.26,10630.3
1557.73,10629.8
1560.21,10615.5
1562.68,10609.2
1565.15,10550.5
1567.62,10572.7
1570.09,10570.3
1572.56,10581.7
1575.02,10502.8
1577.49,10806.8
1579.95,10931.9
1582.42,10715.7
1584.88,10725.1
1587.35,10825.2
1589.81,10831.3
1592.27,10852.6
1594.73,10762.0
1597.19,10884.0
1599.65,11184.8
1602.11,11483.5
1604.57,11896.3
1607.03,12501.0
1609.49,12997.0
1611.94,13372.3
1614.4,13600.9
1616.85,13362.6
1619.31,12758.5
1621.76,11950.0
1624.21,11343.2
1626.66,10991.7
1629.11,10962.5
1631.56,10899.0
1634.01,10938.5
1636.46,10908.5
1638.91,10796.5
1641.36,10830.0
1643.8,10798.3
1646.25,10926.8
1648.69,11068.4
1651.14,10878.1
1653.58,10784.8
1656.02,10701.0
1658.46,10775.9
1660.9,10873.3
1663.35,10877.0
1665.78,10943.7
1668.22,10900.6
1670.66,10901.3
1673.1,10929.3
1675.54,10936.8
1677.97,11022.9
1680.41,10895.4
1682.84,10803.5
1685.27,10856.2
1687.71,10852.9
1690.14,10924.6
1692.57,10879.5
1695.0,10822.5
1697.43,11000.6
1699.86,11135.8
1702.29,11123.0
1704.71,11113.6
1707.14,11214.5
1709.57,11035.8
1711.99,11225.5
1714.42,11558.8
1716.84,11701.2
1719.26,11921.0
1721.69,12190.5
1724.11,12567.5
1726.53,12812.2
1728.95,12594.5
1731.37,12358.1
1733.79,12219.7
1736.21,11983.7
1738.62,11657.7
1741.04,11763.3
1743.46,11653.0
1745.87,11304.6
1748.28,11283.8
1750.7,11379.2
1753.11,11178.5
1755.52,11023.2
1757.93,11174.8
1760.34,11119.6
1762.75,11104.2
1765.16,11259.9
1767.57,11118.9
1769.98,10915.5
1772.39,10897.9
1774.79,11016.1
1777.2,11243.3
1779.6,11420.1
1782.01,11362.6
1784.41,11211.8
1786.81,11166.8
1789.21,11296.5
1791.62,11254.0
1794.02,11039.7
1796.41,10947.4
1798.81,11197.8
1801.21,11202.2
1803.61,11073.7
1806.01,11024.5
1808.4,11027.8
1810.8,11194.2
1813.19,11264.0
1815.59,11473.6
1817.98,11337.3
1820.37,11112.6
1822.76,11071.5
1825.15,11008.5
1827.54,11026.7
1829.93,11247.0
1832.32,11200.5
1834.71,11207.7
1837.1,11214.3
1839.48,11132.6
1841.87,11016.8
1844.25,10846.2
1846.64,11076.0
1849.02,11140.7
1851.4,11083.8
1853.79,11359.7
1856.17,11249.8
1858.55,10945.9
1860.93,10986.8
1863.31,11270.6
1865.69,11281.7
1868.06,11155.2
1870.44,11140.3
1872.82,11352.0
1875.19,11340.0
1877.57,11517.8
1879.94,11526.5
1882.31,11305.2
1884.69,11268.9
1887.06,11278.7
1889.43,11253.0
1891.8,11202.2
1894.17,11226.1
1896.54,11268.5
1898.91,11475.0
1901.28,11439.0
1903.64,11337.9
1906.01,11222.8
1908.38,11253.3
1910.74,11336.4
1913.1,11468.2
1915.47,11457.2
1917.83,11474.5
1920.19,11354.3
1922.55,11238.7
1924.91,11260.5
1927.27,11441.2
1929.63,11468.7
1931.99,11540.0
1934.35,11385.9
1936.71,11299.0
1939.06,11329.2
1941.42,11233.3
1943.77,11183.7
1946.13,11415.0
1948.48,11468.7
1950.83,11486.3
1953.19,11658.7
1955.54,11464.3
1957.89,11325.7
1960.24,11295.2
1962.59,11309.8
1964.93,11330.8
1967.28,11489.8
1969.63,11423.3
1971.98,11433.5
1974.32,11468.9
1976.67,11546.3
1979.01,11459.5
1981.35,11419.7
1983.7,11303.8
1986.04,11416.5
1988.38,11714.0
1990.72,11642.3
1993.06,11621.3
1995.4,11632.7
1997.74,11493.5
2000.08,11385.6
2002.41,11470.8
2004.75,11561.2
2007.09,11545.5
2009.42,11616.8
2011.75,11755.5
2014.09,11897.5
2016.42,11770.3
2018.75,11717.8
2021.08,11594.0
2023.42,11545.3
2025.75,11586.2
2028.08,11767.2
2030.4,11833.2
2032.73,11798.8
2035.06,11801.7
2037.39,11721.7
2039.71,11739.4
2042.04,11669.8
2044.36,11652.3
2046.69,11766.0
2049.01,11727.5
2051.33,11589.7
2053.65,11573.7
2055.97,11579.0
2058.29,11745.0
2060.61,11731.0
2062.93,11699.0
2065.25,11723.6
2067.57,11854.2
2069.88,11857.6
2072.2,11868.1
2074.52,11884.7
2076.83,11763.2
2079.15,11783.7
2081.46,11800.6
2083.77,11712.7
2086.08,11627.3
2088.39,11661.9
2090.7,11823.0
2093.01,11950.7
2095.32,11922.5
2097.63,11835.3
2099.94,11684.7
2102.25,11696.5
2104.55,11836.5
2106.86,12147.2
2109.16,12154.3
2111.47,12120.7
2113.77,12087.0
2116.08,11880.6
2118.38,11837.5
2120.68,11931.7
2122.98,11896.8
2125.28,11959.7
2127.58,11848.2
2129.88,11916.0
2132.18,12028.5
2134.47,12109.0
2136.77,12022.3
2139.07,12015.0
2141.36,12039.7
2143.66,11918.5
2145.95,11929.0
2148.24,12249.5
2150.54,12332.5
2152.83,12194.7
2155.12,12024.1
2157.41,12049.7
2159.7,11902.3
2161.99,11966.9
2164.28,12099.3
2166.57,12155.8
2168.85,12198.8
2171.14,12281.3
2173.43,12132.5
2175.71,12111.1
2178.0,11996.8
2180.28,12013.5
2182.56,12199.4
2184.84,12215.5
2187.13,12176.9
2189.41,12087.4
2191.69,12047.5
2193.97,12063.2
2196.25,12187.8
2198.52,12311.2
2200.8,12496.5
2203.08,12281.1
2205.36,12167.3
2207.63,12211.4
2209.91,12206.2
2212.18,12383.5
2214.45,12501.1
2216.73,12386.5
2219.0,12209.0
2221.27,12101.8
2223.54,12256.5
2225.81,12265.2
2228.08,12263.6
2230.35,12359.8
2232.62,12226.0
2234.89,12294.3
2237.15,12271.8
2239.42,12363.6
2241.68,12656.5
2243.95,12570.8
2246.21,12217.0
2248.48,12024.5
2250.74,12132.2
2253.0,12427.0
2255.26,12576.8
2257.52,12446.0
2259.78,12223.7
2262.04,12346.9
2264.3,12498.7
2266.56,12342.3
2268.82,12494.8
2271.07,12496.0
2273.33,12534.7
2275.58,12639.8
2277.84,12579.5
2280.09,12442.6
2282.35,12424.8
2284.6,12487.8
2286.85,12476.8
2289.1,12638.0
2291.35,12557.5
2293.6,12376.0
2295.85,12470.8
2298.1,12457.8
2300.35,12518.0
2302.6,12518.1
2304.84,12571.5
2307.09,12556.6
2309.33,12679.5
2311.58,12921.8
2313.82,12830.2
2316.07,12577.2
2318.31,12657.5
2320.55,12838.0
2322.79,12845.6
2325.03,12697.8
2327.27,12461.8
2329.51,12539.3
2331.75,12758.0
2333.99,12841.5
2336.23,12753.3
2338.46,12649.5
2340.7,12706.0
2342.93,12777.0
2345.17,12929.8
2347.4,12843.5
2349.64,13043.5
2351.87,13078.7
2354.1,12808.2
2356.33,12594.3
2358.56,12921.3
2360.79,13049.5
2363.02,12960.0
2365.25,12877.0
2367.48,12790.0
2369.71,12754.8
2371.93,13108.5
2374.16,13115.1
2376.38,12773.5
2378.61,12746.0
2380.83,13119.3
2383.06,13049.0
2385.28,13057.9
2387.5,12983.3
2389.72,13016.8
2391.94,13131.8
2394.16,13277.0
2396.38,13389.5
2398.6,13117.8
2400.82,13142.8
2403.04,13359.3
2405.26,13211.7
2407.47,13049.4
2409.69,13006.5
2411.9,13185.1
2414.12,13417.0
2416.33,13291.7
2418.54,13390.7
2420.76,13268.9
2422.97,13105.7
2425.18,13304.4
2427.39,13434.3
2429.6,13448.3
2431.81,13346.0
2434.02,13467.3
2436.22,13610.8
2438.43,13437.0
2440.64,13113.3
2442.84,13220.8
2445.05,13420.2
2447.25,13497.8
2449.46,13512.0
2451.66,13630.8
2453.86,13518.4
2456.06,13274.5
2458.27,13255.1
2460.47,13539.0
2462.67,13600.5
2464.87,13458.1
2467.06,13456.6
2469.26,13528.7
2471.46,13675.2
2473.66,13644.7
2475.85,13693.9
2478.05,13661.3
2480.24,13497.0
2482.44,13497.4
2484.63,13470.2
2486.82,13370.7
2489.02,13580.8
2491.21,13899.8
2493.4,13983.3
2495.59,13743.5
2497.78,13737.0
2499.97,13860.5
2502.16,13944.7
2504.34,13731.5
2506.53,13753.0
2508.72,13937.8
2510.9,13803.9
2513.09,13864.6
2515.27,13981.6
2517.46,14136.7
2519.64,13958.3
2521.82,13858.5
2524.0,13813.3
2526.19,13942.9
2528.37,14166.0
2530.55,14339.6
2532.73,14245.5
2534.9,14238.3
2537.08,13960.4
2539.26,13953.2
2541.44,14175.9
2543.61,14148.8
2545.79,14056.3
2547.96,14171.3
2550.14,14198.9
2552.31,14210.7
2554.48,14041.7
2556.66,14277.5
2558.83,14421.5
2561.0,14436.4
2563.17,14497.2
2565.34,14438.1
2567.51,14241.5
2569.68,14005.5
2571.85,14104.8
2574.01,14443.8
2576.18,14590.7
2578.35,14303.7
2580.51,14122.4
2582.68,14295.9
2584.84,14596.8
2587.0,14651.3
2589.17,14638.6
2591.33,14526.6
2593.49,14443.6
2595.65,14396.5
2597.81,14412.8
2599.97,14620.5
2602.13,14606.0
2604.29,14455.0
2606.45,14566.9
2608.6,14860.3
2610.76,14754.8
2612.92,14641.8
2615.07,14815.0
2617.23,14901.5
2619.38,14774.5
2621.53,14643.2
2623.69,14545.8
2625.84,14735.3
2627.99,14835.0
2630.14,14791.8
2632.29,14958.8
2634.44,15057.0
2636.59,14910.0
2638.74,14725.8
2640.89,14633.8
2643.03,14909.0
2645.18,15049.8
2647.33,15400.5
2649.47,15107.1
2651.62,15073.3
2653.76,15148.7
2655.9,15310.0
2658.05,15306.8
2660.19,15141.0
2662.33,15205.0
2664.47,15118.8
2666.61,15086.7
2668.75,15295.0
2670.89,15405.7
2673.03,15391.3
2675.17,15326.7
2677.3,15049.6
2679.44,14890.7
2681.58,15070.8
2683.71,15217.8
2685.84,15157.9
2687.98,15357.8
2690.11,15699.3
2692.25,15673.3
2694.38,15553.5
2696.51,15394.2
2698.64,15182.9
2700.77,15344.2
2702.9,15484.0
2705.03,15731.5
2707.16,15640.9
2709.29,15291.5
2711.41,15245.9
2713.54,15501.6
2715.67,15468.5
2717.79,15478.6
2719.92,15558.8
2722.04,15452.1
2724.16,15641.9
2726.29,15748.0
2728.41,15592.6
2730.53,15693.3
2732.65,15660.0
2734.77,15599.0
2736.89,15908.3
2739.01,15953.7
2741.13,15846.2
2743.25,15995.5
2745.36,15842.0
2747.48,15520.1
2749.6,15568.2
2751.71,15820.8
2753.83,16144.4
2755.94,16272.2
2758.06,16116.7
2760.17,15837.6
2762.28,15617.2
2764.39,15731.3
2766.5,16157.8
2768.61,16423.2
2770.72,16355.9
2772.83,16063.3
2774.94,15786.1
2777.05,15965.9
2779.16,16059.8
2781.27,16032.3
2783.37,16107.6
2785.48,16308.3
2787.58,16300.8
2789.69,15837.0
2791.79,16036.3
2793.89,16393.3
2796.0,16687.2
2798.1,16442.1
2800.2,16211.2
2802.3,16390.9
2804.4,16496.8
2806.5,16150.2
2808.6,16072.3
2810.7,16098.7
2812.8,16167.3
2814.89,16426.4
2816.99,16264.0
2819.09,16297.8
2821.18,16579.1
2823.28,16706.9
2825.37,16466.2
2827.46,16646.8
2829.56,16622.8
2831.65,16421.0
2833.74,16301.3
2835.83,16528.6
2837.92,16322.8
2840.01,16087.6
2842.1,16343.9
2844.19,16604.4
2846.28,16495.1
2848.37,16523.1
2850.45,16577.4
2852.54,16628.4
2854.63,16744.5
2856.71,16618.3
2858.8,16927.2
2860.88,17201.3
2862.96,17265.5
2865.05,16675.8
2867.13,16360.8
2869.21,16403.2
2871.29,16558.8
2873.37,16991.3
2875.45,17118.4
2877.53,17233.3
2879.61,17012.6
2881.69,16777.8
2883.76,16914.8
2885.84,17053.4
2887.92,17088.0
2889.99,17114.2
2892.07,16929.0
2894.14,17062.8
2896.22,17024.8
2898.29,17232.2
2900.36,17421.9
2902.43,17189.2
2904.5,17198.0
2906.58,17308.1
2908.65,17469.3
2910.72,17563.4
2912.78,17389.8
2914.85,17174.8
2916.92,16940.6
2918.99,16913.8
2921.05,17184.5
2923.12,17407.3
2925.19,17217.3
2927.25,17037.0
2929.32,16988.3
2931.38,17195.8
2933.44,17697.8
2935.5,17785.8
2937.57,17492.5
2939.63,17154.5
2941.69,17071.3
2943.75,17426.0
2945.81,17639.5
2947.87,17647.3
2949.93,17302.3
2951.98,17442.8
2954.04,17672.9
2956.1,17904.8
2958.15,17890.8
2960.21,17624.8
2962.26,17601.1
2964.32,17678.3
2966.37,17871.2
2968.42,17857.7
2970.48,17901.9
2972.53,17817.0
2974.58,17673.1
2976.63,17833.1
2978.68,18187.1
2980.73,18032.9
2982.78,17984.2
2984.83,17896.2
2986.87,17885.8
2988.92,17863.1
2990.97,17949.8
2993.01,17998.9
2995.06,18064.6
2997.1,17909.8
2999.15,17544.4
3001.19,17691.3
3003.24,17924.9
3005.28,18419.2
3007.32,18488.2
3009.36,17864.7
3011.4,17744.7
3013.44,18190.9
3015.48,18217.4
3017.52,17998.6
3019.56,18275.5
3021.6,18225.6
3023.63,17964.3
3025.67,17784.7
3027.71,17735.1
3029.74,17912.6
3031.78,17925.5
3033.81,17956.9
3035.85,18063.3
3037.88,17923.2
3039.91,18017.2
3041.94,17669.5
3043.97,17652.8
3046.01,17971.1
3048.04,18109.5
3050.07,18022.9
3052.09,18088.8
3054.12,17894.0
3056.15,17743.6
3058.18,17835.6
3060.2,18415.3
3062.23,18552.5
3064.26,18125.7
3066.28,17933.4
3068.31,18197.6
3070.33,18255.8
3072.35,18290.8
3074.38,18364.3
3076.4,18866.6
3078.42,19079.4
3080.44,18830.7
3082.46,18833.6
3084.48,19219.5
3086.5,18836.9
3088.52,18402.1
3090.54,18399.7
3092.55,18355.9
3094.57,18038.3
3096.59,18000.8
3098.6,17995.4
3100.62,18275.8
3102.63,18386.3
3104.65,18292.3
3106.66,18427.6
3108.67,18655.9
3110.69,18056.8
3112.7,17786.4
3114.71,18075.6
3116.72,18159.2
3118.73,17860.1
3120.74,17686.1
3122.75,18066.6
3124.76,18478.1
3126.77,18895.1
3128.77,18873.2
3130.78,18712.9
3132.79,18503.4
3134.79,18225.8
3136.8,18082.0
3138.8,17930.8
3140.8,17938.8
3142.81,18241.3
3144.81,18423.8
3146.81,18326.0
3148.81,18170.9
3150.82,17970.1
3152.82,17960.8
3154.82,18067.4
3156.82,18235.6
3158.81,18224.6
3160.81,18489.6
3162.81,18563.2
3164.81,18438.7
3166.8,18040.7
3168.8,17982.8
3170.79,18146.5
3172.79,18297.8
3174.78,18362.5
3176.78,18043.9
3178.77,18069.7
3180.76,18288.3
3182.75,18229.7
3184.75,18109.6
3186.74,17934.3
3188.73,17950.0
3190.72,18144.2
3192.71,18405.1
3194.69,18552.4
3196.68,18322.0
3198.67,18102.3
3200.66,18213.3
3202.64,18136.9
3204.63,18100.8
3206.61,18307.1
3208.6,18038.4
3210.58,17799.8
3212.57,18216.9
3214.55,18362.0
3216.53,18298.8
3218.51,18148.8
3220.49,18135.8
3222.47,18103.2
3224.46,18333.4
3226.43,18564.2
3228.41,18475.6
3230.39,18076.4
3232.37,17998.3
3234.35,18154.7
3236.32,18324.9
3238.3,17928.8
3240.28,18212.2
3242.25,18404.3
3244.23,18416.2
3246.2,17907.2
3248.17,18039.7
3250.15,18033.7
3252.12,17851.7
3254.09,18081.4
3256.06,18324.2
3258.03,18700.2
3260.0,18590.5
3261.97,18355.6
3263.94,17980.6
3265.91,17996.0
3267.88,18194.7
3269.84,18293.4
3271.81,18091.2
3273.78,17854.9
3275.74,17691.5
3277.71,18347.3
3279.67,18536.8
3281.64,18088.4
3283.6,18055.7
3285.56,18498.6
3287.52,18262.0
3289.49,18252.3
3291.45,18384.3
3293.41,18342.6
3295.37,18211.7
3297.33,18033.3
3299.29,18056.1
3301.25,18131.4
3303.2,18000.9
3305.16,17841.4
3307.12,17741.3
3309.07,18035.6
3311.03,18608.0
3312.99,18259.2
3314.94,17679.6
3316.89,17842.3
3318.85,18233.5
3320.8,18387.1
3322.75,18073.0
3324.7,17854.6
3326.66,17437.4
3328.61,17601.4
3330.56,17841.7
3332.51,17951.0
3334.46,18065.6
3336.4,18162.4
3338.35,18187.4
3340.3,18180.0
3342.25,18138.3
3344.19,18064.3
3346.14,17817.2
3348.08,17745.6
3350.03,17823.1
3351.97,17770.1
3353.92,17945.0
3355.86,18103.3
3357.8,18133.1
3359.74,18016.3
3361.69,18013.8
3363.63,18156.4
3365.57,18084.7
3367.51,17742.2
3369.45,17511.4
3371.39,17537.7
3373.32,17370.6
3375.26,17292.7
3377.2,17797.2
3379.13,18014.6
3381.07,17846.4
3383.01,17871.3
3384.94,17831.6
3386.88,17786.7
3388.81,17384.8
3390.74,17203.9
3392.68,17206.1
3394.61,17462.4
3396.54,17820.4
3398.47,17833.8
3400.4,17774.0
3402.33,17497.2
3404.26,17466.1
3406.19,17469.1
3408.12,17206.6
3410.05,17220.8
3411.97,17343.8
3413.9,17292.7
3415.83,17411.4
3417.75,17935.4
3419.68,17992.4
3421.6,18028.8
3423.53,18045.2
3425.45,17491.8
3427.37,17149.9
3429.3,17303.3
3431.22,17209.1
3433.14,17150.9
3435.06,16999.3
3436.98,17199.3
3438.9,18042.1
3440.82,17994.8
3442.74,17691.3
3444.66,17558.9
3446.57,17527.4
3448.49,17465.5
3450.41,16930.2
3452.32,16954.8
3454.24,17489.7
3456.15,17689.9
3458.07,17653.2
3459.98,17734.8
3461.9,17311.6
3463.81,17021.4
3465.72,16997.9
3467.63,17214.4
3469.54,17372.1
3471.46,17614.1
3473.37,17465.2
3475.28,17219.9
3477.18,16767.3
3479.09,16580.6
3481.0,16799.7
3482.91,16742.6
3484.82,16805.7
3486.72,16922.1
3488.63,16761.7
3490.53,17050.4
3492.44,17096.8
3494.34,16595.0
3496.25,16658.9
3498.15,16834.3
3500.05,16574.5
3501.96,16544.3
3503.86,16807.7
3505.76,16908.2
3507.66,16603.6
3509.56,16331.5
3511.46,16297.5
3513.36,16731.6
3515.26,17047.1
3517.15,17006.9
3519.05,16415.9
3520.95,15793.3
3522.85,15676.9
3524.74,16301.3
3526.64,16714.9
3528.53,16903.4
3530.43,16942.3
3532.32,16561.4
3534.21,16412.4
3536.11,16500.4
3538.0,16628.9
3539.89,16997.6
3541.78,16836.8
3543.67,16475.6
3545.56,16460.9
3547.45,16468.8
3549.34,16169.2
3551.23,15781.8
3553.12,15774.3
3555.0,15952.0
3556.89,16186.7
3558.78,16601.1
3560.66,16364.5
3562.55,16669.7
3564.43,16549.2
3566.32,16167.7
3568.2,16125.9
3570.09,16087.0
3571.97,15821.0
3573.85,15634.3
3575.73,15709.2
3577.61,16188.7
3579.49,16125.3
3581.37,16156.0
3583.25,16167.8
3585.13,16041.3
3587.01,16207.7
3588.89,16081.2
3590.77,16217.8
3592.64,16449.8
3594.52,15823.7
3596.4,15548.6
3598.27,15415.5
3600.15,15395.0
3602.02,15847.6
3603.9,15620.0
3605.77,15416.8
3607.64,15769.8
3609.51,16065.2
3611.39,16060.2
3613.26,15476.8
3615.13,15268.6
3617.0,15513.3
3618.87,15160.8
3620.74,15167.2
3622.61,15321.7
3624.48,15306.5
3626.34,15154.5
3628.21,15260.2
3630.08,15313.3
3631.94,15141.8
3633.81,14926.3
3635.67,14992.5
3637.54,14968.7
3639.4,14962.3
3641.27,14998.8
3643.13,15267.3
3644.99,15401.3
3646.85,15060.3
3648.72,15144.3
3650.58,15207.3
3652.44,14983.1
3654.3,14861.3
3656.16,15058.0
3658.02,15693.8
3659.87,15748.5
3661.73,15335.3
3663.59,15612.8
3665.45,15345.0
