cm-1,A
4000.0,-0.0017
3999.0,-0.0017
3998.0,-0.0016
3997.0,-0.0016
3996.0,-0.0015
3995.0,-0.0015
3994.0,-0.0015
3993.0,-0.0015
3992.0,-0.0016
3991.0,-0.0016
3990.0,-0.0017
3989.0,-0.0017
3988.0,-0.0018
3987.0,-0.0018
3986.0,-0.0018
3985.0,-0.0018
3984.0,-0.0018
3983.0,-0.0018
3982.0,-0.0017
3981.0,-0.0016
3980.0,-0.0016
3979.0,-0.0016
3978.0,-0.0016
3977.0,-0.0017
3976.0,-0.0017
3975.0,-0.0017
3974.0,-0.0017
3973.0,-0.0017
3972.0,-0.0017
3971.0,-0.0017
3970.0,-0.0017
3969.0,-0.0017
3968.0,-0.0018
3967.0,-0.0018
3966.0,-0.0018
3965.0,-0.0017
3964.0,-0.0017
3963.0,-0.0017
3962.0,-0.0017
3961.0,-0.0017
3960.0,-0.0016
3959.0,-0.0015
3958.0,-0.0015
3957.0,-0.0015
3956.0,-0.0016
3955.0,-0.0017
3954.0,-0.0018
3953.0,-0.0019
3952.0,-0.0019
3951.0,-0.0018
3950.0,-0.0018
3949.0,-0.0017
3948.0,-0.0017
3947.0,-0.0017
3946.0,-0.0017
3945.0,-0.0017
3944.0,-0.0017
3943.0,-0.0017
3942.0,-0.0016
3941.0,-0.0016
3940.0,-0.0015
3939.0,-0.0015
3938.0,-0.0015
3937.0,-0.0015
3936.0,-0.0016
3935.0,-0.0015
3934.0,-0.0015
3933.0,-0.0014
3932.0,-0.0014
3931.0,-0.0015
3930.0,-0.0016
3929.0,-0.0016
3928.0,-0.0016
3927.0,-0.0017
3926.0,-0.0018
3925.0,-0.0018
3924.0,-0.0018
3923.0,-0.0018
3922.0,-0.0017
3921.0,-0.0017
3920.0,-0.0017
3919.0,-0.0017
3918.0,-0.0017
3917.0,-0.0016
3916.0,-0.0016
3915.0,-0.0015
3914.0,-0.0015
3913.0,-0.0015
3912.0,-0.0015
3911.0,-0.0015
3910.0,-0.0015
3909.0,-0.0015
3908.0,-0.0015
3907.0,-0.0015
3906.0,-0.0015
3905.0,-0.0014
3904.0,-0.0014
3903.0,-0.0013
3902.0,-0.0013
3901.0,-0.0013
3900.0,-0.0014
3899.0,-0.0015
3898.0,-0.0016
3897.0,-0.0016
3896.0,-0.0017
3895.0,-0.0017
3894.0,-0.0017
3893.0,-0.0017
3892.0,-0.0016
3891.0,-0.0016
3890.0,-0.0016
3889.0,-0.0016
3888.0,-0.0016
3887.0,-0.0016
3886.0,-0.0016
3885.0,-0.0016
3884.0,-0.0015
3883.0,-0.0015
3882.0,-0.0014
3881.0,-0.0014
3880.0,-0.0014
3879.0,-0.0015
3878.0,-0.0015
3877.0,-0.0016
3876.0,-0.0016
3875.0,-0.0017
3874.0,-0.0016
3873.0,-0.0016
3872.0,-0.0015
3871.0,-0.0016
3870.0,-0.0016
3869.0,-0.0017
3868.0,-0.0017
3867.0,-0.0017
3866.0,-0.0016
3865.0,-0.0015
3864.0,-0.0014
3863.0,-0.0015
3862.0,-0.0016
3861.0,-0.0016
3860.0,-0.0017
3859.0,-0.0017
3858.0,-0.0018
3857.0,-0.0018
3856.0,-0.0019
3855.0,-0.0019
3854.0,-0.0019
3853.0,-0.0018
3852.0,-0.0017
3851.0,-0.0016
3850.0,-0.0016
3849.0,-0.0015
3848.0,-0.0015
3847.0,-0.0016
3846.0,-0.0017
3845.0,-0.0018
3844.0,-0.0019
3843.0,-0.002
3842.0,-0.002
3841.0,-0.0021
3840.0,-0.002
3839.0,-0.0019
3838.0,-0.0018
3837.0,-0.0017
3836.0,-0.0016
3835.0,-0.0016
3834.0,-0.0016
3833.0,-0.0015
3832.0,-0.0015
3831.0,-0.0015
3830.0,-0.0016
3829.0,-0.0017
3828.0,-0.0018
3827.0,-0.0019
3826.0,-0.002
3825.0,-0.002
3824.0,-0.002
3823.0,-0.002
3822.0,-0.0019
3821.0,-0.0018
3820.0,-0.0016
3819.0,-0.0016
3818.0,-0.0016
3817.0,-0.0017
3816.0,-0.0017
3815.0,-0.0017
3814.0,-0.0017
3813.0,-0.0017
3812.0,-0.0017
3811.0,-0.0017
3810.0,-0.0017
3809.0,-0.0017
3808.0,-0.0017
3807.0,-0.0017
3806.0,-0.0016
3805.0,-0.0016
3804.0,-0.0017
3803.0,-0.0017
3802.0,-0.0018
3801.0,-0.0018
3800.0,-0.0018
3799.0,-0.0016
3798.0,-0.0015
3797.0,-0.0014
3796.0,-0.0014
3795.0,-0.0015
3794.0,-0.0016
3793.0,-0.0017
3792.0,-0.0017
3791.0,-0.0018
3790.0,-0.0018
3789.0,-0.0017
3788.0,-0.0017
3787.0,-0.0017
3786.0,-0.0017
3785.0,-0.0018
3784.0,-0.0018
3783.0,-0.0018
3782.0,-0.0017
3781.0,-0.0017
3780.0,-0.0017
3779.0,-0.0017
3778.0,-0.0017
3777.0,-0.0017
3776.0,-0.0017
3775.0,-0.0017
3774.0,-0.0016
3773.0,-0.0016
3772.0,-0.0015
3771.0,-0.0014
3770.0,-0.0014
3769.0,-0.0014
3768.0,-0.0015
3767.0,-0.0015
3766.0,-0.0015
3765.0,-0.0015
3764.0,-0.0015
3763.0,-0.0016
3762.0,-0.0016
3761.0,-0.0017
3760.0,-0.0017
3759.0,-0.0017
3758.0,-0.0017
3757.0,-0.0016
3756.0,-0.0016
3755.0,-0.0017
3754.0,-0.0018
3753.0,-0.0019
3752.0,-0.002
3751.0,-0.0019
3750.0,-0.0018
3749.0,-0.0017
3748.0,-0.0016
3747.0,-0.0014
3746.0,-0.0012
3745.0,-0.0011
3744.0,-0.0011
3743.0,-0.0013
3742.0,-0.0015
3741.0,-0.0016
3740.0,-0.0017
3739.0,-0.0017
3738.0,-0.0018
3737.0,-0.0018
3736.0,-0.0018
3735.0,-0.0018
3734.0,-0.0016
3733.0,-0.0014
3732.0,-0.0013
3731.0,-0.0012
3730.0,-0.0012
3729.0,-0.0012
3728.0,-0.0013
3727.0,-0.0014
3726.0,-0.0015
3725.0,-0.0016
3724.0,-0.0016
3723.0,-0.0016
3722.0,-0.0016
3721.0,-0.0015
3720.0,-0.0015
3719.0,-0.0016
3718.0,-0.0016
3717.0,-0.0016
3716.0,-0.0016
3715.0,-0.0016
3714.0,-0.0017
3713.0,-0.0018
3712.0,-0.0018
3711.0,-0.0017
3710.0,-0.0015
3709.0,-0.0014
3708.0,-0.0015
3707.0,-0.0016
3706.0,-0.0017
3705.0,-0.0017
3704.0,-0.0017
3703.0,-0.0017
3702.0,-0.0016
3701.0,-0.0015
3700.0,-0.0014
3699.0,-0.0014
3698.0,-0.0013
3697.0,-0.0013
3696.0,-0.0013
3695.0,-0.0013
3694.0,-0.0013
3693.0,-0.0013
3692.0,-0.0013
3691.0,-0.0014
3690.0,-0.0014
3689.0,-0.0014
3688.0,-0.0014
3687.0,-0.0015
3686.0,-0.0015
3685.0,-0.0015
3684.0,-0.0015
3683.0,-0.0015
3682.0,-0.0016
3681.0,-0.0016
3680.0,-0.0017
3679.0,-0.0017
3678.0,-0.0017
3677.0,-0.0015
3676.0,-0.0013
3675.0,-0.0012
3674.0,-0.0013
3673.0,-0.0014
3672.0,-0.0015
3671.0,-0.0016
3670.0,-0.0017
3669.0,-0.0017
3668.0,-0.0017
3667.0,-0.0016
3666.0,-0.0016
3665.0,-0.0016
3664.0,-0.0016
3663.0,-0.0016
3662.0,-0.0017
3661.0,-0.0017
3660.0,-0.0018
3659.0,-0.0017
3658.0,-0.0017
3657.0,-0.0016
3656.0,-0.0016
3655.0,-0.0016
3654.0,-0.0016
3653.0,-0.0015
3652.0,-0.0014
3651.0,-0.0015
3650.0,-0.0015
3649.0,-0.0015
3648.0,-0.0015
3647.0,-0.0015
3646.0,-0.0016
3645.0,-0.0016
3644.0,-0.0016
3643.0,-0.0016
3642.0,-0.0016
3641.0,-0.0015
3640.0,-0.0015
3639.0,-0.0015
3638.0,-0.0015
3637.0,-0.0015
3636.0,-0.0015
3635.0,-0.0014
3634.0,-0.0013
3633.0,-0.0013
3632.0,-0.0014
3631.0,-0.0014
3630.0,-0.0014
3629.0,-0.0013
3628.0,-0.0013
3627.0,-0.0013
3626.0,-0.0013
3625.0,-0.0013
3624.0,-0.0013
3623.0,-0.0013
3622.0,-0.0013
3621.0,-0.0013
3620.0,-0.0014
3619.0,-0.0014
3618.0,-0.0014
3617.0,-0.0015
3616.0,-0.0016
3615.0,-0.0017
3614.0,-0.0017
3613.0,-0.0017
3612.0,-0.0015
3611.0,-0.0014
3610.0,-0.0014
3609.0,-0.0014
3608.0,-0.0014
3607.0,-0.0014
3606.0,-0.0014
3605.0,-0.0014
3604.0,-0.0014
3603.0,-0.0014
3602.0,-0.0015
3601.0,-0.0015
3600.0,-0.0016
3599.0,-0.0016
3598.0,-0.0017
3597.0,-0.0017
3596.0,-0.0017
3595.0,-0.0016
3594.0,-0.0015
3593.0,-0.0015
3592.0,-0.0014
3591.0,-0.0014
3590.0,-0.0014
3589.0,-0.0013
3588.0,-0.0013
3587.0,-0.0013
3586.0,-0.0013
3585.0,-0.0014
3584.0,-0.0015
3583.0,-0.0016
3582.0,-0.0016
3581.0,-0.0016
3580.0,-0.0016
3579.0,-0.0015
3578.0,-0.0015
3577.0,-0.0015
3576.0,-0.0015
3575.0,-0.0015
3574.0,-0.0016
3573.0,-0.0016
3572.0,-0.0017
3571.0,-0.0016
3570.0,-0.0015
3569.0,-0.0015
3568.0,-0.0017
3567.0,-0.0018
3566.0,-0.0019
3565.0,-0.0018
3564.0,-0.0017
3563.0,-0.0017
3562.0,-0.0017
3561.0,-0.0017
3560.0,-0.0016
3559.0,-0.0015
3558.0,-0.0015
3557.0,-0.0014
3556.0,-0.0013
3555.0,-0.0013
3554.0,-0.0013
3553.0,-0.0013
3552.0,-0.0013
3551.0,-0.0013
3550.0,-0.0014
3549.0,-0.0015
3548.0,-0.0015
3547.0,-0.0016
3546.0,-0.0017
3545.0,-0.0018
3544.0,-0.0018
3543.0,-0.0018
3542.0,-0.0017
3541.0,-0.0016
3540.0,-0.0016
3539.0,-0.0017
3538.0,-0.0017
3537.0,-0.0017
3536.0,-0.0016
3535.0,-0.0015
3534.0,-0.0014
3533.0,-0.0014
3532.0,-0.0014
3531.0,-0.0015
3530.0,-0.0016
3529.0,-0.0016
3528.0,-0.0017
3527.0,-0.0017
3526.0,-0.0017
3525.0,-0.0016
3524.0,-0.0016
3523.0,-0.0016
3522.0,-0.0015
3521.0,-0.0015
3520.0,-0.0015
3519.0,-0.0014
3518.0,-0.0014
3517.0,-0.0014
3516.0,-0.0014
3515.0,-0.0015
3514.0,-0.0015
3513.0,-0.0015
3512.0,-0.0015
3511.0,-0.0015
3510.0,-0.0015
3509.0,-0.0015
3508.0,-0.0015
3507.0,-0.0014
3506.0,-0.0013
3505.0,-0.0013
3504.0,-0.0013
3503.0,-0.0014
3502.0,-0.0014
3501.0,-0.0015
3500.0,-0.0015
3499.0,-0.0015
3498.0,-0.0015
3497.0,-0.0014
3496.0,-0.0014
3495.0,-0.0014
3494.0,-0.0014
3493.0,-0.0014
3492.0,-0.0015
3491.0,-0.0015
3490.0,-0.0015
3489.0,-0.0015
3488.0,-0.0014
3487.0,-0.0014
3486.0,-0.0014
3485.0,-0.0015
3484.0,-0.0015
3483.0,-0.0015
3482.0,-0.0015
3481.0,-0.0014
3480.0,-0.0014
3479.0,-0.0015
3478.0,-0.0015
3477.0,-0.0016
3476.0,-0.0016
3475.0,-0.0016
3474.0,-0.0016
3473.0,-0.0015
3472.0,-0.0013
3471.0,-0.0012
3470.0,-0.0012
3469.0,-0.0012
3468.0,-0.0013
3467.0,-0.0013
3466.0,-0.0014
3465.0,-0.0015
3464.0,-0.0015
3463.0,-0.0016
3462.0,-0.0017
3461.0,-0.0017
3460.0,-0.0017
3459.0,-0.0016
3458.0,-0.0015
3457.0,-0.0014
3456.0,-0.0012
3455.0,-0.0012
3454.0,-0.0011
3453.0,-0.0012
3452.0,-0.0013
3451.0,-0.0014
3450.0,-0.0015
3449.0,-0.0015
3448.0,-0.0014
3447.0,-0.0014
3446.0,-0.0014
3445.0,-0.0015
3444.0,-0.0016
3443.0,-0.0016
3442.0,-0.0015
3441.0,-0.0014
3440.0,-0.0014
3439.0,-0.0014
3438.0,-0.0015
3437.0,-0.0016
3436.0,-0.0017
3435.0,-0.0017
3434.0,-0.0016
3433.0,-0.0014
3432.0,-0.0013
3431.0,-0.0013
3430.0,-0.0013
3429.0,-0.0014
3428.0,-0.0014
3427.0,-0.0014
3426.0,-0.0014
3425.0,-0.0014
3424.0,-0.0015
3423.0,-0.0015
3422.0,-0.0015
3421.0,-0.0014
3420.0,-0.0014
3419.0,-0.0014
3418.0,-0.0014
3417.0,-0.0014
3416.0,-0.0014
3415.0,-0.0014
3414.0,-0.0014
3413.0,-0.0014
3412.0,-0.0014
3411.0,-0.0015
3410.0,-0.0016
3409.0,-0.0016
3408.0,-0.0017
3407.0,-0.0017
3406.0,-0.0016
3405.0,-0.0015
3404.0,-0.0013
3403.0,-0.0012
3402.0,-0.0012
3401.0,-0.0012
3400.0,-0.0013
3399.0,-0.0013
3398.0,-0.0013
3397.0,-0.0013
3396.0,-0.0013
3395.0,-0.0013
3394.0,-0.0013
3393.0,-0.0014
3392.0,-0.0014
3391.0,-0.0014
3390.0,-0.0013
3389.0,-0.0013
3388.0,-0.0013
3387.0,-0.0013
3386.0,-0.0013
3385.0,-0.0012
3384.0,-0.0012
3383.0,-0.0012
3382.0,-0.0013
3381.0,-0.0013
3380.0,-0.0014
3379.0,-0.0014
3378.0,-0.0014
3377.0,-0.0014
3376.0,-0.0014
3375.0,-0.0014
3374.0,-0.0014
3373.0,-0.0014
3372.0,-0.0014
3371.0,-0.0014
3370.0,-0.0014
3369.0,-0.0014
3368.0,-0.0014
3367.0,-0.0013
3366.0,-0.0013
3365.0,-0.0014
3364.0,-0.0014
3363.0,-0.0015
3362.0,-0.0015
3361.0,-0.0015
3360.0,-0.0014
3359.0,-0.0014
3358.0,-0.0014
3357.0,-0.0013
3356.0,-0.0013
3355.0,-0.0013
3354.0,-0.0013
3353.0,-0.0013
3352.0,-0.0014
3351.0,-0.0014
3350.0,-0.0014
3349.0,-0.0013
3348.0,-0.0013
3347.0,-0.0012
3346.0,-0.0012
3345.0,-0.0012
3344.0,-0.0013
3343.0,-0.0013
3342.0,-0.0013
3341.0,-0.0012
3340.0,-0.0012
3339.0,-0.0012
3338.0,-0.0013
3337.0,-0.0013
3336.0,-0.0014
3335.0,-0.0014
3334.0,-0.0014
3333.0,-0.0014
3332.0,-0.0014
3331.0,-0.0015
3330.0,-0.0015
3329.0,-0.0015
3328.0,-0.0015
3327.0,-0.0016
3326.0,-0.0015
3325.0,-0.0014
3324.0,-0.0013
3323.0,-0.0012
3322.0,-0.0012
3321.0,-0.0012
3320.0,-0.0013
3319.0,-0.0014
3318.0,-0.0014
3317.0,-0.0014
3316.0,-0.0013
3315.0,-0.0013
3314.0,-0.0013
3313.0,-0.0013
3312.0,-0.0013
3311.0,-0.0014
3310.0,-0.0014
3309.0,-0.0013
3308.0,-0.0013
3307.0,-0.0013
3306.0,-0.0012
3305.0,-0.0013
3304.0,-0.0013
3303.0,-0.0013
3302.0,-0.0012
3301.0,-0.0012
3300.0,-0.0011
3299.0,-0.0011
3298.0,-0.0011
3297.0,-0.0012
3296.0,-0.0012
3295.0,-0.0012
3294.0,-0.0012
3293.0,-0.0013
3292.0,-0.0012
3291.0,-0.0012
3290.0,-0.0012
3289.0,-0.0012
3288.0,-0.0012
3287.0,-0.0013
3286.0,-0.0014
3285.0,-0.0014
3284.0,-0.0015
3283.0,-0.0015
3282.0,-0.0015
3281.0,-0.0015
3280.0,-0.0015
3279.0,-0.0015
3278.0,-0.0014
3277.0,-0.0014
3276.0,-0.0014
3275.0,-0.0014
3274.0,-0.0014
3273.0,-0.0013
3272.0,-0.0013
3271.0,-0.0013
3270.0,-0.0014
3269.0,-0.0014
3268.0,-0.0014
3267.0,-0.0015
3266.0,-0.0015
3265.0,-0.0015
3264.0,-0.0015
3263.0,-0.0015
3262.0,-0.0015
3261.0,-0.0015
3260.0,-0.0014
3259.0,-0.0014
3258.0,-0.0014
3257.0,-0.0014
3256.0,-0.0012
3255.0,-0.0011
3254.0,-0.0011
3253.0,-0.0011
3252.0,-0.0011
3251.0,-0.0012
3250.0,-0.0011
3249.0,-0.0011
3248.0,-0.0011
3247.0,-0.0011
3246.0,-0.0012
3245.0,-0.0013
3244.0,-0.0013
3243.0,-0.0013
3242.0,-0.0012
3241.0,-0.0013
3240.0,-0.0013
3239.0,-0.0014
3238.0,-0.0015
3237.0,-0.0015
3236.0,-0.0015
3235.0,-0.0014
3234.0,-0.0014
3233.0,-0.0014
3232.0,-0.0013
3231.0,-0.0013
3230.0,-0.0012
3229.0,-0.0012
3228.0,-0.0012
3227.0,-0.0013
3226.0,-0.0013
3225.0,-0.0013
3224.0,-0.0013
3223.0,-0.0012
3222.0,-0.0012
3221.0,-0.0012
3220.0,-0.0012
3219.0,-0.0012
3218.0,-0.0012
3217.0,-0.0011
3216.0,-0.0011
3215.0,-0.0011
3214.0,-0.0011
3213.0,-0.0011
3212.0,-0.0011
3211.0,-0.0011
3210.0,-0.0011
3209.0,-0.0012
3208.0,-0.0012
3207.0,-0.0013
3206.0,-0.0013
3205.0,-0.0013
3204.0,-0.0013
3203.0,-0.0013
3202.0,-0.0013
3201.0,-0.0013
3200.0,-0.0013
3199.0,-0.0013
3198.0,-0.0013
3197.0,-0.0013
3196.0,-0.0013
3195.0,-0.0013
3194.0,-0.0014
3193.0,-0.0014
3192.0,-0.0014
3191.0,-0.0013
3190.0,-0.0013
3189.0,-0.0012
3188.0,-0.0012
3187.0,-0.0012
3186.0,-0.0013
3185.0,-0.0014
3184.0,-0.0014
3183.0,-0.0013
3182.0,-0.0013
3181.0,-0.0013
3180.0,-0.0013
3179.0,-0.0013
3178.0,-0.0013
3177.0,-0.0012
3176.0,-0.0012
3175.0,-0.0012
3174.0,-0.0013
3173.0,-0.0013
3172.0,-0.0013
3171.0,-0.0013
3170.0,-0.0013
3169.0,-0.0013
3168.0,-0.0012
3167.0,-0.0012
3166.0,-0.0012
3165.0,-0.0012
3164.0,-0.0012
3163.0,-0.0011
3162.0,-0.0011
3161.0,-0.0011
3160.0,-0.0012
3159.0,-0.0012
3158.0,-0.0013
3157.0,-0.0013
3156.0,-0.0013
3155.0,-0.0012
3154.0,-0.0011
3153.0,-0.0012
3152.0,-0.0012
3151.0,-0.0013
3150.0,-0.0013
3149.0,-0.0013
3148.0,-0.0014
3147.0,-0.0014
3146.0,-0.0013
3145.0,-0.0013
3144.0,-0.0012
3143.0,-0.0011
3142.0,-0.0011
3141.0,-0.0011
3140.0,-0.0011
3139.0,-0.0011
3138.0,-0.0011
3137.0,-0.0011
3136.0,-0.0012
3135.0,-0.0014
3134.0,-0.0015
3133.0,-0.0015
3132.0,-0.0015
3131.0,-0.0014
3130.0,-0.0013
3129.0,-0.0012
3128.0,-0.0011
3127.0,-0.001
3126.0,-0.001
3125.0,-0.0011
3124.0,-0.0011
3123.0,-0.0012
3122.0,-0.0011
3121.0,-0.0011
3120.0,-0.0011
3119.0,-0.0011
3118.0,-0.0012
3117.0,-0.0012
3116.0,-0.0012
3115.0,-0.0012
3114.0,-0.0012
3113.0,-0.0012
3112.0,-0.0013
3111.0,-0.0013
3110.0,-0.0012
3109.0,-0.0012
3108.0,-0.0012
3107.0,-0.0012
3106.0,-0.0012
3105.0,-0.0012
3104.0,-0.0013
3103.0,-0.0013
3102.0,-0.0013
3101.0,-0.0013
3100.0,-0.0012
3099.0,-0.0011
3098.0,-0.001
3097.0,-0.001
3096.0,-0.001
3095.0,-0.0011
3094.0,-0.0012
3093.0,-0.0014
3092.0,-0.0014
3091.0,-0.0014
3090.0,-0.0014
3089.0,-0.0013
3088.0,-0.0013
3087.0,-0.0013
3086.0,-0.0013
3085.0,-0.0012
3084.0,-0.0012
3083.0,-0.0011
3082.0,-0.0011
3081.0,-0.0012
3080.0,-0.0012
3079.0,-0.0012
3078.0,-0.0012
3077.0,-0.0012
3076.0,-0.0012
3075.0,-0.0013
3074.0,-0.0013
3073.0,-0.0013
3072.0,-0.0013
3071.0,-0.0014
3070.0,-0.0013
3069.0,-0.0013
3068.0,-0.0013
3067.0,-0.0012
3066.0,-0.0011
3065.0,-0.0011
3064.0,-0.0011
3063.0,-0.0011
3062.0,-0.0012
3061.0,-0.0012
3060.0,-0.0013
3059.0,-0.0013
3058.0,-0.0013
3057.0,-0.0013
3056.0,-0.0013
3055.0,-0.0013
3054.0,-0.0014
3053.0,-0.0014
3052.0,-0.0014
3051.0,-0.0014
3050.0,-0.0014
3049.0,-0.0014
3048.0,-0.0014
3047.0,-0.0014
3046.0,-0.0013
3045.0,-0.0012
3044.0,-0.0011
3043.0,-0.0011
3042.0,-0.0011
3041.0,-0.0012
3040.0,-0.0012
3039.0,-0.0012
3038.0,-0.0012
3037.0,-0.0012
3036.0,-0.0012
3035.0,-0.0012
3034.0,-0.0012
3033.0,-0.0012
3032.0,-0.0012
3031.0,-0.0012
3030.0,-0.0011
3029.0,-0.0011
3028.0,-0.0011
3027.0,-0.0011
3026.0,-0.0011
3025.0,-0.0011
3024.0,-0.0012
3023.0,-0.0012
3022.0,-0.0012
3021.0,-0.0012
3020.0,-0.0012
3019.0,-0.0012
3018.0,-0.0012
3017.0,-0.0012
3016.0,-0.0012
3015.0,-0.0012
3014.0,-0.0012
3013.0,-0.0013
3012.0,-0.0013
3011.0,-0.0013
3010.0,-0.0013
3009.0,-0.0012
3008.0,-0.0012
3007.0,-0.0013
3006.0,-0.0013
3005.0,-0.0013
3004.0,-0.0012
3003.0,-0.0011
3002.0,-0.0011
3001.0,-0.0011
3000.0,-0.0011
2999.0,-0.0011
2998.0,-0.0012
2997.0,-0.0012
2996.0,-0.0012
2995.0,-0.0012
2994.0,-0.0011
2993.0,-0.0011
2992.0,-0.0011
2991.0,-0.0011
2990.0,-0.0012
2989.0,-0.0012
2988.0,-0.0012
2987.0,-0.0012
2986.0,-0.0011
2985.0,-0.0011
2984.0,-0.0012
2983.0,-0.0012
2982.0,-0.0012
2981.0,-0.0012
2980.0,-0.0012
2979.0,-0.0012
2978.0,-0.0011
2977.0,-0.0011
2976.0,-0.0011
2975.0,-0.0011
2974.0,-0.0011
2973.0,-0.0012
2972.0,-0.0012
2971.0,-0.0012
2970.0,-0.0012
2969.0,-0.0013
2968.0,-0.0012
2967.0,-0.0012
2966.0,-0.0011
2965.0,-0.0011
2964.0,-0.0011
2963.0,-0.001
2962.0,-0.001
2961.0,-0.001
2960.0,-0.001
2959.0,-0.0011
2958.0,-0.0011
2957.0,-0.0011
2956.0,-0.001
2955.0,-0.001
2954.0,-0.0009
2953.0,-0.0008
2952.0,-0.0008
2951.0,-0.0009
2950.0,-0.001
2949.0,-0.0011
2948.0,-0.0011
2947.0,-0.0012
2946.0,-0.0012
2945.0,-0.0012
2944.0,-0.0012
2943.0,-0.0012
2942.0,-0.0011
2941.0,-0.0011
2940.0,-0.001
2939.0,-0.001
2938.0,-0.001
2937.0,-0.0011
2936.0,-0.0011
2935.0,-0.0012
2934.0,-0.0012
2933.0,-0.0012
2932.0,-0.0012
2931.0,-0.0012
2930.0,-0.0012
2929.0,-0.0012
2928.0,-0.0011
2927.0,-0.0011
2926.0,-0.0011
2925.0,-0.0011
2924.0,-0.0011
2923.0,-0.0011
2922.0,-0.0011
2921.0,-0.001
2920.0,-0.001
2919.0,-0.0011
2918.0,-0.0012
2917.0,-0.0013
2916.0,-0.0014
2915.0,-0.0013
2914.0,-0.0013
2913.0,-0.0012
2912.0,-0.0012
2911.0,-0.0012
2910.0,-0.0012
2909.0,-0.0012
2908.0,-0.0011
2907.0,-0.0011
2906.0,-0.001
2905.0,-0.001
2904.0,-0.001
2903.0,-0.0009
2902.0,-0.0009
2901.0,-0.0009
2900.0,-0.0009
2899.0,-0.0009
2898.0,-0.001
2897.0,-0.0011
2896.0,-0.0011
2895.0,-0.0011
2894.0,-0.0011
2893.0,-0.0011
2892.0,-0.0011
2891.0,-0.0011
2890.0,-0.0011
2889.0,-0.0011
2888.0,-0.0012
2887.0,-0.0011
2886.0,-0.0011
2885.0,-0.0011
2884.0,-0.0011
2883.0,-0.0011
2882.0,-0.0011
2881.0,-0.0011
2880.0,-0.0011
2879.0,-0.0011
2878.0,-0.0012
2877.0,-0.0012
2876.0,-0.0011
2875.0,-0.0011
2874.0,-0.0011
2873.0,-0.0011
2872.0,-0.0011
2871.0,-0.001
2870.0,-0.001
2869.0,-0.001
2868.0,-0.001
2867.0,-0.001
2866.0,-0.0011
2865.0,-0.0011
2864.0,-0.0011
2863.0,-0.001
2862.0,-0.001
2861.0,-0.001
2860.0,-0.0009
2859.0,-0.0009
2858.0,-0.0009
2857.0,-0.0009
2856.0,-0.0009
2855.0,-0.001
2854.0,-0.001
2853.0,-0.0009
2852.0,-0.0009
2851.0,-0.0009
2850.0,-0.0009
2849.0,-0.001
2848.0,-0.001
2847.0,-0.0011
2846.0,-0.0011
2845.0,-0.0011
2844.0,-0.0011
2843.0,-0.0011
2842.0,-0.001
2841.0,-0.001
2840.0,-0.001
2839.0,-0.001
2838.0,-0.001
2837.0,-0.001
2836.0,-0.001
2835.0,-0.001
2834.0,-0.001
2833.0,-0.001
2832.0,-0.001
2831.0,-0.001
2830.0,-0.001
2829.0,-0.001
2828.0,-0.001
2827.0,-0.001
2826.0,-0.0011
2825.0,-0.0011
2824.0,-0.001
2823.0,-0.001
2822.0,-0.001
2821.0,-0.001
2820.0,-0.001
2819.0,-0.001
2818.0,-0.001
2817.0,-0.001
2816.0,-0.0009
2815.0,-0.0009
2814.0,-0.0009
2813.0,-0.0009
2812.0,-0.0009
2811.0,-0.0009
2810.0,-0.001
2809.0,-0.0011
2808.0,-0.0011
2807.0,-0.0012
2806.0,-0.0012
2805.0,-0.0011
2804.0,-0.0011
2803.0,-0.0011
2802.0,-0.001
2801.0,-0.001
2800.0,-0.001
2799.0,-0.001
2798.0,-0.0011
2797.0,-0.0011
2796.0,-0.0011
2795.0,-0.0011
2794.0,-0.0011
2793.0,-0.0011
2792.0,-0.001
2791.0,-0.001
2790.0,-0.001
2789.0,-0.001
2788.0,-0.001
2787.0,-0.001
2786.0,-0.001
2785.0,-0.001
2784.0,-0.001
2783.0,-0.001
2782.0,-0.001
2781.0,-0.001
2780.0,-0.001
2779.0,-0.001
2778.0,-0.001
2777.0,-0.001
2776.0,-0.001
2775.0,-0.0009
2774.0,-0.0009
2773.0,-0.0009
2772.0,-0.0009
2771.0,-0.0009
2770.0,-0.0009
2769.0,-0.0009
2768.0,-0.001
2767.0,-0.001
2766.0,-0.001
2765.0,-0.0009
2764.0,-0.0009
2763.0,-0.001
2762.0,-0.001
2761.0,-0.001
2760.0,-0.0009
2759.0,-0.0009
2758.0,-0.0008
2757.0,-0.0008
2756.0,-0.0008
2755.0,-0.0009
2754.0,-0.001
2753.0,-0.0011
2752.0,-0.0011
2751.0,-0.0011
2750.0,-0.001
2749.0,-0.001
2748.0,-0.0009
2747.0,-0.0009
2746.0,-0.0009
2745.0,-0.0009
2744.0,-0.0009
2743.0,-0.0009
2742.0,-0.0009
2741.0,-0.0009
2740.0,-0.0009
2739.0,-0.0009
2738.0,-0.0009
2737.0,-0.001
2736.0,-0.001
2735.0,-0.001
2734.0,-0.001
2733.0,-0.0011
2732.0,-0.0011
2731.0,-0.0011
2730.0,-0.0011
2729.0,-0.0011
2728.0,-0.001
2727.0,-0.0009
2726.0,-0.0009
2725.0,-0.0009
2724.0,-0.0009
2723.0,-0.001
2722.0,-0.001
2721.0,-0.0011
2720.0,-0.0011
2719.0,-0.0011
2718.0,-0.001
2717.0,-0.001
2716.0,-0.001
2715.0,-0.0011
2714.0,-0.0011
2713.0,-0.001
2712.0,-0.001
2711.0,-0.001
2710.0,-0.001
2709.0,-0.0009
2708.0,-0.0009
2707.0,-0.0009
2706.0,-0.001
2705.0,-0.001
2704.0,-0.001
2703.0,-0.001
2702.0,-0.0009
2701.0,-0.0008
2700.0,-0.0008
2699.0,-0.0008
2698.0,-0.0009
2697.0,-0.0009
2696.0,-0.001
2695.0,-0.001
2694.0,-0.0009
2693.0,-0.0009
2692.0,-0.0008
2691.0,-0.0007
2690.0,-0.0007
2689.0,-0.0008
2688.0,-0.0009
2687.0,-0.0009
2686.0,-0.001
2685.0,-0.001
2684.0,-0.001
2683.0,-0.001
2682.0,-0.001
2681.0,-0.001
2680.0,-0.001
2679.0,-0.001
2678.0,-0.001
2677.0,-0.0011
2676.0,-0.0011
2675.0,-0.001
2674.0,-0.001
2673.0,-0.001
2672.0,-0.001
2671.0,-0.001
2670.0,-0.0011
2669.0,-0.001
2668.0,-0.001
2667.0,-0.001
2666.0,-0.001
2665.0,-0.0009
2664.0,-0.0009
2663.0,-0.0008
2662.0,-0.0008
2661.0,-0.0009
2660.0,-0.0009
2659.0,-0.0009
2658.0,-0.0009
2657.0,-0.0009
2656.0,-0.0009
2655.0,-0.0008
2654.0,-0.0008
2653.0,-0.0008
2652.0,-0.0008
2651.0,-0.0009
2650.0,-0.0009
2649.0,-0.0009
2648.0,-0.0008
2647.0,-0.0008
2646.0,-0.0008
2645.0,-0.0008
2644.0,-0.0008
2643.0,-0.0009
2642.0,-0.0009
2641.0,-0.0009
2640.0,-0.0009
2639.0,-0.001
2638.0,-0.001
2637.0,-0.001
2636.0,-0.0009
2635.0,-0.0009
2634.0,-0.0009
2633.0,-0.0009
2632.0,-0.0009
2631.0,-0.0009
2630.0,-0.0008
2629.0,-0.0008
2628.0,-0.0008
2627.0,-0.0008
2626.0,-0.0009
2625.0,-0.0009
2624.0,-0.0009
2623.0,-0.001
2622.0,-0.001
2621.0,-0.001
2620.0,-0.001
2619.0,-0.001
2618.0,-0.001
2617.0,-0.001
2616.0,-0.0009
2615.0,-0.0008
2614.0,-0.0008
2613.0,-0.0008
2612.0,-0.0008
2611.0,-0.0008
2610.0,-0.0008
2609.0,-0.0009
2608.0,-0.0008
2607.0,-0.0008
2606.0,-0.0008
2605.0,-0.0008
2604.0,-0.0007
2603.0,-0.0007
2602.0,-0.0008
2601.0,-0.0008
2600.0,-0.0009
2599.0,-0.0009
2598.0,-0.0009
2597.0,-0.0009
2596.0,-0.0009
2595.0,-0.0009
2594.0,-0.0009
2593.0,-0.0008
2592.0,-0.0008
2591.0,-0.0008
2590.0,-0.0008
2589.0,-0.0009
2588.0,-0.0009
2587.0,-0.0009
2586.0,-0.0009
2585.0,-0.0009
2584.0,-0.0009
2583.0,-0.0009
2582.0,-0.001
2581.0,-0.001
2580.0,-0.001
2579.0,-0.001
2578.0,-0.001
2577.0,-0.0009
2576.0,-0.0009
2575.0,-0.0008
2574.0,-0.0008
2573.0,-0.0008
2572.0,-0.0007
2571.0,-0.0007
2570.0,-0.0007
2569.0,-0.0008
2568.0,-0.0009
2567.0,-0.0009
2566.0,-0.001
2565.0,-0.0009
2564.0,-0.0009
2563.0,-0.0008
2562.0,-0.0008
2561.0,-0.0008
2560.0,-0.0008
2559.0,-0.0008
2558.0,-0.0009
2557.0,-0.0009
2556.0,-0.0009
2555.0,-0.0009
2554.0,-0.0009
2553.0,-0.0009
2552.0,-0.0009
2551.0,-0.0009
2550.0,-0.0009
2549.0,-0.0009
2548.0,-0.0008
2547.0,-0.0008
2546.0,-0.0007
2545.0,-0.0007
2544.0,-0.0007
2543.0,-0.0007
2542.0,-0.0008
2541.0,-0.0008
2540.0,-0.0007
2539.0,-0.0007
2538.0,-0.0007
2537.0,-0.0007
2536.0,-0.0007
2535.0,-0.0008
2534.0,-0.0008
2533.0,-0.0008
2532.0,-0.0008
2531.0,-0.0008
2530.0,-0.0008
2529.0,-0.0008
2528.0,-0.0008
2527.0,-0.0008
2526.0,-0.0007
2525.0,-0.0007
2524.0,-0.0007
2523.0,-0.0007
2522.0,-0.0007
2521.0,-0.0008
2520.0,-0.0008
2519.0,-0.0007
2518.0,-0.0007
2517.0,-0.0007
2516.0,-0.0008
2515.0,-0.0008
2514.0,-0.0008
2513.0,-0.0007
2512.0,-0.0007
2511.0,-0.0007
2510.0,-0.0007
2509.0,-0.0007
2508.0,-0.0008
2507.0,-0.0008
2506.0,-0.0008
2505.0,-0.0008
2504.0,-0.0008
2503.0,-0.0008
2502.0,-0.0007
2501.0,-0.0007
2500.0,-0.0007
2499.0,-0.0007
2498.0,-0.0007
2497.0,-0.0007
2496.0,-0.0007
2495.0,-0.0007
2494.0,-0.0007
2493.0,-0.0008
2492.0,-0.0008
2491.0,-0.0007
2490.0,-0.0007
2489.0,-0.0007
2488.0,-0.0007
2487.0,-0.0007
2486.0,-0.0007
2485.0,-0.0008
2484.0,-0.0008
2483.0,-0.0007
2482.0,-0.0008
2481.0,-0.0008
2480.0,-0.0008
2479.0,-0.0009
2478.0,-0.0008
2477.0,-0.0007
2476.0,-0.0007
2475.0,-0.0007
2474.0,-0.0008
2473.0,-0.0008
2472.0,-0.0009
2471.0,-0.0009
2470.0,-0.0009
2469.0,-0.0008
2468.0,-0.0008
2467.0,-0.0007
2466.0,-0.0007
2465.0,-0.0007
2464.0,-0.0008
2463.0,-0.0008
2462.0,-0.0008
2461.0,-0.0008
2460.0,-0.0008
2459.0,-0.0008
2458.0,-0.0008
2457.0,-0.0007
2456.0,-0.0007
2455.0,-0.0008
2454.0,-0.0008
2453.0,-0.0008
2452.0,-0.0008
2451.0,-0.0008
2450.0,-0.0007
2449.0,-0.0007
2448.0,-0.0006
2447.0,-0.0006
2446.0,-0.0006
2445.0,-0.0007
2444.0,-0.0007
2443.0,-0.0007
2442.0,-0.0007
2441.0,-0.0008
2440.0,-0.0008
2439.0,-0.0009
2438.0,-0.0009
2437.0,-0.0009
2436.0,-0.0008
2435.0,-0.0008
2434.0,-0.0007
2433.0,-0.0007
2432.0,-0.0008
2431.0,-0.0008
2430.0,-0.0008
2429.0,-0.0008
2428.0,-0.0007
2427.0,-0.0007
2426.0,-0.0007
2425.0,-0.0007
2424.0,-0.0007
2423.0,-0.0007
2422.0,-0.0007
2421.0,-0.0008
2420.0,-0.0007
2419.0,-0.0007
2418.0,-0.0007
2417.0,-0.0007
2416.0,-0.0007
2415.0,-0.0007
2414.0,-0.0007
2413.0,-0.0006
2412.0,-0.0006
2411.0,-0.0006
2410.0,-0.0006
2409.0,-0.0007
2408.0,-0.0007
2407.0,-0.0008
2406.0,-0.0008
2405.0,-0.0008
2404.0,-0.0008
2403.0,-0.0007
2402.0,-0.0007
2401.0,-0.0006
2400.0,-0.0006
2399.0,-0.0006
2398.0,-0.0006
2397.0,-0.0006
2396.0,-0.0007
2395.0,-0.0008
2394.0,-0.0008
2393.0,-0.0009
2392.0,-0.0009
2391.0,-0.0008
2390.0,-0.0008
2389.0,-0.0007
2388.0,-0.0006
2387.0,-0.0005
2386.0,-0.0005
2385.0,-0.0005
2384.0,-0.0005
2383.0,-0.0004
2382.0,-0.0004
2381.0,-0.0004
2380.0,-0.0004
2379.0,-0.0005
2378.0,-0.0004
2377.0,-0.0004
2376.0,-0.0004
2375.0,-0.0003
2374.0,-0.0001
2373.0,0.0003
2372.0,0.0007
2371.0,0.0008
2370.0,0.0006
2369.0,0.0001
2368.0,-0.0004
2367.0,-0.0006
2366.0,-0.0009
2365.0,-0.0012
2364.0,-0.001
2363.0,-0.0002
2362.0,0.0006
2361.0,0.0004
2360.0,-0.0007
2359.0,-0.0016
2358.0,-0.0016
2357.0,-0.0008
2356.0,0.0001
2355.0,0.0006
2354.0,0.0007
2353.0,0.0004
2352.0,0.0002
2351.0,0.0001
2350.0,-0.0
2349.0,-0.0001
2348.0,-0.0001
2347.0,0.0001
2346.0,0.0002
2345.0,-0.0001
2344.0,-0.0009
2343.0,-0.0015
2342.0,-0.0015
2341.0,-0.0009
2340.0,-0.0002
2339.0,0.0001
2338.0,0.0002
2337.0,0.0003
2336.0,0.0005
2335.0,0.0008
2334.0,0.0012
2333.0,0.0013
2332.0,0.001
2331.0,0.0006
2330.0,0.0004
2329.0,0.0002
2328.0,0.0
2327.0,-0.0002
2326.0,-0.0004
2325.0,-0.0003
2324.0,-0.0001
2323.0,-0.0
2322.0,-0.0001
2321.0,-0.0002
2320.0,-0.0002
2319.0,-0.0002
2318.0,-0.0002
2317.0,-0.0002
2316.0,-0.0003
2315.0,-0.0003
2314.0,-0.0003
2313.0,-0.0004
2312.0,-0.0004
2311.0,-0.0005
2310.0,-0.0004
2309.0,-0.0003
2308.0,-0.0001
2307.0,-0.0001
2306.0,-0.0
2305.0,-0.0001
2304.0,-0.0001
2303.0,-0.0001
2302.0,-0.0001
2301.0,-0.0001
2300.0,-0.0001
2299.0,-0.0002
2298.0,-0.0002
2297.0,-0.0002
2296.0,-0.0002
2295.0,-0.0002
2294.0,-0.0003
2293.0,-0.0004
2292.0,-0.0004
2291.0,-0.0005
2290.0,-0.0005
2289.0,-0.0005
2288.0,-0.0005
2287.0,-0.0005
2286.0,-0.0005
2285.0,-0.0005
2284.0,-0.0004
2283.0,-0.0004
2282.0,-0.0004
2281.0,-0.0004
2280.0,-0.0005
2279.0,-0.0005
2278.0,-0.0006
2277.0,-0.0006
2276.0,-0.0006
2275.0,-0.0006
2274.0,-0.0006
2273.0,-0.0006
2272.0,-0.0006
2271.0,-0.0006
2270.0,-0.0005
2269.0,-0.0005
2268.0,-0.0005
2267.0,-0.0005
2266.0,-0.0005
2265.0,-0.0005
2264.0,-0.0005
2263.0,-0.0005
2262.0,-0.0005
2261.0,-0.0005
2260.0,-0.0005
2259.0,-0.0005
2258.0,-0.0005
2257.0,-0.0005
2256.0,-0.0005
2255.0,-0.0006
2254.0,-0.0006
2253.0,-0.0006
2252.0,-0.0005
2251.0,-0.0005
2250.0,-0.0005
2249.0,-0.0005
2248.0,-0.0005
2247.0,-0.0005
2246.0,-0.0006
2245.0,-0.0006
2244.0,-0.0006
2243.0,-0.0005
2242.0,-0.0005
2241.0,-0.0005
2240.0,-0.0005
2239.0,-0.0005
2238.0,-0.0005
2237.0,-0.0005
2236.0,-0.0005
2235.0,-0.0005
2234.0,-0.0006
2233.0,-0.0006
2232.0,-0.0006
2231.0,-0.0005
2230.0,-0.0005
2229.0,-0.0005
2228.0,-0.0004
2227.0,-0.0004
2226.0,-0.0005
2225.0,-0.0006
2224.0,-0.0007
2223.0,-0.0007
2222.0,-0.0007
2221.0,-0.0006
2220.0,-0.0006
2219.0,-0.0006
2218.0,-0.0006
2217.0,-0.0006
2216.0,-0.0006
2215.0,-0.0005
2214.0,-0.0005
2213.0,-0.0006
2212.0,-0.0006
2211.0,-0.0005
2210.0,-0.0005
2209.0,-0.0005
2208.0,-0.0005
2207.0,-0.0005
2206.0,-0.0005
2205.0,-0.0006
2204.0,-0.0006
2203.0,-0.0006
2202.0,-0.0006
2201.0,-0.0006
2200.0,-0.0006
2199.0,-0.0006
2198.0,-0.0006
2197.0,-0.0006
2196.0,-0.0006
2195.0,-0.0006
2194.0,-0.0006
2193.0,-0.0006
2192.0,-0.0006
2191.0,-0.0006
2190.0,-0.0006
2189.0,-0.0006
2188.0,-0.0006
2187.0,-0.0006
2186.0,-0.0005
2185.0,-0.0005
2184.0,-0.0004
2183.0,-0.0005
2182.0,-0.0005
2181.0,-0.0006
2180.0,-0.0006
2179.0,-0.0006
2178.0,-0.0006
2177.0,-0.0006
2176.0,-0.0006
2175.0,-0.0006
2174.0,-0.0007
2173.0,-0.0007
2172.0,-0.0007
2171.0,-0.0007
2170.0,-0.0006
2169.0,-0.0006
2168.0,-0.0006
2167.0,-0.0006
2166.0,-0.0006
2165.0,-0.0006
2164.0,-0.0006
2163.0,-0.0006
2162.0,-0.0006
2161.0,-0.0006
2160.0,-0.0006
2159.0,-0.0005
2158.0,-0.0005
2157.0,-0.0005
2156.0,-0.0005
2155.0,-0.0005
2154.0,-0.0005
2153.0,-0.0005
2152.0,-0.0005
2151.0,-0.0005
2150.0,-0.0005
2149.0,-0.0005
2148.0,-0.0006
2147.0,-0.0006
2146.0,-0.0006
2145.0,-0.0006
2144.0,-0.0006
2143.0,-0.0005
2142.0,-0.0005
2141.0,-0.0004
2140.0,-0.0004
2139.0,-0.0004
2138.0,-0.0005
2137.0,-0.0005
2136.0,-0.0006
2135.0,-0.0006
2134.0,-0.0006
2133.0,-0.0006
2132.0,-0.0006
2131.0,-0.0006
2130.0,-0.0007
2129.0,-0.0007
2128.0,-0.0006
2127.0,-0.0006
2126.0,-0.0006
2125.0,-0.0006
2124.0,-0.0005
2123.0,-0.0005
2122.0,-0.0005
2121.0,-0.0004
2120.0,-0.0004
2119.0,-0.0004
2118.0,-0.0004
2117.0,-0.0005
2116.0,-0.0005
2115.0,-0.0005
2114.0,-0.0006
2113.0,-0.0006
2112.0,-0.0006
2111.0,-0.0007
2110.0,-0.0007
2109.0,-0.0007
2108.0,-0.0006
2107.0,-0.0005
2106.0,-0.0005
2105.0,-0.0005
2104.0,-0.0005
2103.0,-0.0005
2102.0,-0.0005
2101.0,-0.0004
2100.0,-0.0005
2099.0,-0.0005
2098.0,-0.0005
2097.0,-0.0005
2096.0,-0.0005
2095.0,-0.0005
2094.0,-0.0005
2093.0,-0.0005
2092.0,-0.0005
2091.0,-0.0005
2090.0,-0.0006
2089.0,-0.0006
2088.0,-0.0006
2087.0,-0.0006
2086.0,-0.0006
2085.0,-0.0006
2084.0,-0.0006
2083.0,-0.0006
2082.0,-0.0006
2081.0,-0.0006
2080.0,-0.0006
2079.0,-0.0006
2078.0,-0.0006
2077.0,-0.0005
2076.0,-0.0005
2075.0,-0.0005
2074.0,-0.0005
2073.0,-0.0005
2072.0,-0.0005
2071.0,-0.0005
2070.0,-0.0005
2069.0,-0.0005
2068.0,-0.0005
2067.0,-0.0005
2066.0,-0.0005
2065.0,-0.0004
2064.0,-0.0005
2063.0,-0.0005
2062.0,-0.0006
2061.0,-0.0006
2060.0,-0.0006
2059.0,-0.0005
2058.0,-0.0005
2057.0,-0.0005
2056.0,-0.0005
2055.0,-0.0005
2054.0,-0.0006
2053.0,-0.0006
2052.0,-0.0006
2051.0,-0.0006
2050.0,-0.0006
2049.0,-0.0006
2048.0,-0.0006
2047.0,-0.0005
2046.0,-0.0005
2045.0,-0.0005
2044.0,-0.0005
2043.0,-0.0005
2042.0,-0.0005
2041.0,-0.0006
2040.0,-0.0006
2039.0,-0.0006
2038.0,-0.0006
2037.0,-0.0006
2036.0,-0.0006
2035.0,-0.0005
2034.0,-0.0005
2033.0,-0.0005
2032.0,-0.0005
2031.0,-0.0004
2030.0,-0.0004
2029.0,-0.0004
2028.0,-0.0005
2027.0,-0.0005
2026.0,-0.0005
2025.0,-0.0005
2024.0,-0.0005
2023.0,-0.0005
2022.0,-0.0005
2021.0,-0.0005
2020.0,-0.0005
2019.0,-0.0005
2018.0,-0.0006
2017.0,-0.0005
2016.0,-0.0005
2015.0,-0.0005
2014.0,-0.0005
2013.0,-0.0005
2012.0,-0.0005
2011.0,-0.0005
2010.0,-0.0006
2009.0,-0.0005
2008.0,-0.0005
2007.0,-0.0006
2006.0,-0.0006
2005.0,-0.0006
2004.0,-0.0006
2003.0,-0.0006
2002.0,-0.0006
2001.0,-0.0006
2000.0,-0.0006
1999.0,-0.0006
1998.0,-0.0006
1997.0,-0.0006
1996.0,-0.0006
1995.0,-0.0005
1994.0,-0.0006
1993.0,-0.0006
1992.0,-0.0006
1991.0,-0.0006
1990.0,-0.0006
1989.0,-0.0006
1988.0,-0.0006
1987.0,-0.0006
1986.0,-0.0005
1985.0,-0.0005
1984.0,-0.0004
1983.0,-0.0004
1982.0,-0.0004
1981.0,-0.0005
1980.0,-0.0005
1979.0,-0.0005
1978.0,-0.0005
1977.0,-0.0005
1976.0,-0.0005
1975.0,-0.0005
1974.0,-0.0005
1973.0,-0.0005
1972.0,-0.0005
1971.0,-0.0005
1970.0,-0.0005
1969.0,-0.0005
1968.0,-0.0006
1967.0,-0.0006
1966.0,-0.0006
1965.0,-0.0006
1964.0,-0.0005
1963.0,-0.0005
1962.0,-0.0005
1961.0,-0.0005
1960.0,-0.0005
1959.0,-0.0005
1958.0,-0.0005
1957.0,-0.0005
1956.0,-0.0005
1955.0,-0.0005
1954.0,-0.0005
1953.0,-0.0005
1952.0,-0.0005
1951.0,-0.0005
1950.0,-0.0005
1949.0,-0.0005
1948.0,-0.0005
1947.0,-0.0005
1946.0,-0.0005
1945.0,-0.0005
1944.0,-0.0005
1943.0,-0.0005
1942.0,-0.0005
1941.0,-0.0005
1940.0,-0.0005
1939.0,-0.0005
1938.0,-0.0004
1937.0,-0.0004
1936.0,-0.0004
1935.0,-0.0004
1934.0,-0.0005
1933.0,-0.0005
1932.0,-0.0005
1931.0,-0.0005
1930.0,-0.0005
1929.0,-0.0005
1928.0,-0.0005
1927.0,-0.0005
1926.0,-0.0005
1925.0,-0.0005
1924.0,-0.0006
1923.0,-0.0006
1922.0,-0.0005
1921.0,-0.0005
1920.0,-0.0005
1919.0,-0.0005
1918.0,-0.0006
1917.0,-0.0006
1916.0,-0.0006
1915.0,-0.0006
1914.0,-0.0006
1913.0,-0.0006
1912.0,-0.0006
1911.0,-0.0005
1910.0,-0.0005
1909.0,-0.0004
1908.0,-0.0004
1907.0,-0.0004
1906.0,-0.0005
1905.0,-0.0005
1904.0,-0.0006
1903.0,-0.0006
1902.0,-0.0006
1901.0,-0.0006
1900.0,-0.0006
1899.0,-0.0007
1898.0,-0.0007
1897.0,-0.0007
1896.0,-0.0007
1895.0,-0.0007
1894.0,-0.0007
1893.0,-0.0007
1892.0,-0.0007
1891.0,-0.0007
1890.0,-0.0007
1889.0,-0.0007
1888.0,-0.0007
1887.0,-0.0007
1886.0,-0.0006
1885.0,-0.0006
1884.0,-0.0006
1883.0,-0.0006
1882.0,-0.0006
1881.0,-0.0006
1880.0,-0.0006
1879.0,-0.0007
1878.0,-0.0007
1877.0,-0.0007
1876.0,-0.0007
1875.0,-0.0007
1874.0,-0.0007
1873.0,-0.0006
1872.0,-0.0006
1871.0,-0.0006
1870.0,-0.0006
1869.0,-0.0006
1868.0,-0.0006
1867.0,-0.0006
1866.0,-0.0007
1865.0,-0.0007
1864.0,-0.0007
1863.0,-0.0007
1862.0,-0.0007
1861.0,-0.0007
1860.0,-0.0007
1859.0,-0.0007
1858.0,-0.0007
1857.0,-0.0007
1856.0,-0.0007
1855.0,-0.0007
1854.0,-0.0007
1853.0,-0.0007
1852.0,-0.0008
1851.0,-0.0008
1850.0,-0.0008
1849.0,-0.0008
1848.0,-0.0008
1847.0,-0.0008
1846.0,-0.0008
1845.0,-0.0008
1844.0,-0.0008
1843.0,-0.0008
1842.0,-0.0008
1841.0,-0.0008
1840.0,-0.0008
1839.0,-0.0008
1838.0,-0.0009
1837.0,-0.0009
1836.0,-0.0009
1835.0,-0.0009
1834.0,-0.0009
1833.0,-0.0009
1832.0,-0.0009
1831.0,-0.0008
1830.0,-0.0008
1829.0,-0.0008
1828.0,-0.0008
1827.0,-0.0008
1826.0,-0.0008
1825.0,-0.0008
1824.0,-0.0008
1823.0,-0.0008
1822.0,-0.0008
1821.0,-0.0007
1820.0,-0.0008
1819.0,-0.0008
1818.0,-0.0009
1817.0,-0.0009
1816.0,-0.001
1815.0,-0.001
1814.0,-0.001
1813.0,-0.001
1812.0,-0.001
1811.0,-0.0009
1810.0,-0.0009
1809.0,-0.0009
1808.0,-0.0009
1807.0,-0.0009
1806.0,-0.001
1805.0,-0.001
1804.0,-0.001
1803.0,-0.001
1802.0,-0.001
1801.0,-0.001
1800.0,-0.001
1799.0,-0.0011
1798.0,-0.0011
1797.0,-0.0011
1796.0,-0.0011
1795.0,-0.0011
1794.0,-0.0011
1793.0,-0.0012
1792.0,-0.0013
1791.0,-0.0013
1790.0,-0.0012
1789.0,-0.0012
1788.0,-0.0012
1787.0,-0.0012
1786.0,-0.0012
1785.0,-0.0012
1784.0,-0.0013
1783.0,-0.0013
1782.0,-0.0013
1781.0,-0.0013
1780.0,-0.0013
1779.0,-0.0013
1778.0,-0.0013
1777.0,-0.0013
1776.0,-0.0013
1775.0,-0.0013
1774.0,-0.0012
1773.0,-0.0012
1772.0,-0.0012
1771.0,-0.0012
1770.0,-0.0013
1769.0,-0.0013
1768.0,-0.0014
1767.0,-0.0014
1766.0,-0.0014
1765.0,-0.0013
1764.0,-0.0013
1763.0,-0.0014
1762.0,-0.0013
1761.0,-0.0013
1760.0,-0.0013
1759.0,-0.0013
1758.0,-0.0012
1757.0,-0.0011
1756.0,-0.0011
1755.0,-0.001
1754.0,-0.001
1753.0,-0.001
1752.0,-0.0009
1751.0,-0.0009
1750.0,-0.0008
1749.0,-0.0006
1748.0,-0.0004
1747.0,-0.0002
1746.0,-0.0
1745.0,0.0002
1744.0,0.0004
1743.0,0.0007
1742.0,0.001
1741.0,0.0013
1740.0,0.0017
1739.0,0.0021
1738.0,0.0025
1737.0,0.0028
1736.0,0.0031
1735.0,0.0035
1734.0,0.0041
1733.0,0.0045
1732.0,0.0049
1731.0,0.0053
1730.0,0.0056
1729.0,0.0059
1728.0,0.0061
1727.0,0.0064
1726.0,0.0066
1725.0,0.0068
1724.0,0.0071
1723.0,0.0072
1722.0,0.0074
1721.0,0.0075
1720.0,0.0076
1719.0,0.0077
1718.0,0.0078
1717.0,0.0079
1716.0,0.008
1715.0,0.0081
1714.0,0.0082
1713.0,0.0082
1712.0,0.0081
1711.0,0.008
1710.0,0.0079
1709.0,0.0077
1708.0,0.0075
1707.0,0.0073
1706.0,0.0069
1705.0,0.0065
1704.0,0.0062
1703.0,0.006
1702.0,0.0058
1701.0,0.0054
1700.0,0.005
1699.0,0.0047
1698.0,0.0045
1697.0,0.0044
1696.0,0.0042
1695.0,0.0042
1694.0,0.0042
1693.0,0.0042
1692.0,0.0041
1691.0,0.004
1690.0,0.0038
1689.0,0.0037
1688.0,0.0036
1687.0,0.0035
1686.0,0.0034
1685.0,0.0033
1684.0,0.0032
1683.0,0.0032
1682.0,0.0031
1681.0,0.0031
1680.0,0.003
1679.0,0.003
1678.0,0.003
1677.0,0.003
1676.0,0.0029
1675.0,0.0029
1674.0,0.0028
1673.0,0.0029
1672.0,0.0028
1671.0,0.0027
1670.0,0.0026
1669.0,0.0026
1668.0,0.0026
1667.0,0.0026
1666.0,0.0026
1665.0,0.0027
1664.0,0.0027
1663.0,0.0026
1662.0,0.0024
1661.0,0.0023
1660.0,0.0022
1659.0,0.0022
1658.0,0.0022
1657.0,0.0022
1656.0,0.0022
1655.0,0.0021
1654.0,0.0021
1653.0,0.0021
1652.0,0.0021
1651.0,0.002
1650.0,0.002
1649.0,0.0019
1648.0,0.0018
1647.0,0.0018
1646.0,0.0018
1645.0,0.0018
1644.0,0.0018
1643.0,0.0018
1642.0,0.0017
1641.0,0.0017
1640.0,0.0017
1639.0,0.0017
1638.0,0.0017
1637.0,0.0017
1636.0,0.0017
1635.0,0.0017
1634.0,0.0016
1633.0,0.0016
1632.0,0.0016
1631.0,0.0016
1630.0,0.0016
1629.0,0.0017
1628.0,0.0017
1627.0,0.0017
1626.0,0.0017
1625.0,0.0016
1624.0,0.0016
1623.0,0.0016
1622.0,0.0015
1621.0,0.0015
1620.0,0.0014
1619.0,0.0013
1618.0,0.0012
1617.0,0.0012
1616.0,0.0013
1615.0,0.0014
1614.0,0.0015
1613.0,0.0015
1612.0,0.0015
1611.0,0.0014
1610.0,0.0015
1609.0,0.0015
1608.0,0.0015
1607.0,0.0014
1606.0,0.0014
1605.0,0.0014
1604.0,0.0014
1603.0,0.0014
1602.0,0.0013
1601.0,0.0012
1600.0,0.0012
1599.0,0.0012
1598.0,0.0012
1597.0,0.0012
1596.0,0.0011
1595.0,0.0011
1594.0,0.0011
1593.0,0.0011
1592.0,0.0011
1591.0,0.0011
1590.0,0.0011
1589.0,0.0011
1588.0,0.001
1587.0,0.001
1586.0,0.001
1585.0,0.001
1584.0,0.001
1583.0,0.0011
1582.0,0.0012
1581.0,0.0014
1580.0,0.0015
1579.0,0.0015
1578.0,0.0016
1577.0,0.0016
1576.0,0.0016
1575.0,0.0015
1574.0,0.0015
1573.0,0.0014
1572.0,0.0014
1571.0,0.0014
1570.0,0.0014
1569.0,0.0013
1568.0,0.0012
1567.0,0.0012
1566.0,0.0011
1565.0,0.0011
1564.0,0.0011
1563.0,0.001
1562.0,0.0008
1561.0,0.0007
1560.0,0.0004
1559.0,0.0004
1558.0,0.0006
1557.0,0.0007
1556.0,0.0007
1555.0,0.0008
1554.0,0.0008
1553.0,0.0008
1552.0,0.0008
1551.0,0.0008
1550.0,0.0008
1549.0,0.0008
1548.0,0.0008
1547.0,0.0007
1546.0,0.0006
1545.0,0.0006
1544.0,0.0006
1543.0,0.0006
1542.0,0.0006
1541.0,0.0006
1540.0,0.0006
1539.0,0.0007
1538.0,0.0006
1537.0,0.0006
1536.0,0.0007
1535.0,0.0007
1534.0,0.0006
1533.0,0.0006
1532.0,0.0006
1531.0,0.0006
1530.0,0.0006
1529.0,0.0005
1528.0,0.0005
1527.0,0.0004
1526.0,0.0003
1525.0,0.0003
1524.0,0.0003
1523.0,0.0003
1522.0,0.0003
1521.0,0.0003
1520.0,0.0004
1519.0,0.0004
1518.0,0.0003
1517.0,0.0003
1516.0,0.0003
1515.0,0.0003
1514.0,0.0002
1513.0,0.0002
1512.0,0.0003
1511.0,0.0003
1510.0,0.0003
1509.0,0.0002
1508.0,0.0003
1507.0,0.0006
1506.0,0.001
1505.0,0.0012
1504.0,0.0012
1503.0,0.0012
1502.0,0.0012
1501.0,0.0011
1500.0,0.001
1499.0,0.0009
1498.0,0.0007
1497.0,0.0006
1496.0,0.0005
1495.0,0.0004
1494.0,0.0004
1493.0,0.0003
1492.0,0.0003
1491.0,0.0003
1490.0,0.0003
1489.0,0.0002
1488.0,0.0002
1487.0,0.0002
1486.0,0.0002
1485.0,0.0002
1484.0,0.0002
1483.0,0.0002
1482.0,0.0002
1481.0,0.0002
1480.0,0.0002
1479.0,0.0002
1478.0,0.0001
1477.0,0.0001
1476.0,0.0001
1475.0,0.0001
1474.0,0.0001
1473.0,0.0001
1472.0,0.0001
1471.0,0.0002
1470.0,0.0002
1469.0,0.0002
1468.0,0.0002
1467.0,0.0002
1466.0,0.0003
1465.0,0.0004
1464.0,0.0005
1463.0,0.0005
1462.0,0.0005
1461.0,0.0005
1460.0,0.0005
1459.0,0.0005
1458.0,0.0006
1457.0,0.0008
1456.0,0.001
1455.0,0.0012
1454.0,0.0013
1453.0,0.0014
1452.0,0.0014
1451.0,0.0014
1450.0,0.0014
1449.0,0.0014
1448.0,0.0014
1447.0,0.0014
1446.0,0.0014
1445.0,0.0014
1444.0,0.0014
1443.0,0.0013
1442.0,0.0013
1441.0,0.0013
1440.0,0.0012
1439.0,0.0012
1438.0,0.0011
1437.0,0.001
1436.0,0.0009
1435.0,0.0009
1434.0,0.0008
1433.0,0.0008
1432.0,0.0007
1431.0,0.0006
1430.0,0.0005
1429.0,0.0003
1428.0,0.0002
1427.0,0.0002
1426.0,0.0001
1425.0,0.0
1424.0,-0.0
1423.0,-0.0
1422.0,-0.0001
1421.0,-0.0001
1420.0,-0.0002
1419.0,-0.0002
1418.0,0.0
1417.0,0.0003
1416.0,0.0007
1415.0,0.0012
1414.0,0.0017
1413.0,0.0023
1412.0,0.0029
1411.0,0.0035
1410.0,0.004
1409.0,0.0043
1408.0,0.0044
1407.0,0.0043
1406.0,0.004
1405.0,0.0037
1404.0,0.0033
1403.0,0.003
1402.0,0.0028
1401.0,0.0026
1400.0,0.0024
1399.0,0.0023
1398.0,0.0021
1397.0,0.002
1396.0,0.0019
1395.0,0.0017
1394.0,0.0016
1393.0,0.0015
1392.0,0.0014
1391.0,0.0014
1390.0,0.0012
1389.0,0.0011
1388.0,0.001
1387.0,0.001
1386.0,0.0009
1385.0,0.0009
1384.0,0.0009
1383.0,0.0009
1382.0,0.0009
1381.0,0.0009
1380.0,0.001
1379.0,0.001
1378.0,0.0011
1377.0,0.0011
1376.0,0.0012
1375.0,0.0014
1374.0,0.0015
1373.0,0.0017
1372.0,0.0019
1371.0,0.0019
1370.0,0.002
1369.0,0.0019
1368.0,0.0018
1367.0,0.0016
1366.0,0.0015
1365.0,0.0013
1364.0,0.001
1363.0,0.0008
1362.0,0.0005
1361.0,0.0004
1360.0,0.0003
1359.0,0.0001
1358.0,0.0
1357.0,-0.0001
1356.0,-0.0001
1355.0,-0.0001
1354.0,-0.0002
1353.0,-0.0002
1352.0,-0.0003
1351.0,-0.0003
1350.0,-0.0003
1349.0,-0.0002
1348.0,-0.0001
1347.0,-0.0001
1346.0,0.0
1345.0,0.0002
1344.0,0.0003
1343.0,0.0004
1342.0,0.0005
1341.0,0.0005
1340.0,0.0005
1339.0,0.0005
1338.0,0.0004
1337.0,0.0004
1336.0,0.0003
1335.0,0.0002
1334.0,0.0001
1333.0,-0.0
1332.0,-0.0001
1331.0,-0.0002
1330.0,-0.0002
1329.0,-0.0001
1328.0,-0.0001
1327.0,-0.0001
1326.0,0.0
1325.0,0.0001
1324.0,0.0002
1323.0,0.0003
1322.0,0.0004
1321.0,0.0005
1320.0,0.0006
1319.0,0.0008
1318.0,0.0009
1317.0,0.0011
1316.0,0.0012
1315.0,0.0013
1314.0,0.0014
1313.0,0.0016
1312.0,0.0018
1311.0,0.002
1310.0,0.0022
1309.0,0.0024
1308.0,0.0027
1307.0,0.0029
1306.0,0.0031
1305.0,0.0033
1304.0,0.0035
1303.0,0.0038
1302.0,0.0041
1301.0,0.0044
1300.0,0.0048
1299.0,0.0053
1298.0,0.0057
1297.0,0.0061
1296.0,0.0066
1295.0,0.0071
1294.0,0.0075
1293.0,0.008
1292.0,0.0085
1291.0,0.0089
1290.0,0.0092
1289.0,0.0095
1288.0,0.0097
1287.0,0.0099
1286.0,0.0101
1285.0,0.0103
1284.0,0.0105
1283.0,0.0107
1282.0,0.0108
1281.0,0.011
1280.0,0.0111
1279.0,0.0111
1278.0,0.0112
1277.0,0.0113
1276.0,0.0115
1275.0,0.0117
1274.0,0.012
1273.0,0.0124
1272.0,0.0127
1271.0,0.0131
1270.0,0.0136
1269.0,0.014
1268.0,0.0144
1267.0,0.0148
1266.0,0.0151
1265.0,0.0154
1264.0,0.0157
1263.0,0.0159
1262.0,0.0161
1261.0,0.0163
1260.0,0.0164
1259.0,0.0165
1258.0,0.0165
1257.0,0.0165
1256.0,0.0165
1255.0,0.0166
1254.0,0.0166
1253.0,0.0167
1252.0,0.0169
1251.0,0.017
1250.0,0.0172
1249.0,0.0174
1248.0,0.0177
1247.0,0.0179
1246.0,0.0182
1245.0,0.0185
1244.0,0.0188
1243.0,0.0191
1242.0,0.0194
1241.0,0.0197
1240.0,0.0199
1239.0,0.0201
1238.0,0.0202
1237.0,0.0203
1236.0,0.0203
1235.0,0.0202
1234.0,0.0201
1233.0,0.0198
1232.0,0.0195
1231.0,0.0192
1230.0,0.0188
1229.0,0.0185
1228.0,0.0182
1227.0,0.0178
1226.0,0.0175
1225.0,0.0171
1224.0,0.0167
1223.0,0.0164
1222.0,0.016
1221.0,0.0157
1220.0,0.0154
1219.0,0.015
1218.0,0.0146
1217.0,0.0143
1216.0,0.014
1215.0,0.0136
1214.0,0.0133
1213.0,0.013
1212.0,0.0127
1211.0,0.0124
1210.0,0.0122
1209.0,0.012
1208.0,0.0118
1207.0,0.0117
1206.0,0.0115
1205.0,0.0113
1204.0,0.0111
1203.0,0.0109
1202.0,0.0107
1201.0,0.0105
1200.0,0.0103
1199.0,0.0102
1198.0,0.01
1197.0,0.0099
1196.0,0.0098
1195.0,0.0096
1194.0,0.0095
1193.0,0.0093
1192.0,0.0092
1191.0,0.009
1190.0,0.0089
1189.0,0.0087
1188.0,0.0086
1187.0,0.0084
1186.0,0.0082
1185.0,0.0081
1184.0,0.008
1183.0,0.0079
1182.0,0.0079
1181.0,0.0079
1180.0,0.008
1179.0,0.0081
1178.0,0.0081
1177.0,0.0081
1176.0,0.0081
1175.0,0.0081
1174.0,0.0081
1173.0,0.0081
1172.0,0.008
1171.0,0.0079
1170.0,0.0077
1169.0,0.0076
1168.0,0.0074
1167.0,0.0072
1166.0,0.0069
1165.0,0.0067
1164.0,0.0065
1163.0,0.0063
1162.0,0.0061
1161.0,0.0059
1160.0,0.0058
1159.0,0.0057
1158.0,0.0055
1157.0,0.0054
1156.0,0.0053
1155.0,0.0053
1154.0,0.0054
1153.0,0.0054
1152.0,0.0055
1151.0,0.0057
1150.0,0.0058
1149.0,0.006
1148.0,0.0063
1147.0,0.0065
1146.0,0.0069
1145.0,0.0073
1144.0,0.0077
1143.0,0.0082
1142.0,0.0086
1141.0,0.009
1140.0,0.0094
1139.0,0.0098
1138.0,0.0101
1137.0,0.0103
1136.0,0.0106
1135.0,0.0108
1134.0,0.011
1133.0,0.0113
1132.0,0.0116
1131.0,0.0119
1130.0,0.0122
1129.0,0.0125
1128.0,0.0129
1127.0,0.0134
1126.0,0.0139
1125.0,0.0145
1124.0,0.0151
1123.0,0.0157
1122.0,0.0162
1121.0,0.0167
1120.0,0.0172
1119.0,0.0175
1118.0,0.0176
1117.0,0.0177
1116.0,0.0176
1115.0,0.0175
1114.0,0.0174
1113.0,0.0172
1112.0,0.017
1111.0,0.0169
1110.0,0.017
1109.0,0.0172
1108.0,0.0175
1107.0,0.0181
1106.0,0.0188
1105.0,0.0195
1104.0,0.0204
1103.0,0.0212
1102.0,0.0221
1101.0,0.0229
1100.0,0.0237
1099.0,0.0244
1098.0,0.0251
1097.0,0.0257
1096.0,0.0262
1095.0,0.0266
1094.0,0.027
1093.0,0.0274
1092.0,0.0277
1091.0,0.0279
1090.0,0.0279
1089.0,0.0279
1088.0,0.0279
1087.0,0.0278
1086.0,0.0277
1085.0,0.0275
1084.0,0.0273
1083.0,0.0271
1082.0,0.0268
1081.0,0.0265
1080.0,0.0261
1079.0,0.0257
1078.0,0.0252
1077.0,0.0248
1076.0,0.0243
1075.0,0.0238
1074.0,0.0233
1073.0,0.0227
1072.0,0.0221
1071.0,0.0215
1070.0,0.021
1069.0,0.0205
1068.0,0.0199
1067.0,0.0194
1066.0,0.019
1065.0,0.0185
1064.0,0.0181
1063.0,0.0177
1062.0,0.0173
1061.0,0.0168
1060.0,0.0164
1059.0,0.0161
1058.0,0.0158
1057.0,0.0156
1056.0,0.0154
1055.0,0.0153
1054.0,0.0151
1053.0,0.0151
1052.0,0.0151
1051.0,0.0152
1050.0,0.0153
1049.0,0.0154
1048.0,0.0155
1047.0,0.0156
1046.0,0.0158
1045.0,0.016
1044.0,0.0162
1043.0,0.0164
1042.0,0.0165
1041.0,0.0166
1040.0,0.0166
1039.0,0.0166
1038.0,0.0165
1037.0,0.0165
1036.0,0.0164
1035.0,0.0163
1034.0,0.0162
1033.0,0.016
1032.0,0.0159
1031.0,0.0157
1030.0,0.0156
1029.0,0.0153
1028.0,0.0151
1027.0,0.0149
1026.0,0.0147
1025.0,0.0145
1024.0,0.0145
1023.0,0.0147
1022.0,0.0153
1021.0,0.0162
1020.0,0.0176
1019.0,0.0191
1018.0,0.0206
1017.0,0.0219
1016.0,0.0228
1015.0,0.0232
1014.0,0.023
1013.0,0.0224
1012.0,0.0216
1011.0,0.0207
1010.0,0.02
1009.0,0.0193
1008.0,0.0188
1007.0,0.0184
1006.0,0.018
1005.0,0.0177
1004.0,0.0174
1003.0,0.0171
1002.0,0.0169
1001.0,0.0166
1000.0,0.0163
999.0,0.016
998.0,0.0158
997.0,0.0156
996.0,0.0155
995.0,0.0153
994.0,0.0152
993.0,0.0151
992.0,0.015
991.0,0.0149
990.0,0.0148
989.0,0.0147
988.0,0.0146
987.0,0.0145
986.0,0.0145
985.0,0.0144
984.0,0.0144
983.0,0.0143
982.0,0.0142
981.0,0.0142
980.0,0.0142
979.0,0.0142
978.0,0.0142
977.0,0.0142
976.0,0.0142
975.0,0.0142
974.0,0.0141
973.0,0.0141
972.0,0.0142
971.0,0.0142
970.0,0.0143
969.0,0.0142
968.0,0.0141
967.0,0.014
966.0,0.0139
965.0,0.0138
964.0,0.0136
963.0,0.0135
962.0,0.0135
961.0,0.0134
960.0,0.0134
959.0,0.0134
958.0,0.0133
957.0,0.0132
956.0,0.0131
955.0,0.013
954.0,0.0129
953.0,0.0128
952.0,0.0128
951.0,0.0128
950.0,0.0128
949.0,0.0128
948.0,0.0128
947.0,0.0128
946.0,0.0127
945.0,0.0126
944.0,0.0124
943.0,0.0123
942.0,0.0122
941.0,0.0121
940.0,0.0121
939.0,0.0122
938.0,0.0122
937.0,0.0122
936.0,0.0121
935.0,0.0121
934.0,0.012
933.0,0.012
932.0,0.012
931.0,0.012
930.0,0.012
929.0,0.012
928.0,0.0119
927.0,0.0119
926.0,0.0118
925.0,0.0117
924.0,0.0116
923.0,0.0115
922.0,0.0115
921.0,0.0115
920.0,0.0115
919.0,0.0114
918.0,0.0114
917.0,0.0113
916.0,0.0113
915.0,0.0112
914.0,0.0112
913.0,0.0111
912.0,0.0111
911.0,0.0112
910.0,0.0112
909.0,0.0113
908.0,0.0114
907.0,0.0115
906.0,0.0117
905.0,0.012
904.0,0.0123
903.0,0.0126
902.0,0.0129
901.0,0.0131
900.0,0.0134
899.0,0.0136
898.0,0.0138
897.0,0.0139
896.0,0.0139
895.0,0.014
894.0,0.014
893.0,0.014
892.0,0.014
891.0,0.014
890.0,0.0141
889.0,0.0141
888.0,0.0142
887.0,0.0143
886.0,0.0144
885.0,0.0145
884.0,0.0146
883.0,0.0147
882.0,0.0148
881.0,0.015
880.0,0.0155
879.0,0.0162
878.0,0.0169
877.0,0.0177
876.0,0.0184
875.0,0.0191
874.0,0.0198
873.0,0.0203
872.0,0.0207
871.0,0.0209
870.0,0.0207
869.0,0.0203
868.0,0.0198
867.0,0.0192
866.0,0.0188
865.0,0.0183
864.0,0.018
863.0,0.0176
862.0,0.0172
861.0,0.0168
860.0,0.0165
859.0,0.0163
858.0,0.0161
857.0,0.0161
856.0,0.0161
855.0,0.0161
854.0,0.0161
853.0,0.016
852.0,0.0159
851.0,0.0157
850.0,0.0157
849.0,0.0157
848.0,0.0158
847.0,0.0158
846.0,0.0158
845.0,0.0157
844.0,0.0158
843.0,0.016
842.0,0.0162
841.0,0.0163
840.0,0.0163
839.0,0.0162
838.0,0.0162
837.0,0.0161
836.0,0.0161
835.0,0.016
834.0,0.0159
833.0,0.0158
832.0,0.0157
831.0,0.0155
830.0,0.0154
829.0,0.0153
828.0,0.0153
827.0,0.0153
826.0,0.0152
825.0,0.0151
824.0,0.0149
823.0,0.0148
822.0,0.0148
821.0,0.0148
820.0,0.0148
819.0,0.0148
818.0,0.0147
817.0,0.0146
816.0,0.0146
815.0,0.0146
814.0,0.0147
813.0,0.0146
812.0,0.0145
811.0,0.0144
810.0,0.0144
809.0,0.0144
808.0,0.0145
807.0,0.0145
806.0,0.0146
805.0,0.0146
804.0,0.0146
803.0,0.0146
802.0,0.0146
801.0,0.0145
800.0,0.0144
799.0,0.0143
798.0,0.0145
797.0,0.0148
796.0,0.0152
795.0,0.0156
794.0,0.016
793.0,0.0163
792.0,0.0165
791.0,0.0165
790.0,0.0162
789.0,0.0159
788.0,0.0154
787.0,0.0151
786.0,0.0148
785.0,0.0145
784.0,0.0143
783.0,0.0139
782.0,0.0135
781.0,0.0132
780.0,0.013
779.0,0.0129
778.0,0.013
777.0,0.013
776.0,0.0129
775.0,0.0127
774.0,0.0124
773.0,0.0121
772.0,0.0119
771.0,0.0117
770.0,0.0115
769.0,0.0114
768.0,0.0112
767.0,0.011
766.0,0.0108
765.0,0.0106
764.0,0.0105
763.0,0.0103
762.0,0.0101
761.0,0.0097
760.0,0.0094
759.0,0.0091
758.0,0.0088
757.0,0.0086
756.0,0.0084
755.0,0.0082
754.0,0.0079
753.0,0.0074
752.0,0.0069
751.0,0.0063
750.0,0.0059
749.0,0.0056
748.0,0.0054
747.0,0.0053
746.0,0.0053
745.0,0.0052
744.0,0.0054
743.0,0.0059
742.0,0.007
741.0,0.0087
740.0,0.011
739.0,0.0137
738.0,0.0169
737.0,0.0204
736.0,0.0242
735.0,0.0283
734.0,0.0322
733.0,0.0361
732.0,0.0399
731.0,0.0437
730.0,0.0475
729.0,0.0514
728.0,0.0553
727.0,0.0589
726.0,0.0622
725.0,0.0648
724.0,0.0665
723.0,0.0668
722.0,0.0656
721.0,0.063
720.0,0.0596
719.0,0.056
718.0,0.0525
717.0,0.0494
716.0,0.0465
715.0,0.0442
714.0,0.0424
713.0,0.041
712.0,0.04
711.0,0.039
710.0,0.038
709.0,0.0371
708.0,0.0364
707.0,0.036
706.0,0.0356
705.0,0.0352
704.0,0.0348
703.0,0.0345
702.0,0.0344
701.0,0.0344
700.0,0.0342
699.0,0.0338
698.0,0.0327
697.0,0.0312
696.0,0.0297
695.0,0.0287
694.0,0.0284
693.0,0.0284
692.0,0.0282
691.0,0.0276
690.0,0.0269
689.0,0.0265
688.0,0.0266
687.0,0.027
686.0,0.0276
685.0,0.0282
684.0,0.0286
683.0,0.0287
682.0,0.0286
681.0,0.0284
680.0,0.0281
679.0,0.0279
678.0,0.0275
677.0,0.0273
676.0,0.0272
675.0,0.027
674.0,0.0266
673.0,0.0263
672.0,0.0262
671.0,0.0263
670.0,0.0262
669.0,0.0256
668.0,0.0243
667.0,0.0234
666.0,0.0233
665.0,0.0234
664.0,0.0236
663.0,0.0238
662.0,0.0237
661.0,0.0232
660.0,0.0225
659.0,0.022
658.0,0.0223
657.0,0.023
656.0,0.0236
655.0,0.0236
654.0,0.023
653.0,0.0225
652.0,0.0226
651.0,0.0234
650.0,0.0245
649.0,0.0255
648.0,0.0257
647.0,0.0253
646.0,0.0242
645.0,0.0232
644.0,0.0225
643.0,0.0224
642.0,0.0228
641.0,0.0234
640.0,0.0236
639.0,0.0234
638.0,0.0229
637.0,0.0224
636.0,0.0223
635.0,0.0223
634.0,0.0225
633.0,0.0226
632.0,0.0228
631.0,0.023
630.0,0.023
629.0,0.023
628.0,0.0229
627.0,0.0227
626.0,0.0224
625.0,0.0222
624.0,0.0219
623.0,0.0218
622.0,0.0219
621.0,0.0222
620.0,0.0228
619.0,0.0233
618.0,0.0236
617.0,0.0238
616.0,0.0242
615.0,0.0245
614.0,0.0246
613.0,0.0246
612.0,0.0246
611.0,0.0247
610.0,0.025
609.0,0.0254
608.0,0.0259
607.0,0.0259
606.0,0.0254
605.0,0.0247
604.0,0.0242
603.0,0.0242
602.0,0.0245
601.0,0.0249
600.0,0.0254
