nm,Intensity
526.532,830.34
526.669,830.46
526.805,830.08
526.942,830.28
527.079,831.42
527.216,829.9
527.352,830.5
527.489,830.08
527.625,830.66
527.762,829.9
527.899,828.98
528.035,830.3
528.172,829.96
528.309,830.02
528.445,830.46
528.582,830.64
528.718,830.26
528.855,829.74
528.992,830.58
529.128,829.22
529.265,830.54
529.401,829.86
529.538,829.94
529.674,830.6
529.811,830.12
529.947,829.68
530.084,829.94
530.22,830.22
530.357,830.1
530.493,830.24
530.63,830.26
530.766,830.1
530.903,830.38
531.039,830.12
531.176,830.66
531.312,830.12
531.449,830.28
531.585,829.76
531.721,829.66
531.858,830.26
531.994,834.54
532.131,855.88
532.267,851.84
532.403,834.0
532.54,830.14
532.676,830.32
532.812,830.34
532.949,829.4
533.085,831.0
533.221,830.04
533.358,829.68
533.494,830.8
533.63,831.8
533.767,844.74
533.903,895.3
534.039,959.8
534.176,985.14
534.312,988.6
534.448,984.46
534.584,987.26
534.721,987.64
534.857,985.5
534.993,983.4
535.129,982.18
535.266,981.84
535.402,981.6
535.538,982.46
535.674,983.66
535.81,984.18
535.947,984.42
536.083,984.54
536.219,984.08
536.355,983.68
536.491,984.92
536.627,986.38
536.764,984.58
536.9,985.7
537.036,984.1
537.172,984.98
537.308,986.42
537.444,987.78
537.58,990.2
537.716,991.28
537.852,993.34
537.988,992.88
538.125,994.06
538.261,992.74
538.397,993.14
538.533,993.04
538.669,993.0
538.805,993.98
538.941,994.92
539.077,993.94
539.213,994.36
539.349,997.88
539.485,998.06
539.621,995.38
539.757,999.72
539.893,999.44
540.029,998.62
540.165,998.6
540.301,1000.64
540.437,1002.56
540.572,1003.1
540.708,1002.74
540.844,1005.22
540.98,1003.2
541.116,1006.02
541.252,1004.68
541.388,1004.12
541.524,1006.56
541.66,1008.4
541.795,1010.92
541.931,1009.52
542.067,1009.98
542.203,1010.44
542.339,1013.44
542.475,1010.42
542.611,1015.72
542.746,1014.02
542.882,1014.76
543.018,1015.36
543.154,1016.68
543.289,1017.42
543.425,1019.56
543.561,1019.2
543.697,1020.74
543.833,1019.64
543.968,1019.52
544.104,1023.66
544.24,1023.42
544.375,1022.74
544.511,1024.1
544.647,1026.16
544.783,1024.92
544.918,1026.14
545.054,1025.0
545.19,1029.64
545.325,1029.16
545.461,1029.82
545.597,1029.84
545.732,1030.76
545.868,1033.76
546.004,1034.14
546.139,1032.92
546.275,1034.2
546.41,1035.64
546.546,1033.78
546.682,1035.34
546.817,1035.84
546.953,1038.04
547.088,1036.46
547.224,1038.82
547.36,1038.3
547.495,1037.34
547.631,1041.14
547.766,1040.52
547.902,1040.58
548.037,1043.44
548.173,1038.28
548.308,1043.18
548.444,1044.8
548.579,1044.3
548.715,1046.38
548.85,1048.1
548.986,1046.1
549.121,1048.68
549.257,1050.76
549.392,1051.44
549.528,1049.86
549.663,1051.66
549.798,1054.96
549.934,1052.88
550.069,1052.78
550.205,1053.88
550.34,1055.0
550.475,1054.1
550.611,1055.64
550.746,1055.22
550.882,1055.2
551.017,1057.44
551.152,1058.94
551.288,1059.12
551.423,1060.84
551.558,1063.88
551.694,1062.42
551.829,1064.2
551.964,1064.18
552.1,1065.7
552.235,1063.62
552.37,1065.48
552.505,1065.4
552.641,1066.78
552.776,1066.3
552.911,1066.04
553.047,1066.48
553.182,1067.7
553.317,1069.32
553.452,1073.22
553.588,1071.1
553.723,1074.4
553.858,1072.34
553.993,1075.2
554.128,1074.22
554.264,1078.86
554.399,1075.48
554.534,1075.96
554.669,1079.08
554.804,1079.18
554.939,1077.38
555.075,1076.34
555.21,1074.98
555.345,1077.32
555.48,1078.08
555.615,1077.8
555.75,1077.64
555.885,1081.4
556.02,1081.66
556.155,1081.06
556.291,1081.72
556.426,1080.64
556.561,1083.46
556.696,1082.58
556.831,1083.96
556.966,1087.14
557.101,1084.44
557.236,1088.84
557.371,1084.06
557.506,1088.42
557.641,1087.9
557.776,1090.76
557.911,1089.64
558.046,1089.86
558.181,1090.86
558.316,1091.38
558.451,1090.4
558.586,1088.48
558.721,1090.6
558.856,1092.56
558.991,1091.76
559.126,1092.26
559.261,1091.62
559.396,1093.16
559.531,1095.62
559.665,1094.12
559.8,1096.84
559.935,1098.2
560.07,1097.3
560.205,1099.78
560.34,1098.38
560.475,1099.38
560.61,1099.3
560.745,1101.28
560.879,1101.58
561.014,1101.88
561.149,1104.18
561.284,1101.74
561.419,1100.96
561.553,1103.14
561.688,1101.9
561.823,1102.64
561.958,1100.92
562.093,1105.2
562.227,1104.52
562.362,1108.42
562.497,1106.04
562.632,1111.6
562.767,1112.4
562.901,1112.92
563.036,1116.18
563.171,1116.98
563.305,1115.26
563.44,1120.48
563.575,1121.64
563.71,1125.5
563.844,1132.94
563.979,1156.32
564.114,1167.48
564.248,1148.78
564.383,1134.38
564.518,1132.8
564.652,1136.04
564.787,1132.56
564.922,1134.88
565.056,1132.7
565.191,1131.62
565.325,1131.08
565.46,1132.36
565.595,1136.8
565.729,1137.22
565.864,1139.54
565.999,1150.94
566.133,1173.62
566.268,1176.46
566.402,1154.5
566.537,1140.18
566.671,1136.42
566.806,1139.6
566.94,1133.62
567.075,1134.82
567.21,1135.76
567.344,1136.6
567.479,1137.28
567.613,1140.08
567.748,1136.66
567.882,1136.0
568.017,1134.04
568.151,1136.4
568.285,1137.84
568.42,1135.3
568.554,1138.94
568.689,1142.46
568.823,1143.42
568.958,1140.08
569.092,1146.98
569.227,1143.7
569.361,1147.7
569.495,1147.14
569.63,1145.72
569.764,1149.66
569.899,1148.84
570.033,1147.44
570.167,1151.0
570.302,1148.32
570.436,1150.78
570.571,1152.56
570.705,1155.3
570.839,1153.0
570.974,1154.22
571.108,1154.1
571.242,1159.9
571.377,1169.9
571.511,1213.52
571.645,1229.68
571.78,1186.78
571.914,1169.82
572.048,1168.74
572.182,1166.96
572.317,1165.6
572.451,1163.88
572.585,1161.26
572.719,1162.96
572.854,1161.84
572.988,1166.46
573.122,1164.48
573.256,1165.22
573.391,1168.3
573.525,1165.9
573.659,1166.2
573.793,1168.58
573.927,1171.42
574.062,1174.48
574.196,1169.56
574.33,1168.36
574.464,1168.82
574.598,1171.1
574.733,1168.18
574.867,1164.98
575.001,1168.18
575.135,1169.02
575.269,1172.38
575.403,1176.26
575.537,1193.96
575.671,1201.0
575.806,1190.76
575.94,1193.36
576.074,1201.26
576.208,1219.56
576.342,1232.14
576.476,1230.22
576.61,1214.36
576.744,1211.26
576.878,1214.38
577.012,1216.58
577.146,1211.92
577.28,1203.8
577.414,1197.7
577.548,1192.44
577.682,1188.02
577.817,1184.72
577.951,1181.86
578.085,1182.88
578.219,1185.04
578.353,1184.56
578.486,1184.14
578.62,1184.4
578.754,1183.0
578.888,1184.94
579.022,1185.46
579.156,1181.1
579.29,1184.14
579.424,1182.6
579.558,1185.0
579.692,1184.12
579.826,1181.14
579.96,1181.92
580.094,1185.2
580.228,1182.14
580.362,1185.04
580.496,1184.54
580.629,1184.32
580.763,1187.44
580.897,1185.3
581.031,1186.06
581.165,1186.14
581.299,1184.74
581.433,1183.7
581.566,1185.94
581.7,1186.12
581.834,1187.02
581.968,1186.26
582.102,1184.46
582.236,1190.16
582.369,1187.7
582.503,1187.26
582.637,1187.98
582.771,1192.36
582.905,1191.96
583.038,1190.16
583.172,1193.72
583.306,1195.54
583.44,1194.0
583.573,1190.46
583.707,1194.6
583.841,1194.28
583.975,1194.94
584.108,1196.98
584.242,1193.66
584.376,1194.56
584.509,1196.26
584.643,1192.04
584.777,1192.32
584.911,1193.62
585.044,1193.78
585.178,1194.28
585.312,1193.26
585.445,1193.76
585.579,1196.46
585.713,1192.68
585.846,1194.72
585.98,1195.34
586.113,1198.72
586.247,1195.1
586.381,1196.76
586.514,1197.54
586.648,1200.54
586.782,1198.42
586.915,1202.14
587.049,1200.68
587.182,1203.5
587.316,1199.62
587.45,1199.68
587.583,1199.5
587.717,1201.84
587.85,1202.0
587.984,1201.44
588.117,1198.88
588.251,1200.6
588.384,1197.48
588.518,1198.56
588.651,1196.36
588.785,1196.36
588.919,1193.34
589.052,1193.56
589.186,1194.82
589.319,1197.3
589.453,1195.44
589.586,1194.14
589.72,1197.52
589.853,1196.94
589.986,1197.14
590.12,1196.68
590.253,1198.18
590.387,1200.04
590.52,1199.52
590.654,1199.12
590.787,1198.1
590.921,1199.5
591.054,1199.1
591.187,1202.32
591.321,1203.08
591.454,1200.36
591.588,1204.26
591.721,1201.52
591.854,1201.08
591.988,1198.8
592.121,1199.2
592.255,1200.8
592.388,1203.34
592.521,1198.3
592.655,1198.94
592.788,1199.1
592.921,1197.14
593.055,1198.32
593.188,1198.94
593.321,1199.36
593.455,1199.44
593.588,1199.06
593.721,1199.46
593.855,1199.7
593.988,1198.88
594.121,1200.9
594.255,1199.06
594.388,1196.8
594.521,1200.56
594.654,1201.94
594.788,1202.5
594.921,1200.32
595.054,1203.3
595.187,1201.78
595.321,1202.22
595.454,1205.02
595.587,1203.74
595.72,1201.82
595.854,1205.0
595.987,1206.22
596.12,1202.14
596.253,1201.76
596.387,1204.56
596.52,1200.3
596.653,1204.94
596.786,1201.3
596.919,1203.54
597.052,1202.74
597.186,1205.22
597.319,1203.5
597.452,1202.96
597.585,1200.02
597.718,1205.46
597.851,1200.42
597.985,1202.02
598.118,1202.16
598.251,1206.36
598.384,1205.2
598.517,1202.94
598.65,1205.58
598.783,1206.36
598.916,1205.04
599.049,1207.48
599.183,1205.12
599.316,1206.12
599.449,1206.06
599.582,1202.04
599.715,1204.78
599.848,1201.56
599.981,1201.34
600.114,1202.98
600.247,1197.4
600.38,1200.72
600.513,1199.98
600.646,1200.26
600.779,1200.08
600.912,1195.5
601.045,1193.86
601.178,1195.36
601.311,1194.08
601.444,1194.88
601.577,1195.2
601.71,1195.34
601.843,1193.04
601.976,1192.04
602.109,1195.84
602.242,1194.88
602.375,1193.22
602.508,1198.96
602.641,1190.1
602.774,1190.7
602.907,1196.26
603.04,1193.14
603.173,1195.74
603.306,1193.36
603.439,1196.84
603.572,1191.28
603.705,1190.98
603.838,1193.02
603.971,1192.3
604.103,1191.86
604.236,1190.5
604.369,1187.42
604.502,1188.02
604.635,1187.84
604.768,1185.64
604.901,1183.78
605.034,1180.22
605.167,1178.98
605.299,1182.3
605.432,1176.86
605.565,1177.94
605.698,1173.54
605.831,1174.48
605.964,1175.0
606.096,1171.62
606.229,1172.5
606.362,1174.4
606.495,1171.26
606.628,1172.82
606.761,1171.56
606.893,1170.42
607.026,1174.1
607.159,1172.24
607.292,1171.12
607.425,1172.48
607.557,1169.96
607.69,1171.86
607.823,1172.02
607.956,1175.72
608.088,1173.8
608.221,1175.72
608.354,1174.04
608.487,1175.36
608.619,1177.04
608.752,1171.94
608.885,1171.14
609.018,1172.46
609.15,1170.28
609.283,1171.88
609.416,1172.34
609.548,1174.48
609.681,1171.08
609.814,1171.54
609.947,1172.18
610.079,1169.34
610.212,1167.5
610.345,1168.04
610.477,1168.24
610.61,1167.2
610.743,1169.04
610.875,1169.46
611.008,1166.66
611.141,1167.02
611.273,1169.36
611.406,1167.98
611.539,1165.38
611.671,1168.16
611.804,1165.48
611.936,1166.34
612.069,1165.84
612.202,1165.72
612.334,1172.44
612.467,1169.2
612.6,1171.14
612.732,1170.38
612.865,1169.54
612.997,1172.18
613.13,1173.36
613.263,1176.0
613.395,1172.3
613.528,1176.1
613.66,1173.34
613.793,1174.0
613.925,1172.3
614.058,1174.22
614.19,1172.62
614.323,1171.34
614.456,1170.1
614.588,1174.14
614.721,1170.7
614.853,1169.46
614.986,1171.12
615.118,1169.7
615.251,1169.74
615.383,1169.76
615.516,1168.48
615.648,1166.9
615.781,1166.8
615.913,1165.1
616.046,1163.3
616.178,1167.14
616.311,1166.44
616.443,1167.64
616.576,1165.72
616.708,1167.88
616.841,1168.18
616.973,1169.3
617.106,1170.06
617.238,1168.02
617.37,1171.58
617.503,1171.0
617.635,1171.98
617.768,1167.48
617.9,1171.68
618.033,1167.24
618.165,1168.12
618.297,1170.38
618.43,1166.64
618.562,1168.96
618.695,1170.2
618.827,1166.22
618.96,1169.4
619.092,1166.26
619.224,1167.12
619.357,1167.6
619.489,1167.92
619.621,1169.4
619.754,1168.7
619.886,1167.54
620.019,1166.42
620.151,1167.92
620.283,1167.04
620.416,1166.04
620.548,1165.5
620.68,1163.9
620.813,1165.46
620.945,1166.34
621.077,1164.24
621.21,1168.84
621.342,1167.08
621.474,1166.28
621.607,1171.26
621.739,1172.26
621.871,1172.0
622.004,1175.92
622.136,1177.1
622.268,1179.66
622.401,1181.36
622.533,1175.18
622.665,1178.48
622.797,1171.92
622.93,1165.66
623.062,1165.44
623.194,1164.94
623.326,1168.22
623.459,1160.78
623.591,1163.14
623.723,1163.46
623.856,1160.56
623.988,1164.16
624.12,1162.04
624.252,1159.56
624.384,1161.0
624.517,1161.6
624.649,1158.84
624.781,1164.3
624.913,1162.36
625.046,1160.78
625.178,1157.3
625.31,1157.56
625.442,1158.02
625.574,1157.8
625.707,1161.68
625.839,1164.64
625.971,1162.36
626.103,1165.24
626.235,1164.14
626.368,1171.74
626.5,1181.94
626.632,1197.9
626.764,1227.46
626.896,1282.6
627.028,1359.54
627.161,1431.1
627.293,1463.02
627.425,1444.86
627.557,1402.96
627.689,1370.2
627.821,1344.36
627.953,1329.86
628.086,1324.06
628.218,1335.26
628.35,1365.58
628.482,1445.64
628.614,1518.4
628.746,1445.9
628.878,1375.82
629.01,1351.74
629.143,1337.54
629.275,1332.6
629.407,1322.42
629.539,1306.5
629.671,1290.34
629.803,1278.64
629.935,1268.7
630.067,1261.38
630.199,1260.38
630.331,1258.08
630.463,1258.52
630.596,1251.44
630.728,1239.4
630.86,1225.4
630.992,1209.24
631.124,1194.4
631.256,1179.9
631.388,1171.18
631.52,1166.08
631.652,1166.82
631.784,1160.9
631.916,1157.8
632.048,1151.62
632.18,1151.64
632.312,1147.26
632.444,1147.34
632.576,1143.72
632.708,1143.3
632.84,1140.28
632.972,1137.94
633.104,1136.74
633.236,1133.68
633.368,1138.66
633.5,1134.82
633.632,1133.1
633.764,1129.36
633.896,1132.24
634.028,1130.18
634.16,1129.12
634.292,1127.82
634.424,1128.82
634.556,1126.28
634.688,1127.62
634.82,1129.4
634.952,1125.52
635.084,1126.56
635.216,1125.58
635.348,1124.16
635.48,1123.18
635.612,1128.28
635.744,1126.88
635.876,1120.88
636.007,1126.44
636.139,1122.32
636.271,1123.48
636.403,1122.6
636.535,1122.98
636.667,1120.96
636.799,1122.16
636.931,1119.76
637.063,1117.72
637.195,1120.96
637.327,1115.36
637.459,1116.4
637.59,1117.46
637.722,1118.4
637.854,1114.1
637.986,1116.22
638.118,1115.44
638.25,1112.96
638.382,1114.76
638.514,1114.5
638.645,1113.82
638.777,1114.46
638.909,1112.34
639.041,1113.74
639.173,1111.86
639.305,1113.72
639.437,1111.08
639.568,1112.64
639.7,1113.72
639.832,1111.84
639.964,1108.94
640.096,1109.68
640.228,1111.12
640.36,1111.86
640.491,1110.02
640.623,1107.56
640.755,1107.48
640.887,1107.16
641.019,1107.42
641.15,1109.68
641.282,1107.84
641.414,1107.96
641.546,1106.88
641.678,1105.6
641.81,1107.12
641.941,1103.92
642.073,1106.28
642.205,1103.92
642.337,1104.54
642.468,1103.7
642.6,1100.68
642.732,1101.76
642.864,1101.34
642.996,1099.54
643.127,1097.56
643.259,1097.12
643.391,1097.28
643.523,1095.16
643.654,1095.62
643.786,1095.86
643.918,1093.52
644.05,1091.36
644.181,1092.4
644.313,1091.98
644.445,1093.92
644.577,1093.96
644.708,1090.52
644.84,1089.86
644.972,1086.84
645.104,1090.28
645.235,1091.14
645.367,1088.06
645.499,1088.22
645.631,1088.82
645.762,1085.92
645.894,1087.98
646.026,1084.76
646.157,1085.8
646.289,1083.72
646.421,1084.56
646.553,1086.6
646.684,1084.78
646.816,1087.6
646.948,1085.98
647.079,1081.08
647.211,1080.82
647.343,1084.8
647.474,1083.62
647.606,1084.42
647.738,1080.94
647.869,1083.28
648.001,1082.86
648.133,1081.96
648.265,1081.42
648.396,1079.88
648.528,1080.4
648.66,1078.48
648.791,1076.92
648.923,1078.72
649.054,1077.7
649.186,1076.06
649.318,1073.28
649.449,1076.96
649.581,1075.8
649.713,1076.08
649.844,1073.94
649.976,1072.0
650.108,1070.14
650.239,1073.74
650.371,1071.12
650.503,1071.74
650.634,1071.06
650.766,1067.7
650.897,1069.6
651.029,1071.22
651.161,1069.54
651.292,1066.42
651.424,1068.16
651.556,1067.64
651.687,1067.06
651.819,1067.18
651.95,1068.46
652.082,1067.7
652.214,1065.88
652.345,1066.36
652.477,1065.6
652.608,1067.9
652.74,1064.08
652.872,1064.64
653.003,1064.2
653.135,1066.62
653.266,1066.22
653.398,1065.0
653.529,1067.0
653.661,1066.42
653.793,1063.2
653.924,1062.9
654.056,1065.9
654.187,1064.08
654.319,1062.44
654.45,1059.64
654.582,1061.18
654.714,1061.02
654.845,1061.24
654.977,1059.8
655.108,1061.4
655.24,1057.2
655.371,1058.34
655.503,1057.42
655.634,1059.76
655.766,1056.58
655.897,1055.64
656.029,1056.94
656.161,1052.62
656.292,1055.14
656.424,1055.56
656.555,1053.7
656.687,1053.86
656.818,1054.6
656.95,1055.84
657.081,1054.84
657.213,1055.42
657.344,1052.0
657.476,1054.0
657.607,1055.4
657.739,1055.84
657.87,1054.24
658.002,1055.02
658.133,1053.84
658.265,1052.92
658.396,1055.98
658.528,1053.02
658.659,1050.7
658.791,1052.28
658.922,1053.56
659.054,1054.14
659.185,1051.74
659.317,1053.96
659.448,1051.72
659.58,1050.04
659.711,1051.14
659.843,1049.88
659.974,1049.7
660.106,1051.32
660.237,1047.86
660.368,1048.62
660.5,1048.16
660.631,1046.18
660.763,1048.54
660.894,1046.9
661.026,1043.9
661.157,1047.6
661.289,1045.66
661.42,1043.76
661.552,1045.9
661.683,1044.86
661.815,1044.36
661.946,1044.14
662.077,1044.72
662.209,1041.84
662.34,1038.08
662.472,1040.12
662.603,1040.18
662.735,1039.88
662.866,1037.02
662.997,1036.06
663.129,1038.86
