cm-1,A
4000.0,0.0017
3999.0,0.0017
3998.0,0.0016
3997.0,0.0016
3996.0,0.0016
3995.0,0.0017
3994.0,0.0017
3993.0,0.0018
3992.0,0.0018
3991.0,0.0018
3990.0,0.0017
3989.0,0.0017
3988.0,0.0018
3987.0,0.0019
3986.0,0.0019
3985.0,0.0019
3984.0,0.0019
3983.0,0.0018
3982.0,0.0017
3981.0,0.0016
3980.0,0.0016
3979.0,0.0015
3978.0,0.0014
3977.0,0.0014
3976.0,0.0014
3975.0,0.0015
3974.0,0.0016
3973.0,0.0016
3972.0,0.0017
3971.0,0.0017
3970.0,0.0018
3969.0,0.0018
3968.0,0.0017
3967.0,0.0017
3966.0,0.0016
3965.0,0.0015
3964.0,0.0014
3963.0,0.0015
3962.0,0.0015
3961.0,0.0016
3960.0,0.0017
3959.0,0.0017
3958.0,0.0017
3957.0,0.0017
3956.0,0.0016
3955.0,0.0016
3954.0,0.0016
3953.0,0.0016
3952.0,0.0017
3951.0,0.0018
3950.0,0.0019
3949.0,0.0019
3948.0,0.0019
3947.0,0.0018
3946.0,0.0017
3945.0,0.0016
3944.0,0.0016
3943.0,0.0016
3942.0,0.0016
3941.0,0.0016
3940.0,0.0016
3939.0,0.0016
3938.0,0.0016
3937.0,0.0017
3936.0,0.0017
3935.0,0.0017
3934.0,0.0018
3933.0,0.0018
3932.0,0.0018
3931.0,0.0019
3930.0,0.0018
3929.0,0.0018
3928.0,0.0018
3927.0,0.0018
3926.0,0.0017
3925.0,0.0017
3924.0,0.0016
3923.0,0.0016
3922.0,0.0015
3921.0,0.0015
3920.0,0.0015
3919.0,0.0015
3918.0,0.0016
3917.0,0.0017
3916.0,0.0017
3915.0,0.0017
3914.0,0.0017
3913.0,0.0018
3912.0,0.0018
3911.0,0.0019
3910.0,0.0019
3909.0,0.0019
3908.0,0.0019
3907.0,0.0019
3906.0,0.0019
3905.0,0.002
3904.0,0.002
3903.0,0.002
3902.0,0.0019
3901.0,0.0019
3900.0,0.0019
3899.0,0.0019
3898.0,0.0019
3897.0,0.0019
3896.0,0.002
3895.0,0.002
3894.0,0.0021
3893.0,0.0021
3892.0,0.002
3891.0,0.0019
3890.0,0.0017
3889.0,0.0017
3888.0,0.0018
3887.0,0.0018
3886.0,0.0017
3885.0,0.0016
3884.0,0.0015
3883.0,0.0016
3882.0,0.0017
3881.0,0.0019
3880.0,0.0019
3879.0,0.0019
3878.0,0.0018
3877.0,0.0019
3876.0,0.0019
3875.0,0.0018
3874.0,0.0018
3873.0,0.0017
3872.0,0.0017
3871.0,0.0018
3870.0,0.0018
3869.0,0.0019
3868.0,0.0021
3867.0,0.0022
3866.0,0.0023
3865.0,0.0022
3864.0,0.0022
3863.0,0.0021
3862.0,0.0021
3861.0,0.0022
3860.0,0.0022
3859.0,0.0021
3858.0,0.002
3857.0,0.002
3856.0,0.002
3855.0,0.0021
3854.0,0.0023
3853.0,0.0023
3852.0,0.0022
3851.0,0.002
3850.0,0.0019
3849.0,0.0019
3848.0,0.0019
3847.0,0.0019
3846.0,0.002
3845.0,0.002
3844.0,0.0021
3843.0,0.0022
3842.0,0.0023
3841.0,0.0022
3840.0,0.0021
3839.0,0.002
3838.0,0.002
3837.0,0.002
3836.0,0.002
3835.0,0.002
3834.0,0.002
3833.0,0.0019
3832.0,0.0019
3831.0,0.0018
3830.0,0.0018
3829.0,0.0019
3828.0,0.002
3827.0,0.0021
3826.0,0.0021
3825.0,0.0022
3824.0,0.0023
3823.0,0.0024
3822.0,0.0025
3821.0,0.0025
3820.0,0.0024
3819.0,0.0024
3818.0,0.0023
3817.0,0.0022
3816.0,0.0021
3815.0,0.002
3814.0,0.002
3813.0,0.0019
3812.0,0.0019
3811.0,0.0019
3810.0,0.002
3809.0,0.0021
3808.0,0.0022
3807.0,0.0022
3806.0,0.0022
3805.0,0.0023
3804.0,0.0023
3803.0,0.0024
3802.0,0.0023
3801.0,0.0022
3800.0,0.0021
3799.0,0.0021
3798.0,0.0021
3797.0,0.0021
3796.0,0.002
3795.0,0.0019
3794.0,0.0018
3793.0,0.0018
3792.0,0.0018
3791.0,0.0019
3790.0,0.0019
3789.0,0.0019
3788.0,0.002
3787.0,0.0019
3786.0,0.0019
3785.0,0.0018
3784.0,0.0018
3783.0,0.0018
3782.0,0.0019
3781.0,0.0019
3780.0,0.0019
3779.0,0.0019
3778.0,0.0019
3777.0,0.0019
3776.0,0.0019
3775.0,0.002
3774.0,0.002
3773.0,0.0021
3772.0,0.0022
3771.0,0.0022
3770.0,0.0022
3769.0,0.002
3768.0,0.002
3767.0,0.0019
3766.0,0.002
3765.0,0.002
3764.0,0.002
3763.0,0.0021
3762.0,0.0021
3761.0,0.0021
3760.0,0.0021
3759.0,0.0021
3758.0,0.0021
3757.0,0.0022
3756.0,0.0022
3755.0,0.0022
3754.0,0.0022
3753.0,0.0023
3752.0,0.0024
3751.0,0.0026
3750.0,0.0027
3749.0,0.0026
3748.0,0.0025
3747.0,0.0026
3746.0,0.0026
3745.0,0.0024
3744.0,0.0021
3743.0,0.0019
3742.0,0.0017
3741.0,0.0017
3740.0,0.0017
3739.0,0.0018
3738.0,0.0019
3737.0,0.002
3736.0,0.002
3735.0,0.002
3734.0,0.0019
3733.0,0.0018
3732.0,0.0016
3731.0,0.0015
3730.0,0.0014
3729.0,0.0014
3728.0,0.0014
3727.0,0.0014
3726.0,0.0014
3725.0,0.0014
3724.0,0.0014
3723.0,0.0015
3722.0,0.0016
3721.0,0.0017
3720.0,0.0018
3719.0,0.0019
3718.0,0.0019
3717.0,0.002
3716.0,0.0021
3715.0,0.0022
3714.0,0.0022
3713.0,0.0021
3712.0,0.0019
3711.0,0.0017
3710.0,0.0015
3709.0,0.0015
3708.0,0.0014
3707.0,0.0015
3706.0,0.0015
3705.0,0.0015
3704.0,0.0016
3703.0,0.0017
3702.0,0.0017
3701.0,0.0017
3700.0,0.0016
3699.0,0.0016
3698.0,0.0016
3697.0,0.0017
3696.0,0.0017
3695.0,0.0018
3694.0,0.0019
3693.0,0.0019
3692.0,0.0018
3691.0,0.0019
3690.0,0.002
3689.0,0.0021
3688.0,0.0021
3687.0,0.002
3686.0,0.002
3685.0,0.0019
3684.0,0.0019
3683.0,0.002
3682.0,0.0021
3681.0,0.0022
3680.0,0.0023
3679.0,0.0024
3678.0,0.0026
3677.0,0.0027
3676.0,0.0027
3675.0,0.0025
3674.0,0.0023
3673.0,0.0022
3672.0,0.0021
3671.0,0.002
3670.0,0.0019
3669.0,0.0018
3668.0,0.0017
3667.0,0.0017
3666.0,0.0016
3665.0,0.0017
3664.0,0.0017
3663.0,0.0017
3662.0,0.0018
3661.0,0.0018
3660.0,0.0019
3659.0,0.002
3658.0,0.0021
3657.0,0.0022
3656.0,0.0022
3655.0,0.0021
3654.0,0.0022
3653.0,0.0022
3652.0,0.0022
3651.0,0.0021
3650.0,0.002
3649.0,0.002
3648.0,0.002
3647.0,0.0019
3646.0,0.0019
3645.0,0.0019
3644.0,0.0018
3643.0,0.0017
3642.0,0.0016
3641.0,0.0016
3640.0,0.0016
3639.0,0.0016
3638.0,0.0017
3637.0,0.0017
3636.0,0.0018
3635.0,0.0018
3634.0,0.0018
3633.0,0.0018
3632.0,0.0018
3631.0,0.0019
3630.0,0.002
3629.0,0.0019
3628.0,0.0018
3627.0,0.0017
3626.0,0.0017
3625.0,0.0017
3624.0,0.0018
3623.0,0.0019
3622.0,0.0019
3621.0,0.0018
3620.0,0.0017
3619.0,0.0015
3618.0,0.0015
3617.0,0.0016
3616.0,0.0018
3615.0,0.0019
3614.0,0.0019
3613.0,0.0018
3612.0,0.0018
3611.0,0.0017
3610.0,0.0017
3609.0,0.0018
3608.0,0.0018
3607.0,0.0019
3606.0,0.0018
3605.0,0.0018
3604.0,0.0017
3603.0,0.0017
3602.0,0.0016
3601.0,0.0016
3600.0,0.0017
3599.0,0.0017
3598.0,0.0017
3597.0,0.0016
3596.0,0.0016
3595.0,0.0016
3594.0,0.0017
3593.0,0.0017
3592.0,0.0017
3591.0,0.0017
3590.0,0.0018
3589.0,0.0018
3588.0,0.0018
3587.0,0.0018
3586.0,0.0018
3585.0,0.0018
3584.0,0.0018
3583.0,0.0018
3582.0,0.0019
3581.0,0.0019
3580.0,0.0019
3579.0,0.0019
3578.0,0.0019
3577.0,0.002
3576.0,0.0021
3575.0,0.0021
3574.0,0.002
3573.0,0.0019
3572.0,0.0019
3571.0,0.0018
3570.0,0.0017
3569.0,0.0016
3568.0,0.0014
3567.0,0.0013
3566.0,0.0014
3565.0,0.0016
3564.0,0.0018
3563.0,0.0019
3562.0,0.002
3561.0,0.002
3560.0,0.002
3559.0,0.0021
3558.0,0.0021
3557.0,0.0021
3556.0,0.002
3555.0,0.0019
3554.0,0.0019
3553.0,0.0019
3552.0,0.002
3551.0,0.002
3550.0,0.002
3549.0,0.0019
3548.0,0.0019
3547.0,0.0018
3546.0,0.0018
3545.0,0.0019
3544.0,0.002
3543.0,0.0021
3542.0,0.0022
3541.0,0.0022
3540.0,0.0022
3539.0,0.0021
3538.0,0.0021
3537.0,0.0021
3536.0,0.0021
3535.0,0.0022
3534.0,0.0022
3533.0,0.0022
3532.0,0.0021
3531.0,0.0021
3530.0,0.0022
3529.0,0.0022
3528.0,0.0023
3527.0,0.0023
3526.0,0.0022
3525.0,0.0022
3524.0,0.0021
3523.0,0.0021
3522.0,0.0022
3521.0,0.0023
3520.0,0.0024
3519.0,0.0024
3518.0,0.0023
3517.0,0.0022
3516.0,0.0021
3515.0,0.002
3514.0,0.0021
3513.0,0.0021
3512.0,0.0022
3511.0,0.0023
3510.0,0.0023
3509.0,0.0022
3508.0,0.002
3507.0,0.0019
3506.0,0.0018
3505.0,0.0018
3504.0,0.0019
3503.0,0.002
3502.0,0.0021
3501.0,0.0022
3500.0,0.0022
3499.0,0.0021
3498.0,0.0021
3497.0,0.0021
3496.0,0.0021
3495.0,0.0022
3494.0,0.0021
3493.0,0.0021
3492.0,0.0021
3491.0,0.0021
3490.0,0.0022
3489.0,0.0022
3488.0,0.0022
3487.0,0.0022
3486.0,0.0021
3485.0,0.0021
3484.0,0.0022
3483.0,0.0022
3482.0,0.0022
3481.0,0.0022
3480.0,0.0022
3479.0,0.0023
3478.0,0.0024
3477.0,0.0024
3476.0,0.0025
3475.0,0.0025
3474.0,0.0024
3473.0,0.0024
3472.0,0.0022
3471.0,0.0021
3470.0,0.002
3469.0,0.002
3468.0,0.0021
3467.0,0.0022
3466.0,0.0022
3465.0,0.0023
3464.0,0.0022
3463.0,0.0022
3462.0,0.002
3461.0,0.002
3460.0,0.002
3459.0,0.0021
3458.0,0.0022
3457.0,0.0022
3456.0,0.0022
3455.0,0.0022
3454.0,0.0022
3453.0,0.0022
3452.0,0.0022
3451.0,0.0022
3450.0,0.0021
3449.0,0.002
3448.0,0.0019
3447.0,0.0019
3446.0,0.002
3445.0,0.0021
3444.0,0.0022
3443.0,0.0023
3442.0,0.0023
3441.0,0.0022
3440.0,0.0022
3439.0,0.0022
3438.0,0.0022
3437.0,0.0023
3436.0,0.0023
3435.0,0.0023
3434.0,0.0022
3433.0,0.0023
3432.0,0.0024
3431.0,0.0024
3430.0,0.0024
3429.0,0.0024
3428.0,0.0023
3427.0,0.0023
3426.0,0.0023
3425.0,0.0023
3424.0,0.0022
3423.0,0.0022
3422.0,0.0021
3421.0,0.002
3420.0,0.0021
3419.0,0.0022
3418.0,0.0023
3417.0,0.0024
3416.0,0.0024
3415.0,0.0023
3414.0,0.0021
3413.0,0.002
3412.0,0.002
3411.0,0.0021
3410.0,0.0022
3409.0,0.0023
3408.0,0.0024
3407.0,0.0024
3406.0,0.0023
3405.0,0.0022
3404.0,0.0021
3403.0,0.0022
3402.0,0.0023
3401.0,0.0025
3400.0,0.0025
3399.0,0.0026
3398.0,0.0025
3397.0,0.0025
3396.0,0.0025
3395.0,0.0025
3394.0,0.0025
3393.0,0.0024
3392.0,0.0023
3391.0,0.0023
3390.0,0.0022
3389.0,0.0022
3388.0,0.0022
3387.0,0.0023
3386.0,0.0023
3385.0,0.0022
3384.0,0.0022
3383.0,0.0021
3382.0,0.0021
3381.0,0.0021
3380.0,0.0021
3379.0,0.0021
3378.0,0.0021
3377.0,0.0021
3376.0,0.0021
3375.0,0.0022
3374.0,0.0022
3373.0,0.0022
3372.0,0.0022
3371.0,0.0022
3370.0,0.0022
3369.0,0.0022
3368.0,0.0023
3367.0,0.0023
3366.0,0.0023
3365.0,0.0023
3364.0,0.0022
3363.0,0.0022
3362.0,0.0022
3361.0,0.0022
3360.0,0.0023
3359.0,0.0023
3358.0,0.0023
3357.0,0.0024
3356.0,0.0024
3355.0,0.0024
3354.0,0.0024
3353.0,0.0024
3352.0,0.0023
3351.0,0.0023
3350.0,0.0022
3349.0,0.0021
3348.0,0.0021
3347.0,0.0022
3346.0,0.0024
3345.0,0.0025
3344.0,0.0026
3343.0,0.0025
3342.0,0.0023
3341.0,0.0022
3340.0,0.0021
3339.0,0.0022
3338.0,0.0022
3337.0,0.0022
3336.0,0.0022
3335.0,0.0021
3334.0,0.0021
3333.0,0.0021
3332.0,0.002
3331.0,0.0021
3330.0,0.0021
3329.0,0.0021
3328.0,0.0021
3327.0,0.0022
3326.0,0.0022
3325.0,0.0023
3324.0,0.0022
3323.0,0.0022
3322.0,0.0021
3321.0,0.0021
3320.0,0.0021
3319.0,0.0022
3318.0,0.0022
3317.0,0.0024
3316.0,0.0025
3315.0,0.0026
3314.0,0.0027
3313.0,0.0027
3312.0,0.0026
3311.0,0.0025
3310.0,0.0024
3309.0,0.0024
3308.0,0.0024
3307.0,0.0024
3306.0,0.0024
3305.0,0.0024
3304.0,0.0024
3303.0,0.0024
3302.0,0.0024
3301.0,0.0024
3300.0,0.0024
3299.0,0.0024
3298.0,0.0025
3297.0,0.0025
3296.0,0.0025
3295.0,0.0024
3294.0,0.0023
3293.0,0.0023
3292.0,0.0022
3291.0,0.0022
3290.0,0.0022
3289.0,0.0022
3288.0,0.0022
3287.0,0.0023
3286.0,0.0023
3285.0,0.0023
3284.0,0.0023
3283.0,0.0022
3282.0,0.0022
3281.0,0.0022
3280.0,0.0023
3279.0,0.0024
3278.0,0.0025
3277.0,0.0025
3276.0,0.0025
3275.0,0.0025
3274.0,0.0023
3273.0,0.0022
3272.0,0.0022
3271.0,0.0022
3270.0,0.0022
3269.0,0.0022
3268.0,0.0022
3267.0,0.0023
3266.0,0.0024
3265.0,0.0024
3264.0,0.0024
3263.0,0.0024
3262.0,0.0023
3261.0,0.0023
3260.0,0.0023
3259.0,0.0023
3258.0,0.0023
3257.0,0.0023
3256.0,0.0023
3255.0,0.0022
3254.0,0.0022
3253.0,0.0022
3252.0,0.0023
3251.0,0.0023
3250.0,0.0023
3249.0,0.0022
3248.0,0.0022
3247.0,0.0021
3246.0,0.0021
3245.0,0.0022
3244.0,0.0023
3243.0,0.0024
3242.0,0.0024
3241.0,0.0023
3240.0,0.0023
3239.0,0.0023
3238.0,0.0023
3237.0,0.0023
3236.0,0.0022
3235.0,0.0022
3234.0,0.0021
3233.0,0.0021
3232.0,0.0021
3231.0,0.0021
3230.0,0.0022
3229.0,0.0022
3228.0,0.0022
3227.0,0.0022
3226.0,0.0023
3225.0,0.0024
3224.0,0.0024
3223.0,0.0024
3222.0,0.0024
3221.0,0.0023
3220.0,0.0023
3219.0,0.0023
3218.0,0.0024
3217.0,0.0024
3216.0,0.0024
3215.0,0.0024
3214.0,0.0024
3213.0,0.0024
3212.0,0.0025
3211.0,0.0025
3210.0,0.0024
3209.0,0.0024
3208.0,0.0023
3207.0,0.0022
3206.0,0.0022
3205.0,0.0023
3204.0,0.0023
3203.0,0.0023
3202.0,0.0023
3201.0,0.0023
3200.0,0.0023
3199.0,0.0024
3198.0,0.0024
3197.0,0.0024
3196.0,0.0023
3195.0,0.0022
3194.0,0.0022
3193.0,0.0022
3192.0,0.0022
3191.0,0.0022
3190.0,0.0022
3189.0,0.0022
3188.0,0.0022
3187.0,0.0022
3186.0,0.0022
3185.0,0.0022
3184.0,0.0022
3183.0,0.0021
3182.0,0.0021
3181.0,0.0021
3180.0,0.0021
3179.0,0.0021
3178.0,0.0022
3177.0,0.0022
3176.0,0.0021
3175.0,0.0021
3174.0,0.0021
3173.0,0.0021
3172.0,0.0021
3171.0,0.0021
3170.0,0.0021
3169.0,0.002
3168.0,0.002
3167.0,0.0021
3166.0,0.0022
3165.0,0.0022
3164.0,0.0022
3163.0,0.0021
3162.0,0.0021
3161.0,0.0021
3160.0,0.0021
3159.0,0.0021
3158.0,0.002
3157.0,0.002
3156.0,0.002
3155.0,0.002
3154.0,0.0021
3153.0,0.0023
3152.0,0.0024
3151.0,0.0024
3150.0,0.0024
3149.0,0.0023
3148.0,0.0022
3147.0,0.0021
3146.0,0.002
3145.0,0.002
3144.0,0.002
3143.0,0.0021
3142.0,0.0021
3141.0,0.0021
3140.0,0.0021
3139.0,0.0021
3138.0,0.002
3137.0,0.002
3136.0,0.002
3135.0,0.002
3134.0,0.002
3133.0,0.002
3132.0,0.002
3131.0,0.002
3130.0,0.002
3129.0,0.002
3128.0,0.0021
3127.0,0.0021
3126.0,0.0021
3125.0,0.0021
3124.0,0.0021
3123.0,0.0021
3122.0,0.0021
3121.0,0.002
3120.0,0.0019
3119.0,0.0019
3118.0,0.0019
3117.0,0.0019
3116.0,0.0019
3115.0,0.0018
3114.0,0.0018
3113.0,0.0018
3112.0,0.0019
3111.0,0.002
3110.0,0.0021
3109.0,0.0021
3108.0,0.002
3107.0,0.0019
3106.0,0.0018
3105.0,0.0017
3104.0,0.0017
3103.0,0.0017
3102.0,0.0018
3101.0,0.0018
3100.0,0.0019
3099.0,0.002
3098.0,0.002
3097.0,0.002
3096.0,0.002
3095.0,0.002
3094.0,0.0019
3093.0,0.0019
3092.0,0.0019
3091.0,0.0019
3090.0,0.0019
3089.0,0.0019
3088.0,0.0019
3087.0,0.0018
3086.0,0.0018
3085.0,0.0018
3084.0,0.0017
3083.0,0.0017
3082.0,0.0018
3081.0,0.0018
3080.0,0.0019
3079.0,0.0019
3078.0,0.0019
3077.0,0.0019
3076.0,0.0019
3075.0,0.0019
3074.0,0.0019
3073.0,0.0019
3072.0,0.0019
3071.0,0.0019
3070.0,0.0018
3069.0,0.0017
3068.0,0.0017
3067.0,0.0017
3066.0,0.0018
3065.0,0.0018
3064.0,0.0019
3063.0,0.0019
3062.0,0.0019
3061.0,0.0019
3060.0,0.0019
3059.0,0.0019
3058.0,0.0019
3057.0,0.0019
3056.0,0.0019
3055.0,0.0018
3054.0,0.0018
3053.0,0.0018
3052.0,0.0018
3051.0,0.0019
3050.0,0.0019
3049.0,0.0019
3048.0,0.0019
3047.0,0.0018
3046.0,0.0018
3045.0,0.0018
3044.0,0.0018
3043.0,0.0018
3042.0,0.0017
3041.0,0.0017
3040.0,0.0016
3039.0,0.0016
3038.0,0.0016
3037.0,0.0016
3036.0,0.0016
3035.0,0.0016
3034.0,0.0016
3033.0,0.0016
3032.0,0.0017
3031.0,0.0017
3030.0,0.0018
3029.0,0.0018
3028.0,0.0018
3027.0,0.0018
3026.0,0.0017
3025.0,0.0016
3024.0,0.0016
3023.0,0.0015
3022.0,0.0015
3021.0,0.0015
3020.0,0.0015
3019.0,0.0015
3018.0,0.0015
3017.0,0.0015
3016.0,0.0015
3015.0,0.0015
3014.0,0.0015
3013.0,0.0015
3012.0,0.0015
3011.0,0.0015
3010.0,0.0015
3009.0,0.0015
3008.0,0.0015
3007.0,0.0015
3006.0,0.0014
3005.0,0.0014
3004.0,0.0014
3003.0,0.0014
3002.0,0.0014
3001.0,0.0014
3000.0,0.0015
2999.0,0.0015
2998.0,0.0015
2997.0,0.0015
2996.0,0.0014
2995.0,0.0014
2994.0,0.0014
2993.0,0.0014
2992.0,0.0014
2991.0,0.0013
2990.0,0.0014
2989.0,0.0014
2988.0,0.0015
2987.0,0.0015
2986.0,0.0016
2985.0,0.0016
2984.0,0.0017
2983.0,0.0018
2982.0,0.0018
2981.0,0.0019
2980.0,0.002
2979.0,0.0021
2978.0,0.0022
2977.0,0.0024
2976.0,0.0026
2975.0,0.0027
2974.0,0.0029
2973.0,0.0032
2972.0,0.0035
2971.0,0.0037
2970.0,0.004
2969.0,0.0044
2968.0,0.0047
2967.0,0.0051
2966.0,0.0056
2965.0,0.006
2964.0,0.0065
2963.0,0.0069
2962.0,0.0073
2961.0,0.0077
2960.0,0.0079
2959.0,0.0082
2958.0,0.0084
2957.0,0.0086
2956.0,0.0088
2955.0,0.009
2954.0,0.0093
2953.0,0.0096
2952.0,0.0098
2951.0,0.01
2950.0,0.0101
2949.0,0.01
2948.0,0.0098
2947.0,0.0094
2946.0,0.0089
2945.0,0.0084
2944.0,0.0079
2943.0,0.0074
2942.0,0.0069
2941.0,0.0066
2940.0,0.0064
2939.0,0.0064
2938.0,0.0065
2937.0,0.0067
2936.0,0.0068
2935.0,0.007
2934.0,0.0073
2933.0,0.0077
2932.0,0.0082
2931.0,0.0087
2930.0,0.0092
2929.0,0.0097
2928.0,0.0102
2927.0,0.0107
2926.0,0.0111
2925.0,0.0115
2924.0,0.0119
2923.0,0.0123
2922.0,0.0127
2921.0,0.0131
2920.0,0.0134
2919.0,0.0137
2918.0,0.0138
2917.0,0.0139
2916.0,0.0137
2915.0,0.0135
2914.0,0.0132
2913.0,0.0129
2912.0,0.0125
2911.0,0.0121
2910.0,0.0117
2909.0,0.0114
2908.0,0.0112
2907.0,0.0109
2906.0,0.0107
2905.0,0.0104
2904.0,0.01
2903.0,0.0097
2902.0,0.0094
2901.0,0.0091
2900.0,0.0089
2899.0,0.0086
2898.0,0.0084
2897.0,0.0082
2896.0,0.008
2895.0,0.0078
2894.0,0.0076
2893.0,0.0075
2892.0,0.0074
2891.0,0.0074
2890.0,0.0074
2889.0,0.0074
2888.0,0.0074
2887.0,0.0073
2886.0,0.0073
2885.0,0.0074
2884.0,0.0075
2883.0,0.0076
2882.0,0.0077
2881.0,0.0078
2880.0,0.0079
2879.0,0.008
2878.0,0.0081
2877.0,0.0082
2876.0,0.0082
2875.0,0.0081
2874.0,0.008
2873.0,0.0079
2872.0,0.0079
2871.0,0.0079
2870.0,0.008
2869.0,0.0081
2868.0,0.0082
2867.0,0.0082
2866.0,0.008
2865.0,0.0078
2864.0,0.0075
2863.0,0.0072
2862.0,0.0069
2861.0,0.0066
2860.0,0.0064
2859.0,0.0062
2858.0,0.0061
2857.0,0.0061
2856.0,0.0062
2855.0,0.0063
2854.0,0.0064
2853.0,0.0065
2852.0,0.0066
2851.0,0.0066
2850.0,0.0067
2849.0,0.0067
2848.0,0.0067
2847.0,0.0067
2846.0,0.0067
2845.0,0.0068
2844.0,0.007
2843.0,0.0072
2842.0,0.0076
2841.0,0.0079
2840.0,0.0082
2839.0,0.0084
2838.0,0.0085
2837.0,0.0084
2836.0,0.0082
2835.0,0.008
2834.0,0.0076
2833.0,0.0072
2832.0,0.0068
2831.0,0.0064
2830.0,0.006
2829.0,0.0057
2828.0,0.0054
2827.0,0.0051
2826.0,0.0049
2825.0,0.0048
2824.0,0.0047
2823.0,0.0047
2822.0,0.0047
2821.0,0.0046
2820.0,0.0045
2819.0,0.0043
2818.0,0.0041
2817.0,0.004
2816.0,0.004
2815.0,0.004
2814.0,0.004
2813.0,0.004
2812.0,0.004
2811.0,0.0039
2810.0,0.0039
2809.0,0.0038
2808.0,0.0038
2807.0,0.0038
2806.0,0.0037
2805.0,0.0037
2804.0,0.0037
2803.0,0.0036
2802.0,0.0036
2801.0,0.0035
2800.0,0.0034
2799.0,0.0033
2798.0,0.0032
2797.0,0.0033
2796.0,0.0033
2795.0,0.0034
2794.0,0.0034
2793.0,0.0034
2792.0,0.0034
2791.0,0.0034
2790.0,0.0034
2789.0,0.0034
2788.0,0.0034
2787.0,0.0034
2786.0,0.0033
2785.0,0.0033
2784.0,0.0032
2783.0,0.0031
2782.0,0.003
2781.0,0.0029
2780.0,0.003
2779.0,0.0031
2778.0,0.0032
2777.0,0.0032
2776.0,0.0031
2775.0,0.003
2774.0,0.003
2773.0,0.0029
2772.0,0.0029
2771.0,0.003
2770.0,0.003
2769.0,0.003
2768.0,0.003
2767.0,0.003
2766.0,0.003
2765.0,0.003
2764.0,0.003
2763.0,0.0029
2762.0,0.0028
2761.0,0.0029
2760.0,0.0029
2759.0,0.003
2758.0,0.0031
2757.0,0.0031
2756.0,0.003
2755.0,0.003
2754.0,0.0029
2753.0,0.0028
2752.0,0.0028
2751.0,0.0027
2750.0,0.0027
2749.0,0.0027
2748.0,0.0027
2747.0,0.0027
2746.0,0.0027
2745.0,0.0028
2744.0,0.0028
2743.0,0.0028
2742.0,0.0027
2741.0,0.0027
2740.0,0.0027
2739.0,0.0027
2738.0,0.0028
2737.0,0.0028
2736.0,0.0029
2735.0,0.0029
2734.0,0.0029
2733.0,0.0029
2732.0,0.0029
2731.0,0.0029
2730.0,0.0029
2729.0,0.0029
2728.0,0.0029
2727.0,0.003
2726.0,0.003
2725.0,0.003
2724.0,0.0031
2723.0,0.0031
2722.0,0.003
2721.0,0.003
2720.0,0.003
2719.0,0.003
2718.0,0.003
2717.0,0.003
2716.0,0.003
2715.0,0.0029
2714.0,0.0028
2713.0,0.0027
2712.0,0.0027
2711.0,0.0028
2710.0,0.0028
2709.0,0.0029
2708.0,0.0029
2707.0,0.0028
2706.0,0.0028
2705.0,0.0027
2704.0,0.0027
2703.0,0.0027
2702.0,0.0027
2701.0,0.0027
2700.0,0.0027
2699.0,0.0027
2698.0,0.0027
2697.0,0.0027
2696.0,0.0027
2695.0,0.0027
2694.0,0.0027
2693.0,0.0027
2692.0,0.0026
2691.0,0.0026
2690.0,0.0026
2689.0,0.0026
2688.0,0.0027
2687.0,0.0027
2686.0,0.0027
2685.0,0.0027
2684.0,0.0027
2683.0,0.0026
2682.0,0.0026
2681.0,0.0025
2680.0,0.0025
2679.0,0.0025
2678.0,0.0026
2677.0,0.0026
2676.0,0.0027
2675.0,0.0027
2674.0,0.0027
2673.0,0.0026
2672.0,0.0026
2671.0,0.0026
2670.0,0.0026
2669.0,0.0026
2668.0,0.0027
2667.0,0.0027
2666.0,0.0028
2665.0,0.0028
2664.0,0.0028
2663.0,0.0028
2662.0,0.0028
2661.0,0.0027
2660.0,0.0026
2659.0,0.0026
2658.0,0.0027
2657.0,0.0027
2656.0,0.0027
2655.0,0.0027
2654.0,0.0026
2653.0,0.0026
2652.0,0.0026
2651.0,0.0026
2650.0,0.0027
2649.0,0.0027
2648.0,0.0027
2647.0,0.0026
2646.0,0.0026
2645.0,0.0027
2644.0,0.0027
2643.0,0.0026
2642.0,0.0026
2641.0,0.0026
2640.0,0.0026
2639.0,0.0026
2638.0,0.0026
2637.0,0.0026
2636.0,0.0026
2635.0,0.0026
2634.0,0.0026
2633.0,0.0026
2632.0,0.0026
2631.0,0.0027
2630.0,0.0027
2629.0,0.0027
2628.0,0.0027
2627.0,0.0027
2626.0,0.0026
2625.0,0.0026
2624.0,0.0025
2623.0,0.0025
2622.0,0.0025
2621.0,0.0025
2620.0,0.0026
2619.0,0.0026
2618.0,0.0027
2617.0,0.0027
2616.0,0.0027
2615.0,0.0027
2614.0,0.0028
2613.0,0.0028
2612.0,0.0027
2611.0,0.0027
2610.0,0.0027
2609.0,0.0027
2608.0,0.0027
2607.0,0.0027
2606.0,0.0027
2605.0,0.0027
2604.0,0.0026
2603.0,0.0026
2602.0,0.0025
2601.0,0.0025
2600.0,0.0025
2599.0,0.0025
2598.0,0.0026
2597.0,0.0026
2596.0,0.0027
2595.0,0.0027
2594.0,0.0027
2593.0,0.0027
2592.0,0.0026
2591.0,0.0025
2590.0,0.0025
2589.0,0.0025
2588.0,0.0025
2587.0,0.0026
2586.0,0.0026
2585.0,0.0026
2584.0,0.0026
2583.0,0.0026
2582.0,0.0026
2581.0,0.0026
2580.0,0.0027
2579.0,0.0028
2578.0,0.0028
2577.0,0.0028
2576.0,0.0027
2575.0,0.0026
2574.0,0.0026
2573.0,0.0026
2572.0,0.0026
2571.0,0.0026
2570.0,0.0026
2569.0,0.0026
2568.0,0.0026
2567.0,0.0026
2566.0,0.0025
2565.0,0.0025
2564.0,0.0024
2563.0,0.0024
2562.0,0.0024
2561.0,0.0023
2560.0,0.0023
2559.0,0.0024
2558.0,0.0024
2557.0,0.0024
2556.0,0.0024
2555.0,0.0025
2554.0,0.0025
2553.0,0.0026
2552.0,0.0026
2551.0,0.0027
2550.0,0.0028
2549.0,0.0028
2548.0,0.0027
2547.0,0.0027
2546.0,0.0026
2545.0,0.0025
2544.0,0.0025
2543.0,0.0025
2542.0,0.0024
2541.0,0.0024
2540.0,0.0025
2539.0,0.0025
2538.0,0.0025
2537.0,0.0025
2536.0,0.0025
2535.0,0.0025
2534.0,0.0025
2533.0,0.0025
2532.0,0.0025
2531.0,0.0025
2530.0,0.0025
2529.0,0.0026
2528.0,0.0026
2527.0,0.0026
2526.0,0.0027
2525.0,0.0026
2524.0,0.0026
2523.0,0.0026
2522.0,0.0026
2521.0,0.0026
2520.0,0.0025
2519.0,0.0025
2518.0,0.0024
2517.0,0.0023
2516.0,0.0023
2515.0,0.0023
2514.0,0.0023
2513.0,0.0023
2512.0,0.0024
2511.0,0.0024
2510.0,0.0025
2509.0,0.0025
2508.0,0.0024
2507.0,0.0024
2506.0,0.0023
2505.0,0.0022
2504.0,0.0022
2503.0,0.0022
2502.0,0.0022
2501.0,0.0023
2500.0,0.0023
2499.0,0.0024
2498.0,0.0024
2497.0,0.0025
2496.0,0.0025
2495.0,0.0025
2494.0,0.0025
2493.0,0.0024
2492.0,0.0024
2491.0,0.0023
2490.0,0.0023
2489.0,0.0023
2488.0,0.0023
2487.0,0.0024
2486.0,0.0024
2485.0,0.0024
2484.0,0.0024
2483.0,0.0024
2482.0,0.0025
2481.0,0.0024
2480.0,0.0025
2479.0,0.0025
2478.0,0.0026
2477.0,0.0026
2476.0,0.0026
2475.0,0.0027
2474.0,0.0026
2473.0,0.0026
2472.0,0.0026
2471.0,0.0025
2470.0,0.0025
2469.0,0.0025
2468.0,0.0024
2467.0,0.0024
2466.0,0.0024
2465.0,0.0025
2464.0,0.0025
2463.0,0.0024
2462.0,0.0024
2461.0,0.0023
2460.0,0.0022
2459.0,0.0022
2458.0,0.0023
2457.0,0.0024
2456.0,0.0024
2455.0,0.0025
2454.0,0.0025
2453.0,0.0026
2452.0,0.0026
2451.0,0.0025
2450.0,0.0025
2449.0,0.0025
2448.0,0.0025
2447.0,0.0025
2446.0,0.0025
2445.0,0.0025
2444.0,0.0025
2443.0,0.0025
2442.0,0.0025
2441.0,0.0025
2440.0,0.0025
2439.0,0.0025
2438.0,0.0025
2437.0,0.0024
2436.0,0.0024
2435.0,0.0024
2434.0,0.0024
2433.0,0.0023
2432.0,0.0024
2431.0,0.0024
2430.0,0.0025
2429.0,0.0025
2428.0,0.0026
2427.0,0.0025
2426.0,0.0025
2425.0,0.0025
2424.0,0.0025
2423.0,0.0025
2422.0,0.0025
2421.0,0.0024
2420.0,0.0024
2419.0,0.0024
2418.0,0.0024
2417.0,0.0024
2416.0,0.0024
2415.0,0.0024
2414.0,0.0024
2413.0,0.0025
2412.0,0.0026
2411.0,0.0026
2410.0,0.0026
2409.0,0.0025
2408.0,0.0025
2407.0,0.0025
2406.0,0.0025
2405.0,0.0025
2404.0,0.0025
2403.0,0.0025
2402.0,0.0025
2401.0,0.0025
2400.0,0.0025
2399.0,0.0024
2398.0,0.0024
2397.0,0.0024
2396.0,0.0023
2395.0,0.0023
2394.0,0.0023
2393.0,0.0024
2392.0,0.0024
2391.0,0.0024
2390.0,0.0024
2389.0,0.0024
2388.0,0.0023
2387.0,0.0021
2386.0,0.0019
2385.0,0.0018
2384.0,0.0017
2383.0,0.0015
2382.0,0.0014
2381.0,0.0012
2380.0,0.0012
2379.0,0.0012
2378.0,0.0014
2377.0,0.0015
2376.0,0.0014
2375.0,0.001
2374.0,0.0004
2373.0,-0.0004
2372.0,-0.001
2371.0,-0.0013
2370.0,-0.0014
2369.0,-0.0015
2368.0,-0.0016
2367.0,-0.0014
2366.0,-0.0009
2365.0,-0.0001
2364.0,0.001
2363.0,0.0026
2362.0,0.005
2361.0,0.0072
2360.0,0.0077
2359.0,0.0061
2358.0,0.0036
2357.0,0.002
2356.0,0.0014
2355.0,0.0011
2354.0,0.0009
2353.0,0.0006
2352.0,0.0003
2351.0,0.0002
2350.0,0.0001
2349.0,0.0001
2348.0,0.0001
2347.0,0.0001
2346.0,-0.0002
2345.0,-0.0008
2344.0,-0.0015
2343.0,-0.0022
2342.0,-0.0029
2341.0,-0.0032
2340.0,-0.0027
2339.0,-0.0016
2338.0,-0.0005
2337.0,-0.0002
2336.0,-0.0008
2335.0,-0.0019
2334.0,-0.0029
2333.0,-0.0031
2332.0,-0.0025
2331.0,-0.0014
2330.0,-0.0004
2329.0,-0.0001
2328.0,-0.0002
2327.0,-0.0002
2326.0,0.0002
2325.0,0.0008
2324.0,0.001
2323.0,0.0009
2322.0,0.0005
2321.0,0.0002
2320.0,0.0001
2319.0,0.0002
2318.0,0.0004
2317.0,0.0006
2316.0,0.0007
2315.0,0.0007
2314.0,0.0007
2313.0,0.0006
2312.0,0.0005
2311.0,0.0006
2310.0,0.0007
2309.0,0.0008
2308.0,0.0009
2307.0,0.001
2306.0,0.0011
2305.0,0.0012
2304.0,0.0012
2303.0,0.0013
2302.0,0.0013
2301.0,0.0013
2300.0,0.0014
2299.0,0.0014
2298.0,0.0014
2297.0,0.0014
2296.0,0.0015
2295.0,0.0016
2294.0,0.0017
2293.0,0.0017
2292.0,0.0018
2291.0,0.0018
2290.0,0.0018
2289.0,0.002
2288.0,0.0021
2287.0,0.0022
2286.0,0.0023
2285.0,0.0023
2284.0,0.0023
2283.0,0.0023
2282.0,0.0023
2281.0,0.0023
2280.0,0.0023
2279.0,0.0023
2278.0,0.0023
2277.0,0.0022
2276.0,0.0022
2275.0,0.0022
2274.0,0.0022
2273.0,0.0022
2272.0,0.0022
2271.0,0.0023
2270.0,0.0023
2269.0,0.0023
2268.0,0.0023
2267.0,0.0023
2266.0,0.0023
2265.0,0.0023
2264.0,0.0023
2263.0,0.0023
2262.0,0.0023
2261.0,0.0023
2260.0,0.0023
2259.0,0.0023
2258.0,0.0022
2257.0,0.0022
2256.0,0.0023
2255.0,0.0024
2254.0,0.0025
2253.0,0.0025
2252.0,0.0025
2251.0,0.0024
2250.0,0.0024
2249.0,0.0024
2248.0,0.0024
2247.0,0.0025
2246.0,0.0024
2245.0,0.0024
2244.0,0.0023
2243.0,0.0023
2242.0,0.0023
2241.0,0.0024
2240.0,0.0025
2239.0,0.0025
2238.0,0.0026
2237.0,0.0026
2236.0,0.0025
2235.0,0.0024
2234.0,0.0024
2233.0,0.0024
2232.0,0.0024
2231.0,0.0024
2230.0,0.0024
2229.0,0.0024
2228.0,0.0024
2227.0,0.0024
2226.0,0.0023
2225.0,0.0024
2224.0,0.0024
2223.0,0.0024
2222.0,0.0024
2221.0,0.0024
2220.0,0.0024
2219.0,0.0024
2218.0,0.0024
2217.0,0.0023
2216.0,0.0023
2215.0,0.0023
2214.0,0.0024
2213.0,0.0024
2212.0,0.0024
2211.0,0.0025
2210.0,0.0025
2209.0,0.0024
2208.0,0.0023
2207.0,0.0023
2206.0,0.0023
2205.0,0.0023
2204.0,0.0024
2203.0,0.0024
2202.0,0.0024
2201.0,0.0025
2200.0,0.0025
2199.0,0.0025
2198.0,0.0025
2197.0,0.0025
2196.0,0.0025
2195.0,0.0025
2194.0,0.0025
2193.0,0.0025
2192.0,0.0025
2191.0,0.0025
2190.0,0.0024
2189.0,0.0025
2188.0,0.0025
2187.0,0.0026
2186.0,0.0026
2185.0,0.0025
2184.0,0.0025
2183.0,0.0025
2182.0,0.0025
2181.0,0.0024
2180.0,0.0023
2179.0,0.0023
2178.0,0.0023
2177.0,0.0023
2176.0,0.0023
2175.0,0.0024
2174.0,0.0024
2173.0,0.0024
2172.0,0.0023
2171.0,0.0023
2170.0,0.0023
2169.0,0.0024
2168.0,0.0024
2167.0,0.0024
2166.0,0.0025
2165.0,0.0025
2164.0,0.0025
2163.0,0.0025
2162.0,0.0025
2161.0,0.0026
2160.0,0.0026
2159.0,0.0026
2158.0,0.0026
2157.0,0.0025
2156.0,0.0025
2155.0,0.0024
2154.0,0.0024
2153.0,0.0024
2152.0,0.0025
2151.0,0.0025
2150.0,0.0025
2149.0,0.0025
2148.0,0.0024
2147.0,0.0024
2146.0,0.0023
2145.0,0.0023
2144.0,0.0023
2143.0,0.0023
2142.0,0.0023
2141.0,0.0023
2140.0,0.0023
2139.0,0.0024
2138.0,0.0024
2137.0,0.0025
2136.0,0.0025
2135.0,0.0025
2134.0,0.0025
2133.0,0.0025
2132.0,0.0025
2131.0,0.0025
2130.0,0.0024
2129.0,0.0024
2128.0,0.0024
2127.0,0.0024
2126.0,0.0024
2125.0,0.0024
2124.0,0.0023
2123.0,0.0023
2122.0,0.0023
2121.0,0.0023
2120.0,0.0024
2119.0,0.0024
2118.0,0.0024
2117.0,0.0025
2116.0,0.0025
2115.0,0.0025
2114.0,0.0025
2113.0,0.0025
2112.0,0.0025
2111.0,0.0025
2110.0,0.0025
2109.0,0.0024
2108.0,0.0024
2107.0,0.0024
2106.0,0.0024
2105.0,0.0024
2104.0,0.0024
2103.0,0.0024
2102.0,0.0024
2101.0,0.0024
2100.0,0.0024
2099.0,0.0024
2098.0,0.0024
2097.0,0.0024
2096.0,0.0024
2095.0,0.0024
2094.0,0.0024
2093.0,0.0024
2092.0,0.0024
2091.0,0.0024
2090.0,0.0024
2089.0,0.0024
2088.0,0.0024
2087.0,0.0024
2086.0,0.0024
2085.0,0.0024
2084.0,0.0025
2083.0,0.0025
2082.0,0.0025
2081.0,0.0025
2080.0,0.0025
2079.0,0.0025
2078.0,0.0025
2077.0,0.0025
2076.0,0.0024
2075.0,0.0024
2074.0,0.0024
2073.0,0.0024
2072.0,0.0024
2071.0,0.0024
2070.0,0.0024
2069.0,0.0024
2068.0,0.0024
2067.0,0.0025
2066.0,0.0025
2065.0,0.0026
2064.0,0.0025
2063.0,0.0025
2062.0,0.0024
2061.0,0.0024
2060.0,0.0023
2059.0,0.0023
2058.0,0.0023
2057.0,0.0023
2056.0,0.0023
2055.0,0.0023
2054.0,0.0024
2053.0,0.0025
2052.0,0.0025
2051.0,0.0025
2050.0,0.0025
2049.0,0.0025
2048.0,0.0025
2047.0,0.0024
2046.0,0.0023
2045.0,0.0024
2044.0,0.0024
2043.0,0.0025
2042.0,0.0025
2041.0,0.0025
2040.0,0.0025
2039.0,0.0025
2038.0,0.0025
2037.0,0.0025
2036.0,0.0025
2035.0,0.0025
2034.0,0.0025
2033.0,0.0024
2032.0,0.0024
2031.0,0.0023
2030.0,0.0023
2029.0,0.0023
2028.0,0.0023
2027.0,0.0024
2026.0,0.0024
2025.0,0.0024
2024.0,0.0024
2023.0,0.0024
2022.0,0.0024
2021.0,0.0024
2020.0,0.0024
2019.0,0.0024
2018.0,0.0024
2017.0,0.0024
2016.0,0.0025
2015.0,0.0025
2014.0,0.0025
2013.0,0.0025
2012.0,0.0025
2011.0,0.0025
2010.0,0.0024
2009.0,0.0024
2008.0,0.0024
2007.0,0.0024
2006.0,0.0024
2005.0,0.0024
2004.0,0.0023
2003.0,0.0023
2002.0,0.0023
2001.0,0.0023
2000.0,0.0023
1999.0,0.0023
1998.0,0.0024
1997.0,0.0024
1996.0,0.0024
1995.0,0.0024
1994.0,0.0024
1993.0,0.0024
1992.0,0.0024
1991.0,0.0024
1990.0,0.0024
1989.0,0.0024
1988.0,0.0024
1987.0,0.0024
1986.0,0.0024
1985.0,0.0024
1984.0,0.0024
1983.0,0.0023
1982.0,0.0023
1981.0,0.0023
1980.0,0.0023
1979.0,0.0024
1978.0,0.0024
1977.0,0.0024
1976.0,0.0024
1975.0,0.0024
1974.0,0.0023
1973.0,0.0024
1972.0,0.0024
1971.0,0.0024
1970.0,0.0025
1969.0,0.0025
1968.0,0.0025
1967.0,0.0024
1966.0,0.0024
1965.0,0.0024
1964.0,0.0024
1963.0,0.0024
1962.0,0.0024
1961.0,0.0024
1960.0,0.0024
1959.0,0.0024
1958.0,0.0024
1957.0,0.0024
1956.0,0.0025
1955.0,0.0025
1954.0,0.0025
1953.0,0.0024
1952.0,0.0023
1951.0,0.0023
1950.0,0.0023
1949.0,0.0023
1948.0,0.0024
1947.0,0.0024
1946.0,0.0025
1945.0,0.0025
1944.0,0.0024
1943.0,0.0024
1942.0,0.0024
1941.0,0.0023
1940.0,0.0023
1939.0,0.0023
1938.0,0.0023
1937.0,0.0023
1936.0,0.0023
1935.0,0.0024
1934.0,0.0025
1933.0,0.0025
1932.0,0.0025
1931.0,0.0025
1930.0,0.0024
1929.0,0.0025
1928.0,0.0025
1927.0,0.0025
1926.0,0.0025
1925.0,0.0024
1924.0,0.0023
1923.0,0.0023
1922.0,0.0023
1921.0,0.0023
1920.0,0.0023
1919.0,0.0024
1918.0,0.0024
1917.0,0.0024
1916.0,0.0024
1915.0,0.0024
1914.0,0.0024
1913.0,0.0024
1912.0,0.0024
1911.0,0.0024
1910.0,0.0023
1909.0,0.0023
1908.0,0.0023
1907.0,0.0023
1906.0,0.0024
1905.0,0.0024
1904.0,0.0024
1903.0,0.0024
1902.0,0.0024
1901.0,0.0024
1900.0,0.0024
1899.0,0.0024
1898.0,0.0024
1897.0,0.0024
1896.0,0.0024
1895.0,0.0024
1894.0,0.0024
1893.0,0.0024
1892.0,0.0024
1891.0,0.0024
1890.0,0.0025
1889.0,0.0025
1888.0,0.0026
1887.0,0.0026
1886.0,0.0026
1885.0,0.0025
1884.0,0.0025
1883.0,0.0024
1882.0,0.0024
1881.0,0.0024
1880.0,0.0023
1879.0,0.0023
1878.0,0.0023
1877.0,0.0023
1876.0,0.0024
1875.0,0.0024
1874.0,0.0025
1873.0,0.0025
1872.0,0.0025
1871.0,0.0024
1870.0,0.0024
1869.0,0.0023
1868.0,0.0024
1867.0,0.0024
1866.0,0.0024
1865.0,0.0025
1864.0,0.0025
1863.0,0.0025
1862.0,0.0024
1861.0,0.0024
1860.0,0.0025
1859.0,0.0025
1858.0,0.0025
1857.0,0.0025
1856.0,0.0024
1855.0,0.0024
1854.0,0.0024
1853.0,0.0024
1852.0,0.0024
1851.0,0.0024
1850.0,0.0024
1849.0,0.0024
1848.0,0.0024
1847.0,0.0024
1846.0,0.0024
1845.0,0.0024
1844.0,0.0024
1843.0,0.0024
1842.0,0.0024
1841.0,0.0024
1840.0,0.0025
1839.0,0.0025
1838.0,0.0025
1837.0,0.0025
1836.0,0.0024
1835.0,0.0024
1834.0,0.0024
1833.0,0.0023
1832.0,0.0023
1831.0,0.0022
1830.0,0.0023
1829.0,0.0023
1828.0,0.0024
1827.0,0.0025
1826.0,0.0025
1825.0,0.0024
1824.0,0.0024
1823.0,0.0024
1822.0,0.0024
1821.0,0.0024
1820.0,0.0025
1819.0,0.0025
1818.0,0.0025
1817.0,0.0025
1816.0,0.0026
1815.0,0.0026
1814.0,0.0025
1813.0,0.0025
1812.0,0.0025
1811.0,0.0024
1810.0,0.0024
1809.0,0.0024
1808.0,0.0024
1807.0,0.0025
1806.0,0.0025
1805.0,0.0025
1804.0,0.0025
1803.0,0.0025
1802.0,0.0024
1801.0,0.0024
1800.0,0.0024
1799.0,0.0024
1798.0,0.0024
1797.0,0.0024
1796.0,0.0024
1795.0,0.0025
1794.0,0.0025
1793.0,0.0024
1792.0,0.0024
1791.0,0.0023
1790.0,0.0024
1789.0,0.0024
1788.0,0.0025
1787.0,0.0025
1786.0,0.0025
1785.0,0.0025
1784.0,0.0025
1783.0,0.0025
1782.0,0.0024
1781.0,0.0024
1780.0,0.0024
1779.0,0.0025
1778.0,0.0026
1777.0,0.0026
1776.0,0.0026
1775.0,0.0026
1774.0,0.0026
1773.0,0.0026
1772.0,0.0026
1771.0,0.0026
1770.0,0.0026
1769.0,0.0026
1768.0,0.0026
1767.0,0.0026
1766.0,0.0026
1765.0,0.0025
1764.0,0.0025
1763.0,0.0025
1762.0,0.0025
1761.0,0.0025
1760.0,0.0025
1759.0,0.0026
1758.0,0.0026
1757.0,0.0027
1756.0,0.0027
1755.0,0.0027
1754.0,0.0027
1753.0,0.0027
1752.0,0.0026
1751.0,0.0026
1750.0,0.0026
1749.0,0.0026
1748.0,0.0026
1747.0,0.0027
1746.0,0.0028
1745.0,0.0028
1744.0,0.0028
1743.0,0.0028
1742.0,0.0028
1741.0,0.0029
1740.0,0.0029
1739.0,0.0029
1738.0,0.0029
1737.0,0.0029
1736.0,0.0029
1735.0,0.0029
1734.0,0.0029
1733.0,0.0029
1732.0,0.0029
1731.0,0.0029
1730.0,0.0029
1729.0,0.0029
1728.0,0.0029
1727.0,0.0029
1726.0,0.0029
1725.0,0.0029
1724.0,0.003
1723.0,0.003
1722.0,0.0029
1721.0,0.0029
1720.0,0.0028
1719.0,0.0028
1718.0,0.0027
1717.0,0.0027
1716.0,0.0027
1715.0,0.0027
1714.0,0.0027
1713.0,0.0027
1712.0,0.0028
1711.0,0.0028
1710.0,0.0029
1709.0,0.0029
1708.0,0.0029
1707.0,0.0028
1706.0,0.0028
1705.0,0.0028
1704.0,0.0028
1703.0,0.0029
1702.0,0.0029
1701.0,0.0029
1700.0,0.003
1699.0,0.003
1698.0,0.003
1697.0,0.003
1696.0,0.003
1695.0,0.003
1694.0,0.003
1693.0,0.003
1692.0,0.003
1691.0,0.003
1690.0,0.0029
1689.0,0.0029
1688.0,0.003
1687.0,0.003
1686.0,0.0031
1685.0,0.0031
1684.0,0.0031
1683.0,0.003
1682.0,0.0029
1681.0,0.0029
1680.0,0.003
1679.0,0.003
1678.0,0.003
1677.0,0.0031
1676.0,0.0031
1675.0,0.0031
1674.0,0.0031
1673.0,0.0032
1672.0,0.0032
1671.0,0.0032
1670.0,0.0032
1669.0,0.0032
1668.0,0.0032
1667.0,0.0032
1666.0,0.0032
1665.0,0.0032
1664.0,0.0032
1663.0,0.0033
1662.0,0.0033
1661.0,0.0033
1660.0,0.0033
1659.0,0.0033
1658.0,0.0033
1657.0,0.0033
1656.0,0.0033
1655.0,0.0033
1654.0,0.0035
1653.0,0.0035
1652.0,0.0034
1651.0,0.0034
1650.0,0.0034
1649.0,0.0034
1648.0,0.0033
1647.0,0.0032
1646.0,0.0032
1645.0,0.0032
1644.0,0.0033
1643.0,0.0033
1642.0,0.0033
1641.0,0.0033
1640.0,0.0033
1639.0,0.0032
1638.0,0.0031
1637.0,0.003
1636.0,0.0029
1635.0,0.003
1634.0,0.0032
1633.0,0.0033
1632.0,0.0034
1631.0,0.0034
1630.0,0.0033
1629.0,0.0033
1628.0,0.0032
1627.0,0.0032
1626.0,0.0032
1625.0,0.0033
1624.0,0.0033
1623.0,0.0033
1622.0,0.0032
1621.0,0.0032
1620.0,0.0032
1619.0,0.0031
1618.0,0.0031
1617.0,0.0031
1616.0,0.0031
1615.0,0.0031
1614.0,0.0031
1613.0,0.0031
1612.0,0.0032
1611.0,0.0032
1610.0,0.0031
1609.0,0.0031
1608.0,0.0031
1607.0,0.0031
1606.0,0.0031
1605.0,0.0031
1604.0,0.0031
1603.0,0.003
1602.0,0.003
1601.0,0.003
1600.0,0.003
1599.0,0.003
1598.0,0.0031
1597.0,0.0032
1596.0,0.0031
1595.0,0.0031
1594.0,0.003
1593.0,0.003
1592.0,0.003
1591.0,0.003
1590.0,0.0031
1589.0,0.0031
1588.0,0.0031
1587.0,0.0031
1586.0,0.0031
1585.0,0.0031
1584.0,0.003
1583.0,0.003
1582.0,0.003
1581.0,0.003
1580.0,0.0031
1579.0,0.003
1578.0,0.003
1577.0,0.0029
1576.0,0.0028
1575.0,0.0028
1574.0,0.0029
1573.0,0.003
1572.0,0.0031
1571.0,0.0031
1570.0,0.0031
1569.0,0.003
1568.0,0.0031
1567.0,0.0031
1566.0,0.003
1565.0,0.003
1564.0,0.003
1563.0,0.003
1562.0,0.003
1561.0,0.0031
1560.0,0.0033
1559.0,0.0033
1558.0,0.0032
1557.0,0.0032
1556.0,0.0031
1555.0,0.003
1554.0,0.003
1553.0,0.003
1552.0,0.003
1551.0,0.003
1550.0,0.003
1549.0,0.003
1548.0,0.003
1547.0,0.003
1546.0,0.0029
1545.0,0.0029
1544.0,0.0028
1543.0,0.0028
1542.0,0.0029
1541.0,0.0029
1540.0,0.0029
1539.0,0.003
1538.0,0.003
1537.0,0.003
1536.0,0.0029
1535.0,0.0028
1534.0,0.0027
1533.0,0.0027
1532.0,0.0028
1531.0,0.0029
1530.0,0.0029
1529.0,0.003
1528.0,0.003
1527.0,0.0029
1526.0,0.0029
1525.0,0.0028
1524.0,0.0027
1523.0,0.0027
1522.0,0.0028
1521.0,0.0029
1520.0,0.003
1519.0,0.0031
1518.0,0.003
1517.0,0.003
1516.0,0.003
1515.0,0.0029
1514.0,0.0028
1513.0,0.0028
1512.0,0.0027
1511.0,0.0028
1510.0,0.0028
1509.0,0.0028
1508.0,0.0028
1507.0,0.0027
1506.0,0.0027
1505.0,0.0028
1504.0,0.0028
1503.0,0.0028
1502.0,0.0028
1501.0,0.0028
1500.0,0.0029
1499.0,0.003
1498.0,0.0031
1497.0,0.003
1496.0,0.003
1495.0,0.0029
1494.0,0.0029
1493.0,0.003
1492.0,0.003
1491.0,0.003
1490.0,0.003
1489.0,0.003
1488.0,0.003
1487.0,0.0029
1486.0,0.0029
1485.0,0.003
1484.0,0.003
1483.0,0.003
1482.0,0.0029
1481.0,0.0029
1480.0,0.003
1479.0,0.003
1478.0,0.0031
1477.0,0.0032
1476.0,0.0033
1475.0,0.0036
1474.0,0.0038
1473.0,0.0042
1472.0,0.0046
1471.0,0.0049
1470.0,0.0052
1469.0,0.0055
1468.0,0.0059
1467.0,0.0063
1466.0,0.0068
1465.0,0.0073
1464.0,0.0078
1463.0,0.0082
1462.0,0.0084
1461.0,0.0086
1460.0,0.0087
1459.0,0.0086
1458.0,0.0085
1457.0,0.0085
1456.0,0.0086
1455.0,0.0087
1454.0,0.0088
1453.0,0.0088
1452.0,0.0088
1451.0,0.0087
1450.0,0.0085
1449.0,0.0081
1448.0,0.0077
1447.0,0.0072
1446.0,0.0068
1445.0,0.0065
1444.0,0.0062
1443.0,0.006
1442.0,0.0058
1441.0,0.0058
1440.0,0.0057
1439.0,0.0057
1438.0,0.0057
1437.0,0.0056
1436.0,0.0055
1435.0,0.0054
1434.0,0.0053
1433.0,0.0051
1432.0,0.0049
1431.0,0.0046
1430.0,0.0045
1429.0,0.0043
1428.0,0.0042
1427.0,0.0041
1426.0,0.004
1425.0,0.0039
1424.0,0.0038
1423.0,0.0038
1422.0,0.0038
1421.0,0.0038
1420.0,0.0038
1419.0,0.0037
1418.0,0.0036
1417.0,0.0036
1416.0,0.0035
1415.0,0.0035
1414.0,0.0035
1413.0,0.0034
1412.0,0.0034
1411.0,0.0034
1410.0,0.0034
1409.0,0.0034
1408.0,0.0033
1407.0,0.0033
1406.0,0.0033
1405.0,0.0032
1404.0,0.0032
1403.0,0.0032
1402.0,0.0031
1401.0,0.0031
1400.0,0.003
1399.0,0.003
1398.0,0.0031
1397.0,0.0031
1396.0,0.0031
1395.0,0.003
1394.0,0.003
1393.0,0.003
1392.0,0.003
1391.0,0.0031
1390.0,0.0031
1389.0,0.0031
1388.0,0.0032
1387.0,0.0032
1386.0,0.0034
1385.0,0.0037
1384.0,0.0041
1383.0,0.0047
1382.0,0.0056
1381.0,0.0067
1380.0,0.0081
1379.0,0.0097
1378.0,0.0111
1377.0,0.012
1376.0,0.0123
1375.0,0.0118
1374.0,0.0107
1373.0,0.0096
1372.0,0.0086
1371.0,0.0078
1370.0,0.007
1369.0,0.0064
1368.0,0.006
1367.0,0.0057
1366.0,0.0055
1365.0,0.0054
1364.0,0.0053
1363.0,0.0052
1362.0,0.0052
1361.0,0.0053
1360.0,0.0055
1359.0,0.0055
1358.0,0.0055
1357.0,0.0055
1356.0,0.0054
1355.0,0.0052
1354.0,0.0051
1353.0,0.0049
1352.0,0.0048
1351.0,0.0046
1350.0,0.0045
1349.0,0.0044
1348.0,0.0043
1347.0,0.0042
1346.0,0.0041
1345.0,0.004
1344.0,0.004
1343.0,0.0039
1342.0,0.0039
1341.0,0.0038
1340.0,0.0037
1339.0,0.0037
1338.0,0.0037
1337.0,0.0038
1336.0,0.0038
1335.0,0.0039
1334.0,0.004
1333.0,0.004
1332.0,0.0041
1331.0,0.0041
1330.0,0.004
1329.0,0.004
1328.0,0.0039
1327.0,0.0038
1326.0,0.0037
1325.0,0.0037
1324.0,0.0037
1323.0,0.0037
1322.0,0.0037
1321.0,0.0037
1320.0,0.0037
1319.0,0.0037
1318.0,0.0037
1317.0,0.0037
1316.0,0.0037
1315.0,0.0037
1314.0,0.0037
1313.0,0.0037
1312.0,0.0036
1311.0,0.0036
1310.0,0.0035
1309.0,0.0035
1308.0,0.0036
1307.0,0.0036
1306.0,0.0037
1305.0,0.0037
1304.0,0.0038
1303.0,0.0038
1302.0,0.0037
1301.0,0.0037
1300.0,0.0037
1299.0,0.0037
1298.0,0.0037
1297.0,0.0038
1296.0,0.0038
1295.0,0.0038
1294.0,0.0037
1293.0,0.0037
1292.0,0.0037
1291.0,0.0037
1290.0,0.0037
1289.0,0.0036
1288.0,0.0036
1287.0,0.0035
1286.0,0.0035
1285.0,0.0034
1284.0,0.0034
1283.0,0.0034
1282.0,0.0034
1281.0,0.0034
1280.0,0.0034
1279.0,0.0034
1278.0,0.0034
1277.0,0.0034
1276.0,0.0034
1275.0,0.0034
1274.0,0.0034
1273.0,0.0033
1272.0,0.0033
1271.0,0.0033
1270.0,0.0033
1269.0,0.0034
1268.0,0.0034
1267.0,0.0034
1266.0,0.0034
1265.0,0.0034
1264.0,0.0035
1263.0,0.0035
1262.0,0.0035
1261.0,0.0035
1260.0,0.0036
1259.0,0.0036
1258.0,0.0036
1257.0,0.0036
1256.0,0.0036
1255.0,0.0036
1254.0,0.0035
1253.0,0.0035
1252.0,0.0034
1251.0,0.0034
1250.0,0.0034
1249.0,0.0034
1248.0,0.0033
1247.0,0.0033
1246.0,0.0033
1245.0,0.0032
1244.0,0.0032
1243.0,0.0032
1242.0,0.0032
1241.0,0.0031
1240.0,0.0031
1239.0,0.0031
1238.0,0.0031
1237.0,0.0031
1236.0,0.0031
1235.0,0.0031
1234.0,0.0031
1233.0,0.0031
1232.0,0.0032
1231.0,0.0031
1230.0,0.0031
1229.0,0.003
1228.0,0.003
1227.0,0.003
1226.0,0.003
1225.0,0.0031
1224.0,0.0032
1223.0,0.0032
1222.0,0.0032
1221.0,0.0032
1220.0,0.0032
1219.0,0.0032
1218.0,0.0032
1217.0,0.0032
1216.0,0.0031
1215.0,0.0031
1214.0,0.003
1213.0,0.003
1212.0,0.0031
1211.0,0.0031
1210.0,0.0031
1209.0,0.003
1208.0,0.0029
1207.0,0.0029
1206.0,0.0029
1205.0,0.003
1204.0,0.0029
1203.0,0.0029
1202.0,0.0029
1201.0,0.0029
1200.0,0.0029
1199.0,0.0029
1198.0,0.0029
1197.0,0.0029
1196.0,0.0029
1195.0,0.0028
1194.0,0.0028
1193.0,0.0028
1192.0,0.0029
1191.0,0.0029
1190.0,0.0029
1189.0,0.0029
1188.0,0.0029
1187.0,0.0029
1186.0,0.0029
1185.0,0.0029
1184.0,0.0029
1183.0,0.0029
1182.0,0.0029
1181.0,0.003
1180.0,0.003
1179.0,0.003
1178.0,0.003
1177.0,0.003
1176.0,0.003
1175.0,0.003
1174.0,0.0031
1173.0,0.0031
1172.0,0.0032
1171.0,0.0033
1170.0,0.0035
1169.0,0.0036
1168.0,0.0037
1167.0,0.0038
1166.0,0.0038
1165.0,0.0037
1164.0,0.0037
1163.0,0.0037
1162.0,0.0037
1161.0,0.0037
1160.0,0.0036
1159.0,0.0036
1158.0,0.0036
1157.0,0.0036
1156.0,0.0037
1155.0,0.0037
1154.0,0.0036
1153.0,0.0036
1152.0,0.0036
1151.0,0.0036
1150.0,0.0036
1149.0,0.0036
1148.0,0.0036
1147.0,0.0035
1146.0,0.0034
1145.0,0.0033
1144.0,0.0033
1143.0,0.0032
1142.0,0.0031
1141.0,0.0031
1140.0,0.003
1139.0,0.003
1138.0,0.003
1137.0,0.0029
1136.0,0.0029
1135.0,0.0029
1134.0,0.0029
1133.0,0.0028
1132.0,0.0028
1131.0,0.0028
1130.0,0.0028
1129.0,0.0028
1128.0,0.0029
1127.0,0.003
1126.0,0.003
1125.0,0.0031
1124.0,0.0031
1123.0,0.0031
1122.0,0.0031
1121.0,0.003
1120.0,0.003
1119.0,0.0029
1118.0,0.0029
1117.0,0.0029
1116.0,0.0029
1115.0,0.003
1114.0,0.003
1113.0,0.003
1112.0,0.0031
1111.0,0.003
1110.0,0.003
1109.0,0.003
1108.0,0.003
1107.0,0.0031
1106.0,0.0032
1105.0,0.0033
1104.0,0.0033
1103.0,0.0033
1102.0,0.0032
1101.0,0.0032
1100.0,0.0032
1099.0,0.0032
1098.0,0.0033
1097.0,0.0033
1096.0,0.0033
1095.0,0.0032
1094.0,0.0031
1093.0,0.0031
1092.0,0.003
1091.0,0.0031
1090.0,0.0031
1089.0,0.0031
1088.0,0.003
1087.0,0.003
1086.0,0.0029
1085.0,0.0029
1084.0,0.0029
1083.0,0.0029
1082.0,0.0029
1081.0,0.0029
1080.0,0.003
1079.0,0.003
1078.0,0.003
1077.0,0.003
1076.0,0.0029
1075.0,0.0029
1074.0,0.0028
1073.0,0.0028
1072.0,0.0028
1071.0,0.0028
1070.0,0.0029
1069.0,0.0029
1068.0,0.0029
1067.0,0.0028
1066.0,0.0027
1065.0,0.0027
1064.0,0.0027
1063.0,0.0028
1062.0,0.0029
1061.0,0.0029
1060.0,0.0029
1059.0,0.0029
1058.0,0.003
1057.0,0.0029
1056.0,0.0029
1055.0,0.0029
1054.0,0.0028
1053.0,0.0027
1052.0,0.0028
1051.0,0.0028
1050.0,0.0029
1049.0,0.0029
1048.0,0.003
1047.0,0.003
1046.0,0.003
1045.0,0.0031
1044.0,0.0032
1043.0,0.0032
1042.0,0.0032
1041.0,0.0032
1040.0,0.0032
1039.0,0.0032
1038.0,0.0032
1037.0,0.0032
1036.0,0.0033
1035.0,0.0033
1034.0,0.0032
1033.0,0.0032
1032.0,0.0031
1031.0,0.0032
1030.0,0.0032
1029.0,0.0032
1028.0,0.0032
1027.0,0.0033
1026.0,0.0033
1025.0,0.0033
1024.0,0.0034
1023.0,0.0034
1022.0,0.0034
1021.0,0.0035
1020.0,0.0035
1019.0,0.0034
1018.0,0.0033
1017.0,0.0032
1016.0,0.0032
1015.0,0.0032
1014.0,0.0032
1013.0,0.0032
1012.0,0.0031
1011.0,0.0032
1010.0,0.0032
1009.0,0.0032
1008.0,0.0032
1007.0,0.0033
1006.0,0.0033
1005.0,0.0035
1004.0,0.0036
1003.0,0.0037
1002.0,0.0038
1001.0,0.0039
1000.0,0.0041
999.0,0.0043
998.0,0.0044
997.0,0.0044
996.0,0.0043
995.0,0.0041
994.0,0.0039
993.0,0.0037
992.0,0.0036
991.0,0.0036
990.0,0.0036
989.0,0.0035
988.0,0.0035
987.0,0.0033
986.0,0.0032
985.0,0.0031
984.0,0.0032
983.0,0.0032
982.0,0.0033
981.0,0.0034
980.0,0.0035
979.0,0.0036
978.0,0.0038
977.0,0.004
976.0,0.0042
975.0,0.0045
974.0,0.0046
973.0,0.0046
972.0,0.0045
971.0,0.0044
970.0,0.0043
969.0,0.0041
968.0,0.0039
967.0,0.0038
966.0,0.0037
965.0,0.0036
964.0,0.0036
963.0,0.0035
962.0,0.0035
961.0,0.0035
960.0,0.0035
959.0,0.0035
958.0,0.0035
957.0,0.0035
956.0,0.0035
955.0,0.0035
954.0,0.0036
953.0,0.0036
952.0,0.0036
951.0,0.0037
950.0,0.0036
949.0,0.0036
948.0,0.0035
947.0,0.0034
946.0,0.0035
945.0,0.0036
944.0,0.0037
943.0,0.0037
942.0,0.0037
941.0,0.0036
940.0,0.0036
939.0,0.0036
938.0,0.0036
937.0,0.0036
936.0,0.0036
935.0,0.0036
934.0,0.0035
933.0,0.0035
932.0,0.0035
931.0,0.0035
930.0,0.0035
929.0,0.0035
928.0,0.0035
927.0,0.0035
926.0,0.0035
925.0,0.0036
924.0,0.0036
923.0,0.0036
922.0,0.0036
921.0,0.0036
920.0,0.0035
919.0,0.0035
918.0,0.0035
917.0,0.0035
916.0,0.0036
915.0,0.0036
914.0,0.0037
913.0,0.0037
912.0,0.0037
911.0,0.0037
910.0,0.0037
909.0,0.0036
908.0,0.0036
907.0,0.0036
906.0,0.0036
905.0,0.0038
904.0,0.0039
903.0,0.004
902.0,0.0041
901.0,0.0042
900.0,0.0043
899.0,0.0044
898.0,0.0045
897.0,0.0045
896.0,0.0045
895.0,0.0043
894.0,0.0041
893.0,0.0039
892.0,0.0038
891.0,0.0037
890.0,0.0037
889.0,0.0037
888.0,0.0037
887.0,0.0038
886.0,0.0039
885.0,0.0039
884.0,0.004
883.0,0.0039
882.0,0.0039
881.0,0.0038
880.0,0.0037
879.0,0.0036
878.0,0.0036
877.0,0.0037
876.0,0.0037
875.0,0.0037
874.0,0.0037
873.0,0.0037
872.0,0.0036
871.0,0.0035
870.0,0.0035
869.0,0.0036
868.0,0.0036
867.0,0.0037
866.0,0.0037
865.0,0.0037
864.0,0.0037
863.0,0.0037
862.0,0.0037
861.0,0.0037
860.0,0.0038
859.0,0.0037
858.0,0.0037
857.0,0.0037
856.0,0.0037
855.0,0.0037
854.0,0.0038
853.0,0.0038
852.0,0.0039
851.0,0.0038
850.0,0.0037
849.0,0.0037
848.0,0.0038
847.0,0.0039
846.0,0.004
845.0,0.0041
844.0,0.0042
843.0,0.0043
842.0,0.0044
841.0,0.0045
840.0,0.0045
839.0,0.0044
838.0,0.0043
837.0,0.0042
836.0,0.004
835.0,0.0039
834.0,0.0038
833.0,0.0037
832.0,0.0037
831.0,0.0036
830.0,0.0034
829.0,0.0032
828.0,0.0031
827.0,0.0031
826.0,0.0033
825.0,0.0035
824.0,0.0035
823.0,0.0035
822.0,0.0034
821.0,0.0032
820.0,0.0032
819.0,0.0033
818.0,0.0034
817.0,0.0036
816.0,0.0038
815.0,0.0039
814.0,0.004
813.0,0.0041
812.0,0.0041
811.0,0.0041
810.0,0.0041
809.0,0.004
808.0,0.004
807.0,0.0041
806.0,0.0041
805.0,0.004
804.0,0.0039
803.0,0.0038
802.0,0.0038
801.0,0.0037
800.0,0.0036
799.0,0.0035
798.0,0.0032
797.0,0.0031
796.0,0.0032
795.0,0.0032
794.0,0.0032
793.0,0.0031
792.0,0.003
791.0,0.003
790.0,0.003
789.0,0.0032
788.0,0.0034
787.0,0.0036
786.0,0.0037
785.0,0.0037
784.0,0.0036
783.0,0.0035
782.0,0.0033
781.0,0.0031
780.0,0.0031
779.0,0.0032
778.0,0.0033
777.0,0.0034
776.0,0.0033
775.0,0.0033
774.0,0.0032
773.0,0.0031
772.0,0.0032
771.0,0.0032
770.0,0.0032
769.0,0.0032
768.0,0.0032
767.0,0.0032
766.0,0.0034
765.0,0.0036
764.0,0.0037
763.0,0.0037
762.0,0.0036
761.0,0.0036
760.0,0.0035
759.0,0.0035
758.0,0.0034
757.0,0.0033
756.0,0.0033
755.0,0.0034
754.0,0.0034
753.0,0.0034
752.0,0.0034
751.0,0.0034
750.0,0.0033
749.0,0.0032
748.0,0.0032
747.0,0.0032
746.0,0.0034
745.0,0.0036
744.0,0.0038
743.0,0.0038
742.0,0.0036
741.0,0.0033
740.0,0.0031
739.0,0.0031
738.0,0.0032
737.0,0.0034
736.0,0.0034
735.0,0.0035
734.0,0.0036
733.0,0.0039
732.0,0.004
731.0,0.004
730.0,0.004
729.0,0.004
728.0,0.0042
727.0,0.0045
726.0,0.0047
725.0,0.0047
724.0,0.0048
723.0,0.0047
722.0,0.0045
721.0,0.0044
720.0,0.0044
719.0,0.0046
718.0,0.0047
717.0,0.0047
716.0,0.0046
715.0,0.0044
714.0,0.0041
713.0,0.0037
712.0,0.0035
711.0,0.0036
710.0,0.0038
709.0,0.0041
708.0,0.0043
707.0,0.0043
706.0,0.0042
705.0,0.0043
704.0,0.0045
703.0,0.0046
702.0,0.0046
701.0,0.0044
700.0,0.0043
699.0,0.0044
698.0,0.0043
697.0,0.0041
696.0,0.004
695.0,0.0039
694.0,0.0037
693.0,0.0032
692.0,0.0026
691.0,0.0022
690.0,0.0024
689.0,0.003
688.0,0.0037
687.0,0.0043
686.0,0.0045
685.0,0.0044
684.0,0.0042
683.0,0.0037
682.0,0.0028
681.0,0.0018
680.0,0.0015
679.0,0.0021
678.0,0.003
677.0,0.0033
676.0,0.0028
675.0,0.002
674.0,0.0017
673.0,0.0019
672.0,0.0025
671.0,0.0036
670.0,0.0054
669.0,0.0075
668.0,0.0082
667.0,0.0069
666.0,0.0057
665.0,0.0051
664.0,0.0047
663.0,0.0039
662.0,0.0028
661.0,0.0022
660.0,0.0026
659.0,0.0035
658.0,0.004
657.0,0.0038
656.0,0.003
655.0,0.0024
654.0,0.0024
653.0,0.0029
652.0,0.0036
651.0,0.0042
650.0,0.0045
649.0,0.0045
648.0,0.0044
647.0,0.0043
646.0,0.0041
645.0,0.0037
644.0,0.0032
643.0,0.0027
642.0,0.0024
641.0,0.0024
640.0,0.0025
639.0,0.0027
638.0,0.0031
637.0,0.0038
636.0,0.0048
635.0,0.0057
634.0,0.0058
633.0,0.0052
632.0,0.004
631.0,0.003
630.0,0.0025
629.0,0.0029
628.0,0.0037
627.0,0.0046
626.0,0.0051
625.0,0.0052
624.0,0.0049
623.0,0.0048
622.0,0.0048
621.0,0.0048
620.0,0.0046
619.0,0.0045
618.0,0.0045
617.0,0.0046
616.0,0.0047
615.0,0.0047
614.0,0.0049
613.0,0.0054
612.0,0.006
611.0,0.0065
610.0,0.0067
609.0,0.0067
608.0,0.0066
607.0,0.006
606.0,0.0046
605.0,0.0024
604.0,0.0006
603.0,0.0002
602.0,0.0012
601.0,0.003
600.0,0.0049
