cm-1,A
4000.0,-0.0017
3999.0,-0.0018
3998.0,-0.0018
3997.0,-0.0017
3996.0,-0.0017
3995.0,-0.0017
3994.0,-0.0017
3993.0,-0.0017
3992.0,-0.0017
3991.0,-0.0016
3990.0,-0.0015
3989.0,-0.0015
3988.0,-0.0015
3987.0,-0.0015
3986.0,-0.0015
3985.0,-0.0015
3984.0,-0.0016
3983.0,-0.0017
3982.0,-0.0017
3981.0,-0.0018
3980.0,-0.0018
3979.0,-0.0018
3978.0,-0.0018
3977.0,-0.0018
3976.0,-0.0017
3975.0,-0.0017
3974.0,-0.0018
3973.0,-0.0018
3972.0,-0.0018
3971.0,-0.0018
3970.0,-0.0018
3969.0,-0.0018
3968.0,-0.0018
3967.0,-0.0018
3966.0,-0.0019
3965.0,-0.0019
3964.0,-0.0018
3963.0,-0.0017
3962.0,-0.0017
3961.0,-0.0017
3960.0,-0.0017
3959.0,-0.0018
3958.0,-0.0018
3957.0,-0.0018
3956.0,-0.0019
3955.0,-0.0019
3954.0,-0.0019
3953.0,-0.0019
3952.0,-0.0019
3951.0,-0.0018
3950.0,-0.0017
3949.0,-0.0016
3948.0,-0.0016
3947.0,-0.0017
3946.0,-0.0017
3945.0,-0.0017
3944.0,-0.0018
3943.0,-0.0017
3942.0,-0.0017
3941.0,-0.0017
3940.0,-0.0016
3939.0,-0.0016
3938.0,-0.0016
3937.0,-0.0017
3936.0,-0.0018
3935.0,-0.0018
3934.0,-0.0018
3933.0,-0.0019
3932.0,-0.002
3931.0,-0.0021
3930.0,-0.0021
3929.0,-0.002
3928.0,-0.0019
3927.0,-0.0018
3926.0,-0.0017
3925.0,-0.0017
3924.0,-0.0017
3923.0,-0.0017
3922.0,-0.0017
3921.0,-0.0017
3920.0,-0.0016
3919.0,-0.0016
3918.0,-0.0016
3917.0,-0.0017
3916.0,-0.0017
3915.0,-0.0018
3914.0,-0.0018
3913.0,-0.0017
3912.0,-0.0016
3911.0,-0.0016
3910.0,-0.0016
3909.0,-0.0018
3908.0,-0.0019
3907.0,-0.0021
3906.0,-0.0021
3905.0,-0.0022
3904.0,-0.0022
3903.0,-0.0022
3902.0,-0.0022
3901.0,-0.0022
3900.0,-0.0022
3899.0,-0.0021
3898.0,-0.0021
3897.0,-0.002
3896.0,-0.0019
3895.0,-0.0018
3894.0,-0.0018
3893.0,-0.0018
3892.0,-0.0018
3891.0,-0.002
3890.0,-0.0022
3889.0,-0.0022
3888.0,-0.0022
3887.0,-0.0021
3886.0,-0.0021
3885.0,-0.0021
3884.0,-0.0021
3883.0,-0.0021
3882.0,-0.002
3881.0,-0.002
3880.0,-0.002
3879.0,-0.0021
3878.0,-0.0021
3877.0,-0.0021
3876.0,-0.002
3875.0,-0.002
3874.0,-0.0021
3873.0,-0.0021
3872.0,-0.0021
3871.0,-0.0019
3870.0,-0.0019
3869.0,-0.002
3868.0,-0.0021
3867.0,-0.002
3866.0,-0.0018
3865.0,-0.0018
3864.0,-0.0018
3863.0,-0.0019
3862.0,-0.0019
3861.0,-0.0019
3860.0,-0.0019
3859.0,-0.002
3858.0,-0.0022
3857.0,-0.0024
3856.0,-0.0026
3855.0,-0.0027
3854.0,-0.0026
3853.0,-0.0025
3852.0,-0.0025
3851.0,-0.0023
3850.0,-0.0022
3849.0,-0.0021
3848.0,-0.002
3847.0,-0.002
3846.0,-0.002
3845.0,-0.002
3844.0,-0.002
3843.0,-0.0022
3842.0,-0.0025
3841.0,-0.0027
3840.0,-0.0028
3839.0,-0.0028
3838.0,-0.0027
3837.0,-0.0026
3836.0,-0.0025
3835.0,-0.0025
3834.0,-0.0024
3833.0,-0.0022
3832.0,-0.0021
3831.0,-0.0021
3830.0,-0.0021
3829.0,-0.002
3828.0,-0.002
3827.0,-0.002
3826.0,-0.0021
3825.0,-0.0022
3824.0,-0.0022
3823.0,-0.0022
3822.0,-0.0022
3821.0,-0.0024
3820.0,-0.0026
3819.0,-0.0026
3818.0,-0.0024
3817.0,-0.0023
3816.0,-0.0022
3815.0,-0.0023
3814.0,-0.0023
3813.0,-0.0022
3812.0,-0.0021
3811.0,-0.002
3810.0,-0.002
3809.0,-0.002
3808.0,-0.0021
3807.0,-0.0022
3806.0,-0.0024
3805.0,-0.0025
3804.0,-0.0024
3803.0,-0.0023
3802.0,-0.0021
3801.0,-0.0022
3800.0,-0.0023
3799.0,-0.0022
3798.0,-0.0021
3797.0,-0.002
3796.0,-0.0019
3795.0,-0.0019
3794.0,-0.0018
3793.0,-0.0018
3792.0,-0.0018
3791.0,-0.0018
3790.0,-0.0019
3789.0,-0.0018
3788.0,-0.0018
3787.0,-0.0017
3786.0,-0.0017
3785.0,-0.0018
3784.0,-0.0019
3783.0,-0.0019
3782.0,-0.0018
3781.0,-0.0018
3780.0,-0.0019
3779.0,-0.002
3778.0,-0.0021
3777.0,-0.0021
3776.0,-0.0021
3775.0,-0.002
3774.0,-0.0021
3773.0,-0.0021
3772.0,-0.0021
3771.0,-0.002
3770.0,-0.002
3769.0,-0.0021
3768.0,-0.0022
3767.0,-0.0022
3766.0,-0.0022
3765.0,-0.0022
3764.0,-0.0023
3763.0,-0.0022
3762.0,-0.0021
3761.0,-0.002
3760.0,-0.0019
3759.0,-0.0019
3758.0,-0.002
3757.0,-0.0021
3756.0,-0.0022
3755.0,-0.0024
3754.0,-0.0025
3753.0,-0.0028
3752.0,-0.003
3751.0,-0.003
3750.0,-0.003
3749.0,-0.003
3748.0,-0.003
3747.0,-0.0029
3746.0,-0.0026
3745.0,-0.0026
3744.0,-0.0027
3743.0,-0.0028
3742.0,-0.0027
3741.0,-0.0025
3740.0,-0.0024
3739.0,-0.0025
3738.0,-0.0027
3737.0,-0.0029
3736.0,-0.0029
3735.0,-0.0028
3734.0,-0.0027
3733.0,-0.0025
3732.0,-0.0024
3731.0,-0.0023
3730.0,-0.0023
3729.0,-0.0022
3728.0,-0.0022
3727.0,-0.0022
3726.0,-0.0022
3725.0,-0.0022
3724.0,-0.0021
3723.0,-0.002
3722.0,-0.002
3721.0,-0.0021
3720.0,-0.0021
3719.0,-0.0021
3718.0,-0.0021
3717.0,-0.002
3716.0,-0.002
3715.0,-0.0019
3714.0,-0.0019
3713.0,-0.002
3712.0,-0.0021
3711.0,-0.0022
3710.0,-0.0022
3709.0,-0.0022
3708.0,-0.0021
3707.0,-0.0021
3706.0,-0.0021
3705.0,-0.0022
3704.0,-0.0022
3703.0,-0.0022
3702.0,-0.0021
3701.0,-0.0021
3700.0,-0.0021
3699.0,-0.0021
3698.0,-0.0022
3697.0,-0.0022
3696.0,-0.0023
3695.0,-0.0024
3694.0,-0.0024
3693.0,-0.0024
3692.0,-0.0024
3691.0,-0.0024
3690.0,-0.0024
3689.0,-0.0024
3688.0,-0.0025
3687.0,-0.0026
3686.0,-0.0027
3685.0,-0.0027
3684.0,-0.0027
3683.0,-0.0027
3682.0,-0.0027
3681.0,-0.0026
3680.0,-0.0026
3679.0,-0.0028
3678.0,-0.0029
3677.0,-0.0029
3676.0,-0.0029
3675.0,-0.0031
3674.0,-0.0032
3673.0,-0.0033
3672.0,-0.0033
3671.0,-0.0033
3670.0,-0.0032
3669.0,-0.0031
3668.0,-0.0029
3667.0,-0.0028
3666.0,-0.0026
3665.0,-0.0025
3664.0,-0.0025
3663.0,-0.0025
3662.0,-0.0025
3661.0,-0.0026
3660.0,-0.0027
3659.0,-0.0027
3658.0,-0.0027
3657.0,-0.0027
3656.0,-0.0027
3655.0,-0.0028
3654.0,-0.0028
3653.0,-0.0028
3652.0,-0.0029
3651.0,-0.0029
3650.0,-0.0029
3649.0,-0.0028
3648.0,-0.0027
3647.0,-0.0026
3646.0,-0.0026
3645.0,-0.0026
3644.0,-0.0025
3643.0,-0.0024
3642.0,-0.0023
3641.0,-0.0023
3640.0,-0.0023
3639.0,-0.0023
3638.0,-0.0023
3637.0,-0.0024
3636.0,-0.0023
3635.0,-0.0023
3634.0,-0.0023
3633.0,-0.0023
3632.0,-0.0023
3631.0,-0.0023
3630.0,-0.0023
3629.0,-0.0024
3628.0,-0.0025
3627.0,-0.0025
3626.0,-0.0024
3625.0,-0.0022
3624.0,-0.002
3623.0,-0.0018
3622.0,-0.0017
3621.0,-0.0016
3620.0,-0.0017
3619.0,-0.0018
3618.0,-0.002
3617.0,-0.0021
3616.0,-0.002
3615.0,-0.002
3614.0,-0.0019
3613.0,-0.0019
3612.0,-0.0019
3611.0,-0.0019
3610.0,-0.0019
3609.0,-0.002
3608.0,-0.002
3607.0,-0.002
3606.0,-0.0019
3605.0,-0.0018
3604.0,-0.0018
3603.0,-0.0018
3602.0,-0.0019
3601.0,-0.0019
3600.0,-0.0019
3599.0,-0.0018
3598.0,-0.0018
3597.0,-0.002
3596.0,-0.0021
3595.0,-0.0022
3594.0,-0.0022
3593.0,-0.0022
3592.0,-0.0021
3591.0,-0.0021
3590.0,-0.0021
3589.0,-0.0021
3588.0,-0.002
3587.0,-0.002
3586.0,-0.002
3585.0,-0.002
3584.0,-0.002
3583.0,-0.0019
3582.0,-0.0019
3581.0,-0.002
3580.0,-0.002
3579.0,-0.0019
3578.0,-0.0018
3577.0,-0.0018
3576.0,-0.0018
3575.0,-0.0019
3574.0,-0.002
3573.0,-0.0022
3572.0,-0.0022
3571.0,-0.0022
3570.0,-0.0021
3569.0,-0.002
3568.0,-0.0019
3567.0,-0.0018
3566.0,-0.0018
3565.0,-0.0018
3564.0,-0.0017
3563.0,-0.0017
3562.0,-0.0017
3561.0,-0.0019
3560.0,-0.002
3559.0,-0.0021
3558.0,-0.0022
3557.0,-0.0022
3556.0,-0.0022
3555.0,-0.0021
3554.0,-0.002
3553.0,-0.0019
3552.0,-0.0019
3551.0,-0.0019
3550.0,-0.0019
3549.0,-0.0019
3548.0,-0.0018
3547.0,-0.0017
3546.0,-0.0017
3545.0,-0.0017
3544.0,-0.0018
3543.0,-0.0018
3542.0,-0.0019
3541.0,-0.0019
3540.0,-0.0019
3539.0,-0.0019
3538.0,-0.0019
3537.0,-0.0019
3536.0,-0.0019
3535.0,-0.0019
3534.0,-0.0019
3533.0,-0.0019
3532.0,-0.0019
3531.0,-0.0018
3530.0,-0.0018
3529.0,-0.0018
3528.0,-0.0019
3527.0,-0.002
3526.0,-0.002
3525.0,-0.002
3524.0,-0.0019
3523.0,-0.0019
3522.0,-0.0019
3521.0,-0.0019
3520.0,-0.0019
3519.0,-0.0019
3518.0,-0.0019
3517.0,-0.0018
3516.0,-0.0018
3515.0,-0.0018
3514.0,-0.0018
3513.0,-0.0019
3512.0,-0.0019
3511.0,-0.0019
3510.0,-0.0019
3509.0,-0.0019
3508.0,-0.0019
3507.0,-0.0018
3506.0,-0.0018
3505.0,-0.0017
3504.0,-0.0017
3503.0,-0.0017
3502.0,-0.0017
3501.0,-0.0017
3500.0,-0.0018
3499.0,-0.0018
3498.0,-0.0018
3497.0,-0.0018
3496.0,-0.0018
3495.0,-0.0018
3494.0,-0.0018
3493.0,-0.0017
3492.0,-0.0017
3491.0,-0.0017
3490.0,-0.0018
3489.0,-0.0019
3488.0,-0.0019
3487.0,-0.0019
3486.0,-0.0017
3485.0,-0.0016
3484.0,-0.0015
3483.0,-0.0014
3482.0,-0.0014
3481.0,-0.0015
3480.0,-0.0016
3479.0,-0.0017
3478.0,-0.0018
3477.0,-0.0018
3476.0,-0.0018
3475.0,-0.0018
3474.0,-0.0018
3473.0,-0.0018
3472.0,-0.0018
3471.0,-0.0018
3470.0,-0.0018
3469.0,-0.0018
3468.0,-0.0018
3467.0,-0.0018
3466.0,-0.0017
3465.0,-0.0016
3464.0,-0.0016
3463.0,-0.0015
3462.0,-0.0015
3461.0,-0.0016
3460.0,-0.0017
3459.0,-0.0018
3458.0,-0.0019
3457.0,-0.0019
3456.0,-0.0018
3455.0,-0.0017
3454.0,-0.0017
3453.0,-0.0018
3452.0,-0.0018
3451.0,-0.0019
3450.0,-0.0019
3449.0,-0.0019
3448.0,-0.0019
3447.0,-0.0019
3446.0,-0.0019
3445.0,-0.0019
3444.0,-0.0019
3443.0,-0.0018
3442.0,-0.0017
3441.0,-0.0017
3440.0,-0.0017
3439.0,-0.0018
3438.0,-0.0018
3437.0,-0.0018
3436.0,-0.0018
3435.0,-0.0018
3434.0,-0.0018
3433.0,-0.0018
3432.0,-0.0019
3431.0,-0.0019
3430.0,-0.0018
3429.0,-0.0018
3428.0,-0.0017
3427.0,-0.0016
3426.0,-0.0016
3425.0,-0.0016
3424.0,-0.0017
3423.0,-0.0018
3422.0,-0.0017
3421.0,-0.0016
3420.0,-0.0015
3419.0,-0.0015
3418.0,-0.0015
3417.0,-0.0015
3416.0,-0.0016
3415.0,-0.0016
3414.0,-0.0017
3413.0,-0.0017
3412.0,-0.0018
3411.0,-0.0018
3410.0,-0.0018
3409.0,-0.0018
3408.0,-0.0017
3407.0,-0.0017
3406.0,-0.0017
3405.0,-0.0018
3404.0,-0.0018
3403.0,-0.0019
3402.0,-0.0019
3401.0,-0.0018
3400.0,-0.0018
3399.0,-0.0018
3398.0,-0.0018
3397.0,-0.0018
3396.0,-0.0019
3395.0,-0.0019
3394.0,-0.002
3393.0,-0.0021
3392.0,-0.0021
3391.0,-0.002
3390.0,-0.0019
3389.0,-0.0018
3388.0,-0.0017
3387.0,-0.0016
3386.0,-0.0016
3385.0,-0.0016
3384.0,-0.0017
3383.0,-0.0017
3382.0,-0.0017
3381.0,-0.0016
3380.0,-0.0015
3379.0,-0.0015
3378.0,-0.0015
3377.0,-0.0015
3376.0,-0.0016
3375.0,-0.0016
3374.0,-0.0017
3373.0,-0.0017
3372.0,-0.0017
3371.0,-0.0016
3370.0,-0.0014
3369.0,-0.0013
3368.0,-0.0012
3367.0,-0.0013
3366.0,-0.0013
3365.0,-0.0014
3364.0,-0.0015
3363.0,-0.0015
3362.0,-0.0015
3361.0,-0.0016
3360.0,-0.0017
3359.0,-0.0017
3358.0,-0.0017
3357.0,-0.0017
3356.0,-0.0017
3355.0,-0.0017
3354.0,-0.0018
3353.0,-0.0019
3352.0,-0.0019
3351.0,-0.0019
3350.0,-0.0019
3349.0,-0.0019
3348.0,-0.0019
3347.0,-0.0019
3346.0,-0.0019
3345.0,-0.0019
3344.0,-0.0019
3343.0,-0.0019
3342.0,-0.0019
3341.0,-0.0018
3340.0,-0.0017
3339.0,-0.0017
3338.0,-0.0016
3337.0,-0.0016
3336.0,-0.0015
3335.0,-0.0015
3334.0,-0.0015
3333.0,-0.0015
3332.0,-0.0016
3331.0,-0.0016
3330.0,-0.0017
3329.0,-0.0017
3328.0,-0.0017
3327.0,-0.0017
3326.0,-0.0016
3325.0,-0.0016
3324.0,-0.0016
3323.0,-0.0017
3322.0,-0.0017
3321.0,-0.0016
3320.0,-0.0015
3319.0,-0.0015
3318.0,-0.0014
3317.0,-0.0014
3316.0,-0.0015
3315.0,-0.0016
3314.0,-0.0017
3313.0,-0.0018
3312.0,-0.002
3311.0,-0.002
3310.0,-0.002
3309.0,-0.0018
3308.0,-0.0018
3307.0,-0.0017
3306.0,-0.0017
3305.0,-0.0017
3304.0,-0.0017
3303.0,-0.0016
3302.0,-0.0015
3301.0,-0.0015
3300.0,-0.0015
3299.0,-0.0015
3298.0,-0.0016
3297.0,-0.0016
3296.0,-0.0017
3295.0,-0.0017
3294.0,-0.0017
3293.0,-0.0017
3292.0,-0.0017
3291.0,-0.0016
3290.0,-0.0016
3289.0,-0.0016
3288.0,-0.0016
3287.0,-0.0017
3286.0,-0.0017
3285.0,-0.0017
3284.0,-0.0016
3283.0,-0.0015
3282.0,-0.0015
3281.0,-0.0016
3280.0,-0.0016
3279.0,-0.0017
3278.0,-0.0017
3277.0,-0.0017
3276.0,-0.0017
3275.0,-0.0017
3274.0,-0.0017
3273.0,-0.0017
3272.0,-0.0017
3271.0,-0.0017
3270.0,-0.0017
3269.0,-0.0018
3268.0,-0.0019
3267.0,-0.0019
3266.0,-0.0019
3265.0,-0.0017
3264.0,-0.0016
3263.0,-0.0016
3262.0,-0.0016
3261.0,-0.0016
3260.0,-0.0016
3259.0,-0.0015
3258.0,-0.0014
3257.0,-0.0014
3256.0,-0.0014
3255.0,-0.0014
3254.0,-0.0014
3253.0,-0.0014
3252.0,-0.0014
3251.0,-0.0015
3250.0,-0.0016
3249.0,-0.0017
3248.0,-0.0019
3247.0,-0.0019
3246.0,-0.0018
3245.0,-0.0017
3244.0,-0.0017
3243.0,-0.0017
3242.0,-0.0017
3241.0,-0.0017
3240.0,-0.0016
3239.0,-0.0015
3238.0,-0.0015
3237.0,-0.0015
3236.0,-0.0016
3235.0,-0.0017
3234.0,-0.0017
3233.0,-0.0017
3232.0,-0.0017
3231.0,-0.0017
3230.0,-0.0017
3229.0,-0.0018
3228.0,-0.0018
3227.0,-0.0019
3226.0,-0.0018
3225.0,-0.0018
3224.0,-0.0017
3223.0,-0.0017
3222.0,-0.0017
3221.0,-0.0018
3220.0,-0.0018
3219.0,-0.0018
3218.0,-0.0018
3217.0,-0.0018
3216.0,-0.0018
3215.0,-0.0017
3214.0,-0.0016
3213.0,-0.0016
3212.0,-0.0017
3211.0,-0.0018
3210.0,-0.0019
3209.0,-0.0019
3208.0,-0.0018
3207.0,-0.0017
3206.0,-0.0017
3205.0,-0.0017
3204.0,-0.0017
3203.0,-0.0016
3202.0,-0.0015
3201.0,-0.0014
3200.0,-0.0014
3199.0,-0.0015
3198.0,-0.0016
3197.0,-0.0017
3196.0,-0.0017
3195.0,-0.0017
3194.0,-0.0016
3193.0,-0.0016
3192.0,-0.0016
3191.0,-0.0016
3190.0,-0.0016
3189.0,-0.0015
3188.0,-0.0015
3187.0,-0.0015
3186.0,-0.0014
3185.0,-0.0014
3184.0,-0.0014
3183.0,-0.0014
3182.0,-0.0015
3181.0,-0.0015
3180.0,-0.0016
3179.0,-0.0017
3178.0,-0.0018
3177.0,-0.0018
3176.0,-0.0017
3175.0,-0.0017
3174.0,-0.0016
3173.0,-0.0015
3172.0,-0.0015
3171.0,-0.0014
3170.0,-0.0014
3169.0,-0.0014
3168.0,-0.0015
3167.0,-0.0016
3166.0,-0.0016
3165.0,-0.0017
3164.0,-0.0016
3163.0,-0.0016
3162.0,-0.0016
3161.0,-0.0016
3160.0,-0.0016
3159.0,-0.0016
3158.0,-0.0016
3157.0,-0.0015
3156.0,-0.0014
3155.0,-0.0013
3154.0,-0.0012
3153.0,-0.0012
3152.0,-0.0014
3151.0,-0.0015
3150.0,-0.0016
3149.0,-0.0017
3148.0,-0.0017
3147.0,-0.0017
3146.0,-0.0016
3145.0,-0.0016
3144.0,-0.0015
3143.0,-0.0015
3142.0,-0.0015
3141.0,-0.0016
3140.0,-0.0016
3139.0,-0.0015
3138.0,-0.0015
3137.0,-0.0015
3136.0,-0.0016
3135.0,-0.0017
3134.0,-0.0017
3133.0,-0.0017
3132.0,-0.0017
3131.0,-0.0016
3130.0,-0.0016
3129.0,-0.0015
3128.0,-0.0015
3127.0,-0.0016
3126.0,-0.0016
3125.0,-0.0016
3124.0,-0.0016
3123.0,-0.0016
3122.0,-0.0016
3121.0,-0.0017
3120.0,-0.0018
3119.0,-0.0018
3118.0,-0.0017
3117.0,-0.0016
3116.0,-0.0016
3115.0,-0.0015
3114.0,-0.0015
3113.0,-0.0015
3112.0,-0.0014
3111.0,-0.0014
3110.0,-0.0014
3109.0,-0.0014
3108.0,-0.0014
3107.0,-0.0014
3106.0,-0.0015
3105.0,-0.0015
3104.0,-0.0015
3103.0,-0.0015
3102.0,-0.0015
3101.0,-0.0015
3100.0,-0.0015
3099.0,-0.0015
3098.0,-0.0016
3097.0,-0.0017
3096.0,-0.0018
3095.0,-0.0019
3094.0,-0.002
3093.0,-0.0019
3092.0,-0.0018
3091.0,-0.0016
3090.0,-0.0015
3089.0,-0.0015
3088.0,-0.0015
3087.0,-0.0015
3086.0,-0.0016
3085.0,-0.0016
3084.0,-0.0015
3083.0,-0.0015
3082.0,-0.0014
3081.0,-0.0014
3080.0,-0.0015
3079.0,-0.0015
3078.0,-0.0016
3077.0,-0.0015
3076.0,-0.0015
3075.0,-0.0014
3074.0,-0.0014
3073.0,-0.0014
3072.0,-0.0015
3071.0,-0.0015
3070.0,-0.0015
3069.0,-0.0016
3068.0,-0.0015
3067.0,-0.0015
3066.0,-0.0015
3065.0,-0.0015
3064.0,-0.0015
3063.0,-0.0015
3062.0,-0.0015
3061.0,-0.0015
3060.0,-0.0015
3059.0,-0.0015
3058.0,-0.0015
3057.0,-0.0015
3056.0,-0.0016
3055.0,-0.0016
3054.0,-0.0016
3053.0,-0.0016
3052.0,-0.0015
3051.0,-0.0015
3050.0,-0.0015
3049.0,-0.0016
3048.0,-0.0016
3047.0,-0.0016
3046.0,-0.0017
3045.0,-0.0017
3044.0,-0.0017
3043.0,-0.0017
3042.0,-0.0017
3041.0,-0.0017
3040.0,-0.0018
3039.0,-0.0018
3038.0,-0.0018
3037.0,-0.0018
3036.0,-0.0018
3035.0,-0.0018
3034.0,-0.0018
3033.0,-0.0018
3032.0,-0.0018
3031.0,-0.0018
3030.0,-0.0018
3029.0,-0.0018
3028.0,-0.0018
3027.0,-0.0018
3026.0,-0.0019
3025.0,-0.0019
3024.0,-0.002
3023.0,-0.0021
3022.0,-0.0022
3021.0,-0.0023
3020.0,-0.0024
3019.0,-0.0025
3018.0,-0.0025
3017.0,-0.0026
3016.0,-0.0026
3015.0,-0.0027
3014.0,-0.0028
3013.0,-0.0029
3012.0,-0.0029
3011.0,-0.0029
3010.0,-0.0029
3009.0,-0.003
3008.0,-0.0031
3007.0,-0.0032
3006.0,-0.0033
3005.0,-0.0033
3004.0,-0.0033
3003.0,-0.0033
3002.0,-0.0034
3001.0,-0.0034
3000.0,-0.0035
2999.0,-0.0035
2998.0,-0.0036
2997.0,-0.0036
2996.0,-0.0036
2995.0,-0.0036
2994.0,-0.0036
2993.0,-0.0037
2992.0,-0.004
2991.0,-0.0042
2990.0,-0.0045
2989.0,-0.0046
2988.0,-0.0047
2987.0,-0.0046
2986.0,-0.0044
2985.0,-0.0043
2984.0,-0.0042
2983.0,-0.0041
2982.0,-0.0041
2981.0,-0.004
2980.0,-0.004
2979.0,-0.0041
2978.0,-0.0041
2977.0,-0.0042
2976.0,-0.0043
2975.0,-0.0043
2974.0,-0.0043
2973.0,-0.0043
2972.0,-0.0043
2971.0,-0.0042
2970.0,-0.0041
2969.0,-0.004
2968.0,-0.0039
2967.0,-0.0038
2966.0,-0.0038
2965.0,-0.0038
2964.0,-0.0038
2963.0,-0.0038
2962.0,-0.0039
2961.0,-0.0039
2960.0,-0.0039
2959.0,-0.0038
2958.0,-0.0037
2957.0,-0.0036
2956.0,-0.0035
2955.0,-0.0034
2954.0,-0.0034
2953.0,-0.0034
2952.0,-0.0034
2951.0,-0.0034
2950.0,-0.0033
2949.0,-0.0033
2948.0,-0.0034
2947.0,-0.0034
2946.0,-0.0034
2945.0,-0.0033
2944.0,-0.0033
2943.0,-0.0033
2942.0,-0.0033
2941.0,-0.0033
2940.0,-0.0033
2939.0,-0.0033
2938.0,-0.0033
2937.0,-0.0032
2936.0,-0.0032
2935.0,-0.0032
2934.0,-0.0032
2933.0,-0.0032
2932.0,-0.0032
2931.0,-0.0032
2930.0,-0.0033
2929.0,-0.0034
2928.0,-0.0034
2927.0,-0.0034
2926.0,-0.0033
2925.0,-0.0032
2924.0,-0.0032
2923.0,-0.0031
2922.0,-0.0032
2921.0,-0.0032
2920.0,-0.0032
2919.0,-0.0033
2918.0,-0.0033
2917.0,-0.0033
2916.0,-0.0033
2915.0,-0.0033
2914.0,-0.0033
2913.0,-0.0034
2912.0,-0.0034
2911.0,-0.0034
2910.0,-0.0035
2909.0,-0.0035
2908.0,-0.0035
2907.0,-0.0035
2906.0,-0.0035
2905.0,-0.0035
2904.0,-0.0036
2903.0,-0.0038
2902.0,-0.0039
2901.0,-0.0038
2900.0,-0.0037
2899.0,-0.0036
2898.0,-0.0035
2897.0,-0.0034
2896.0,-0.0034
2895.0,-0.0035
2894.0,-0.0035
2893.0,-0.0034
2892.0,-0.0034
2891.0,-0.0034
2890.0,-0.0033
2889.0,-0.0033
2888.0,-0.0033
2887.0,-0.0033
2886.0,-0.0034
2885.0,-0.0033
2884.0,-0.0033
2883.0,-0.0033
2882.0,-0.0032
2881.0,-0.0032
2880.0,-0.0032
2879.0,-0.0032
2878.0,-0.0032
2877.0,-0.0031
2876.0,-0.003
2875.0,-0.0029
2874.0,-0.0028
2873.0,-0.0028
2872.0,-0.0028
2871.0,-0.0028
2870.0,-0.0028
2869.0,-0.0029
2868.0,-0.0029
2867.0,-0.0028
2866.0,-0.0028
2865.0,-0.0027
2864.0,-0.0027
2863.0,-0.0026
2862.0,-0.0026
2861.0,-0.0025
2860.0,-0.0024
2859.0,-0.0023
2858.0,-0.0023
2857.0,-0.0023
2856.0,-0.0023
2855.0,-0.0022
2854.0,-0.0022
2853.0,-0.0022
2852.0,-0.0021
2851.0,-0.0021
2850.0,-0.002
2849.0,-0.002
2848.0,-0.002
2847.0,-0.0019
2846.0,-0.0019
2845.0,-0.0019
2844.0,-0.0019
2843.0,-0.0019
2842.0,-0.0019
2841.0,-0.002
2840.0,-0.002
2839.0,-0.002
2838.0,-0.0019
2837.0,-0.0018
2836.0,-0.0017
2835.0,-0.0017
2834.0,-0.0017
2833.0,-0.0018
2832.0,-0.0018
2831.0,-0.0018
2830.0,-0.0017
2829.0,-0.0017
2828.0,-0.0016
2827.0,-0.0016
2826.0,-0.0017
2825.0,-0.0017
2824.0,-0.0017
2823.0,-0.0017
2822.0,-0.0017
2821.0,-0.0017
2820.0,-0.0017
2819.0,-0.0017
2818.0,-0.0018
2817.0,-0.0018
2816.0,-0.0017
2815.0,-0.0016
2814.0,-0.0016
2813.0,-0.0016
2812.0,-0.0015
2811.0,-0.0016
2810.0,-0.0016
2809.0,-0.0016
2808.0,-0.0016
2807.0,-0.0017
2806.0,-0.0018
2805.0,-0.0019
2804.0,-0.0019
2803.0,-0.0019
2802.0,-0.0018
2801.0,-0.0017
2800.0,-0.0016
2799.0,-0.0015
2798.0,-0.0015
2797.0,-0.0016
2796.0,-0.0017
2795.0,-0.0017
2794.0,-0.0017
2793.0,-0.0017
2792.0,-0.0017
2791.0,-0.0017
2790.0,-0.0017
2789.0,-0.0018
2788.0,-0.0018
2787.0,-0.0018
2786.0,-0.0017
2785.0,-0.0017
2784.0,-0.0016
2783.0,-0.0016
2782.0,-0.0015
2781.0,-0.0015
2780.0,-0.0015
2779.0,-0.0015
2778.0,-0.0016
2777.0,-0.0016
2776.0,-0.0017
2775.0,-0.0017
2774.0,-0.0017
2773.0,-0.0016
2772.0,-0.0016
2771.0,-0.0016
2770.0,-0.0016
2769.0,-0.0017
2768.0,-0.0018
2767.0,-0.0018
2766.0,-0.0018
2765.0,-0.0017
2764.0,-0.0016
2763.0,-0.0015
2762.0,-0.0015
2761.0,-0.0015
2760.0,-0.0016
2759.0,-0.0015
2758.0,-0.0015
2757.0,-0.0015
2756.0,-0.0015
2755.0,-0.0016
2754.0,-0.0016
2753.0,-0.0016
2752.0,-0.0016
2751.0,-0.0016
2750.0,-0.0016
2749.0,-0.0016
2748.0,-0.0016
2747.0,-0.0016
2746.0,-0.0016
2745.0,-0.0016
2744.0,-0.0016
2743.0,-0.0016
2742.0,-0.0016
2741.0,-0.0016
2740.0,-0.0016
2739.0,-0.0016
2738.0,-0.0016
2737.0,-0.0016
2736.0,-0.0016
2735.0,-0.0016
2734.0,-0.0015
2733.0,-0.0015
2732.0,-0.0015
2731.0,-0.0015
2730.0,-0.0016
2729.0,-0.0017
2728.0,-0.0017
2727.0,-0.0017
2726.0,-0.0017
2725.0,-0.0017
2724.0,-0.0016
2723.0,-0.0015
2722.0,-0.0014
2721.0,-0.0014
2720.0,-0.0015
2719.0,-0.0016
2718.0,-0.0016
2717.0,-0.0016
2716.0,-0.0016
2715.0,-0.0016
2714.0,-0.0016
2713.0,-0.0016
2712.0,-0.0016
2711.0,-0.0015
2710.0,-0.0015
2709.0,-0.0015
2708.0,-0.0014
2707.0,-0.0014
2706.0,-0.0014
2705.0,-0.0014
2704.0,-0.0014
2703.0,-0.0014
2702.0,-0.0014
2701.0,-0.0015
2700.0,-0.0016
2699.0,-0.0016
2698.0,-0.0016
2697.0,-0.0016
2696.0,-0.0017
2695.0,-0.0017
2694.0,-0.0017
2693.0,-0.0017
2692.0,-0.0017
2691.0,-0.0016
2690.0,-0.0016
2689.0,-0.0016
2688.0,-0.0016
2687.0,-0.0016
2686.0,-0.0016
2685.0,-0.0016
2684.0,-0.0016
2683.0,-0.0016
2682.0,-0.0015
2681.0,-0.0015
2680.0,-0.0015
2679.0,-0.0015
2678.0,-0.0014
2677.0,-0.0015
2676.0,-0.0015
2675.0,-0.0016
2674.0,-0.0016
2673.0,-0.0016
2672.0,-0.0016
2671.0,-0.0015
2670.0,-0.0014
2669.0,-0.0014
2668.0,-0.0013
2667.0,-0.0012
2666.0,-0.0012
2665.0,-0.0012
2664.0,-0.0013
2663.0,-0.0015
2662.0,-0.0016
2661.0,-0.0016
2660.0,-0.0016
2659.0,-0.0016
2658.0,-0.0015
2657.0,-0.0014
2656.0,-0.0014
2655.0,-0.0014
2654.0,-0.0014
2653.0,-0.0015
2652.0,-0.0016
2651.0,-0.0016
2650.0,-0.0015
2649.0,-0.0015
2648.0,-0.0014
2647.0,-0.0014
2646.0,-0.0014
2645.0,-0.0014
2644.0,-0.0014
2643.0,-0.0014
2642.0,-0.0014
2641.0,-0.0014
2640.0,-0.0015
2639.0,-0.0015
2638.0,-0.0015
2637.0,-0.0015
2636.0,-0.0015
2635.0,-0.0015
2634.0,-0.0015
2633.0,-0.0016
2632.0,-0.0016
2631.0,-0.0015
2630.0,-0.0015
2629.0,-0.0014
2628.0,-0.0014
2627.0,-0.0015
2626.0,-0.0015
2625.0,-0.0014
2624.0,-0.0014
2623.0,-0.0014
2622.0,-0.0013
2621.0,-0.0013
2620.0,-0.0013
2619.0,-0.0013
2618.0,-0.0014
2617.0,-0.0015
2616.0,-0.0015
2615.0,-0.0015
2614.0,-0.0015
2613.0,-0.0015
2612.0,-0.0015
2611.0,-0.0015
2610.0,-0.0015
2609.0,-0.0015
2608.0,-0.0016
2607.0,-0.0015
2606.0,-0.0015
2605.0,-0.0016
2604.0,-0.0016
2603.0,-0.0016
2602.0,-0.0016
2601.0,-0.0016
2600.0,-0.0015
2599.0,-0.0015
2598.0,-0.0015
2597.0,-0.0015
2596.0,-0.0014
2595.0,-0.0014
2594.0,-0.0014
2593.0,-0.0014
2592.0,-0.0015
2591.0,-0.0015
2590.0,-0.0015
2589.0,-0.0014
2588.0,-0.0014
2587.0,-0.0014
2586.0,-0.0014
2585.0,-0.0014
2584.0,-0.0014
2583.0,-0.0014
2582.0,-0.0014
2581.0,-0.0014
2580.0,-0.0014
2579.0,-0.0014
2578.0,-0.0014
2577.0,-0.0014
2576.0,-0.0014
2575.0,-0.0015
2574.0,-0.0015
2573.0,-0.0015
2572.0,-0.0015
2571.0,-0.0014
2570.0,-0.0014
2569.0,-0.0015
2568.0,-0.0015
2567.0,-0.0016
2566.0,-0.0017
2565.0,-0.0017
2564.0,-0.0017
2563.0,-0.0016
2562.0,-0.0015
2561.0,-0.0015
2560.0,-0.0014
2559.0,-0.0015
2558.0,-0.0015
2557.0,-0.0015
2556.0,-0.0016
2555.0,-0.0016
2554.0,-0.0016
2553.0,-0.0015
2552.0,-0.0015
2551.0,-0.0015
2550.0,-0.0015
2549.0,-0.0015
2548.0,-0.0015
2547.0,-0.0014
2546.0,-0.0015
2545.0,-0.0015
2544.0,-0.0016
2543.0,-0.0015
2542.0,-0.0015
2541.0,-0.0014
2540.0,-0.0015
2539.0,-0.0015
2538.0,-0.0015
2537.0,-0.0015
2536.0,-0.0015
2535.0,-0.0015
2534.0,-0.0015
2533.0,-0.0015
2532.0,-0.0015
2531.0,-0.0015
2530.0,-0.0015
2529.0,-0.0014
2528.0,-0.0014
2527.0,-0.0014
2526.0,-0.0013
2525.0,-0.0014
2524.0,-0.0014
2523.0,-0.0015
2522.0,-0.0016
2521.0,-0.0016
2520.0,-0.0016
2519.0,-0.0015
2518.0,-0.0014
2517.0,-0.0013
2516.0,-0.0013
2515.0,-0.0013
2514.0,-0.0014
2513.0,-0.0015
2512.0,-0.0015
2511.0,-0.0016
2510.0,-0.0016
2509.0,-0.0016
2508.0,-0.0017
2507.0,-0.0017
2506.0,-0.0016
2505.0,-0.0015
2504.0,-0.0015
2503.0,-0.0015
2502.0,-0.0015
2501.0,-0.0016
2500.0,-0.0016
2499.0,-0.0016
2498.0,-0.0016
2497.0,-0.0016
2496.0,-0.0015
2495.0,-0.0015
2494.0,-0.0014
2493.0,-0.0014
2492.0,-0.0014
2491.0,-0.0014
2490.0,-0.0014
2489.0,-0.0015
2488.0,-0.0015
2487.0,-0.0014
2486.0,-0.0014
2485.0,-0.0013
2484.0,-0.0013
2483.0,-0.0014
2482.0,-0.0015
2481.0,-0.0015
2480.0,-0.0014
2479.0,-0.0014
2478.0,-0.0013
2477.0,-0.0013
2476.0,-0.0013
2475.0,-0.0014
2474.0,-0.0014
2473.0,-0.0014
2472.0,-0.0014
2471.0,-0.0015
2470.0,-0.0015
2469.0,-0.0015
2468.0,-0.0015
2467.0,-0.0015
2466.0,-0.0015
2465.0,-0.0016
2464.0,-0.0017
2463.0,-0.0017
2462.0,-0.0016
2461.0,-0.0016
2460.0,-0.0016
2459.0,-0.0015
2458.0,-0.0015
2457.0,-0.0016
2456.0,-0.0016
2455.0,-0.0016
2454.0,-0.0016
2453.0,-0.0015
2452.0,-0.0015
2451.0,-0.0016
2450.0,-0.0016
2449.0,-0.0017
2448.0,-0.0016
2447.0,-0.0016
2446.0,-0.0015
2445.0,-0.0015
2444.0,-0.0014
2443.0,-0.0014
2442.0,-0.0014
2441.0,-0.0014
2440.0,-0.0015
2439.0,-0.0015
2438.0,-0.0015
2437.0,-0.0015
2436.0,-0.0015
2435.0,-0.0015
2434.0,-0.0015
2433.0,-0.0015
2432.0,-0.0015
2431.0,-0.0015
2430.0,-0.0015
2429.0,-0.0015
2428.0,-0.0015
2427.0,-0.0014
2426.0,-0.0014
2425.0,-0.0015
2424.0,-0.0015
2423.0,-0.0015
2422.0,-0.0014
2421.0,-0.0015
2420.0,-0.0015
2419.0,-0.0016
2418.0,-0.0016
2417.0,-0.0016
2416.0,-0.0015
2415.0,-0.0015
2414.0,-0.0014
2413.0,-0.0014
2412.0,-0.0014
2411.0,-0.0015
2410.0,-0.0015
2409.0,-0.0014
2408.0,-0.0014
2407.0,-0.0014
2406.0,-0.0014
2405.0,-0.0015
2404.0,-0.0015
2403.0,-0.0016
2402.0,-0.0015
2401.0,-0.0015
2400.0,-0.0014
2399.0,-0.0014
2398.0,-0.0014
2397.0,-0.0014
2396.0,-0.0015
2395.0,-0.0015
2394.0,-0.0015
2393.0,-0.0016
2392.0,-0.0016
2391.0,-0.0016
2390.0,-0.0017
2389.0,-0.0017
2388.0,-0.0017
2387.0,-0.0017
2386.0,-0.0017
2385.0,-0.0018
2384.0,-0.0018
2383.0,-0.0017
2382.0,-0.0017
2381.0,-0.0016
2380.0,-0.0016
2379.0,-0.0015
2378.0,-0.0014
2377.0,-0.0013
2376.0,-0.0012
2375.0,-0.0011
2374.0,-0.0011
2373.0,-0.0011
2372.0,-0.0011
2371.0,-0.0012
2370.0,-0.0015
2369.0,-0.0019
2368.0,-0.0021
2367.0,-0.002
2366.0,-0.0016
2365.0,-0.0013
2364.0,-0.0011
2363.0,-0.0013
2362.0,-0.0015
2361.0,-0.0014
2360.0,-0.0012
2359.0,-0.0012
2358.0,-0.002
2357.0,-0.003
2356.0,-0.0034
2355.0,-0.0029
2354.0,-0.0018
2353.0,-0.0008
2352.0,-0.0005
2351.0,-0.0007
2350.0,-0.0011
2349.0,-0.0014
2348.0,-0.0014
2347.0,-0.0013
2346.0,-0.0013
2345.0,-0.0013
2344.0,-0.0013
2343.0,-0.0013
2342.0,-0.0012
2341.0,-0.0012
2340.0,-0.0012
2339.0,-0.0011
2338.0,-0.001
2337.0,-0.0008
2336.0,-0.0008
2335.0,-0.0009
2334.0,-0.0008
2333.0,-0.0007
2332.0,-0.0006
2331.0,-0.0008
2330.0,-0.0012
2329.0,-0.0015
2328.0,-0.0014
2327.0,-0.0011
2326.0,-0.0008
2325.0,-0.0007
2324.0,-0.0009
2323.0,-0.001
2322.0,-0.0011
2321.0,-0.0012
2320.0,-0.0013
2319.0,-0.0014
2318.0,-0.0015
2317.0,-0.0015
2316.0,-0.0013
2315.0,-0.0011
2314.0,-0.001
2313.0,-0.001
2312.0,-0.0012
2311.0,-0.0015
2310.0,-0.0017
2309.0,-0.0016
2308.0,-0.0015
2307.0,-0.0013
2306.0,-0.0012
2305.0,-0.0012
2304.0,-0.0013
2303.0,-0.0014
2302.0,-0.0015
2301.0,-0.0015
2300.0,-0.0015
2299.0,-0.0015
2298.0,-0.0016
2297.0,-0.0016
2296.0,-0.0017
2295.0,-0.0017
2294.0,-0.0017
2293.0,-0.0016
2292.0,-0.0016
2291.0,-0.0016
2290.0,-0.0016
2289.0,-0.0016
2288.0,-0.0016
2287.0,-0.0017
2286.0,-0.0017
2285.0,-0.0017
2284.0,-0.0017
2283.0,-0.0017
2282.0,-0.0017
2281.0,-0.0016
2280.0,-0.0016
2279.0,-0.0016
2278.0,-0.0016
2277.0,-0.0016
2276.0,-0.0016
2275.0,-0.0016
2274.0,-0.0016
2273.0,-0.0015
2272.0,-0.0015
2271.0,-0.0016
2270.0,-0.0017
2269.0,-0.0018
2268.0,-0.0018
2267.0,-0.0018
2266.0,-0.0018
2265.0,-0.0017
2264.0,-0.0016
2263.0,-0.0016
2262.0,-0.0016
2261.0,-0.0016
2260.0,-0.0016
2259.0,-0.0015
2258.0,-0.0015
2257.0,-0.0015
2256.0,-0.0015
2255.0,-0.0016
2254.0,-0.0016
2253.0,-0.0016
2252.0,-0.0016
2251.0,-0.0016
2250.0,-0.0017
2249.0,-0.0017
2248.0,-0.0016
2247.0,-0.0016
2246.0,-0.0016
2245.0,-0.0016
2244.0,-0.0016
2243.0,-0.0015
2242.0,-0.0016
2241.0,-0.0016
2240.0,-0.0016
2239.0,-0.0016
2238.0,-0.0016
2237.0,-0.0016
2236.0,-0.0016
2235.0,-0.0016
2234.0,-0.0016
2233.0,-0.0015
2232.0,-0.0015
2231.0,-0.0016
2230.0,-0.0016
2229.0,-0.0016
2228.0,-0.0016
2227.0,-0.0015
2226.0,-0.0015
2225.0,-0.0015
2224.0,-0.0014
2223.0,-0.0014
2222.0,-0.0015
2221.0,-0.0016
2220.0,-0.0016
2219.0,-0.0016
2218.0,-0.0016
2217.0,-0.0016
2216.0,-0.0015
2215.0,-0.0015
2214.0,-0.0015
2213.0,-0.0015
2212.0,-0.0015
2211.0,-0.0015
2210.0,-0.0016
2209.0,-0.0016
2208.0,-0.0016
2207.0,-0.0016
2206.0,-0.0016
2205.0,-0.0016
2204.0,-0.0016
2203.0,-0.0016
2202.0,-0.0016
2201.0,-0.0016
2200.0,-0.0015
2199.0,-0.0016
2198.0,-0.0016
2197.0,-0.0017
2196.0,-0.0016
2195.0,-0.0016
2194.0,-0.0015
2193.0,-0.0015
2192.0,-0.0015
2191.0,-0.0015
2190.0,-0.0015
2189.0,-0.0015
2188.0,-0.0015
2187.0,-0.0015
2186.0,-0.0015
2185.0,-0.0015
2184.0,-0.0015
2183.0,-0.0016
2182.0,-0.0016
2181.0,-0.0017
2180.0,-0.0017
2179.0,-0.0016
2178.0,-0.0016
2177.0,-0.0015
2176.0,-0.0015
2175.0,-0.0015
2174.0,-0.0015
2173.0,-0.0015
2172.0,-0.0015
2171.0,-0.0016
2170.0,-0.0016
2169.0,-0.0017
2168.0,-0.0017
2167.0,-0.0016
2166.0,-0.0016
2165.0,-0.0016
2164.0,-0.0016
2163.0,-0.0016
2162.0,-0.0016
2161.0,-0.0016
2160.0,-0.0017
2159.0,-0.0017
2158.0,-0.0017
2157.0,-0.0017
2156.0,-0.0016
2155.0,-0.0016
2154.0,-0.0016
2153.0,-0.0016
2152.0,-0.0017
2151.0,-0.0017
2150.0,-0.0017
2149.0,-0.0017
2148.0,-0.0017
2147.0,-0.0017
2146.0,-0.0016
2145.0,-0.0016
2144.0,-0.0016
2143.0,-0.0016
2142.0,-0.0016
2141.0,-0.0016
2140.0,-0.0016
2139.0,-0.0016
2138.0,-0.0017
2137.0,-0.0017
2136.0,-0.0017
2135.0,-0.0016
2134.0,-0.0016
2133.0,-0.0015
2132.0,-0.0015
2131.0,-0.0016
2130.0,-0.0017
2129.0,-0.0018
2128.0,-0.0018
2127.0,-0.0017
2126.0,-0.0017
2125.0,-0.0018
2124.0,-0.0018
2123.0,-0.0017
2122.0,-0.0017
2121.0,-0.0017
2120.0,-0.0017
2119.0,-0.0017
2118.0,-0.0017
2117.0,-0.0017
2116.0,-0.0017
2115.0,-0.0017
2114.0,-0.0016
2113.0,-0.0016
2112.0,-0.0017
2111.0,-0.0017
2110.0,-0.0018
2109.0,-0.0017
2108.0,-0.0017
2107.0,-0.0017
2106.0,-0.0017
2105.0,-0.0017
2104.0,-0.0017
2103.0,-0.0018
2102.0,-0.0018
2101.0,-0.0018
2100.0,-0.0019
2099.0,-0.0018
2098.0,-0.0018
2097.0,-0.0018
2096.0,-0.0017
2095.0,-0.0017
2094.0,-0.0018
2093.0,-0.0017
2092.0,-0.0017
2091.0,-0.0016
2090.0,-0.0016
2089.0,-0.0016
2088.0,-0.0016
2087.0,-0.0016
2086.0,-0.0016
2085.0,-0.0016
2084.0,-0.0016
2083.0,-0.0017
2082.0,-0.0017
2081.0,-0.0017
2080.0,-0.0017
2079.0,-0.0017
2078.0,-0.0017
2077.0,-0.0018
2076.0,-0.0018
2075.0,-0.0018
2074.0,-0.0018
2073.0,-0.0018
2072.0,-0.0018
2071.0,-0.0017
2070.0,-0.0017
2069.0,-0.0017
2068.0,-0.0017
2067.0,-0.0017
2066.0,-0.0017
2065.0,-0.0017
2064.0,-0.0018
2063.0,-0.0018
2062.0,-0.0018
2061.0,-0.0018
2060.0,-0.0018
2059.0,-0.0017
2058.0,-0.0018
2057.0,-0.0018
2056.0,-0.0018
2055.0,-0.0018
2054.0,-0.0017
2053.0,-0.0017
2052.0,-0.0017
2051.0,-0.0017
2050.0,-0.0017
2049.0,-0.0017
2048.0,-0.0017
2047.0,-0.0017
2046.0,-0.0017
2045.0,-0.0017
2044.0,-0.0017
2043.0,-0.0017
2042.0,-0.0018
2041.0,-0.0018
2040.0,-0.0018
2039.0,-0.0018
2038.0,-0.0018
2037.0,-0.0018
2036.0,-0.0018
2035.0,-0.0018
2034.0,-0.0018
2033.0,-0.0018
2032.0,-0.0018
2031.0,-0.0018
2030.0,-0.0018
2029.0,-0.0018
2028.0,-0.0018
2027.0,-0.0019
2026.0,-0.0019
2025.0,-0.0019
2024.0,-0.0018
2023.0,-0.0018
2022.0,-0.0017
2021.0,-0.0016
2020.0,-0.0016
2019.0,-0.0017
2018.0,-0.0017
2017.0,-0.0018
2016.0,-0.0018
2015.0,-0.0018
2014.0,-0.0018
2013.0,-0.0018
2012.0,-0.0018
2011.0,-0.0018
2010.0,-0.0019
2009.0,-0.0019
2008.0,-0.0019
2007.0,-0.0018
2006.0,-0.0017
2005.0,-0.0017
2004.0,-0.0016
2003.0,-0.0016
2002.0,-0.0017
2001.0,-0.0017
2000.0,-0.0018
1999.0,-0.0019
1998.0,-0.0019
1997.0,-0.0019
1996.0,-0.0019
1995.0,-0.0019
1994.0,-0.0018
1993.0,-0.0018
1992.0,-0.0018
1991.0,-0.0018
1990.0,-0.0018
1989.0,-0.0018
1988.0,-0.0018
1987.0,-0.0018
1986.0,-0.0018
1985.0,-0.0018
1984.0,-0.0018
1983.0,-0.0017
1982.0,-0.0018
1981.0,-0.0018
1980.0,-0.0018
1979.0,-0.0018
1978.0,-0.0018
1977.0,-0.0018
1976.0,-0.0017
1975.0,-0.0017
1974.0,-0.0017
1973.0,-0.0016
1972.0,-0.0016
1971.0,-0.0016
1970.0,-0.0016
1969.0,-0.0016
1968.0,-0.0017
1967.0,-0.0017
1966.0,-0.0017
1965.0,-0.0018
1964.0,-0.0018
1963.0,-0.0018
1962.0,-0.0018
1961.0,-0.0018
1960.0,-0.0018
1959.0,-0.0018
1958.0,-0.0018
1957.0,-0.0018
1956.0,-0.0018
1955.0,-0.0018
1954.0,-0.0018
1953.0,-0.0018
1952.0,-0.0018
1951.0,-0.0018
1950.0,-0.0018
1949.0,-0.0018
1948.0,-0.0018
1947.0,-0.0017
1946.0,-0.0017
1945.0,-0.0018
1944.0,-0.0018
1943.0,-0.0019
1942.0,-0.0019
1941.0,-0.0019
1940.0,-0.0019
1939.0,-0.0018
1938.0,-0.0018
1937.0,-0.0018
1936.0,-0.0019
1935.0,-0.0019
1934.0,-0.0019
1933.0,-0.0019
1932.0,-0.0019
1931.0,-0.0019
1930.0,-0.0019
1929.0,-0.0019
1928.0,-0.0019
1927.0,-0.0019
1926.0,-0.0018
1925.0,-0.0018
1924.0,-0.0018
1923.0,-0.0019
1922.0,-0.0019
1921.0,-0.002
1920.0,-0.002
1919.0,-0.0019
1918.0,-0.0018
1917.0,-0.0018
1916.0,-0.0018
1915.0,-0.0018
1914.0,-0.0018
1913.0,-0.0018
1912.0,-0.0018
1911.0,-0.0018
1910.0,-0.0018
1909.0,-0.0018
1908.0,-0.0018
1907.0,-0.0018
1906.0,-0.0018
1905.0,-0.0018
1904.0,-0.0018
1903.0,-0.0018
1902.0,-0.0018
1901.0,-0.0018
1900.0,-0.0018
1899.0,-0.0018
1898.0,-0.0018
1897.0,-0.0018
1896.0,-0.0019
1895.0,-0.0019
1894.0,-0.0019
1893.0,-0.0019
1892.0,-0.0019
1891.0,-0.0018
1890.0,-0.0018
1889.0,-0.0018
1888.0,-0.0018
1887.0,-0.0018
1886.0,-0.0018
1885.0,-0.0018
1884.0,-0.0018
1883.0,-0.0017
1882.0,-0.0017
1881.0,-0.0017
1880.0,-0.0017
1879.0,-0.0018
1878.0,-0.0018
1877.0,-0.0018
1876.0,-0.0018
1875.0,-0.0018
1874.0,-0.0018
1873.0,-0.0018
1872.0,-0.0017
1871.0,-0.0017
1870.0,-0.0017
1869.0,-0.0016
1868.0,-0.0016
1867.0,-0.0017
1866.0,-0.0017
1865.0,-0.0018
1864.0,-0.0018
1863.0,-0.0018
1862.0,-0.0017
1861.0,-0.0017
1860.0,-0.0017
1859.0,-0.0017
1858.0,-0.0017
1857.0,-0.0017
1856.0,-0.0017
1855.0,-0.0017
1854.0,-0.0018
1853.0,-0.0018
1852.0,-0.0018
1851.0,-0.0018
1850.0,-0.0018
1849.0,-0.0018
1848.0,-0.0018
1847.0,-0.0019
1846.0,-0.0019
1845.0,-0.002
1844.0,-0.002
1843.0,-0.0019
1842.0,-0.0018
1841.0,-0.0018
1840.0,-0.0017
1839.0,-0.0017
1838.0,-0.0017
1837.0,-0.0017
1836.0,-0.0018
1835.0,-0.0018
1834.0,-0.0018
1833.0,-0.0018
1832.0,-0.0018
1831.0,-0.0017
1830.0,-0.0017
1829.0,-0.0017
1828.0,-0.0017
1827.0,-0.0017
1826.0,-0.0017
1825.0,-0.0018
1824.0,-0.0018
1823.0,-0.0019
1822.0,-0.0018
1821.0,-0.0018
1820.0,-0.0018
1819.0,-0.0019
1818.0,-0.0019
1817.0,-0.0018
1816.0,-0.0018
1815.0,-0.0018
1814.0,-0.0018
1813.0,-0.0018
1812.0,-0.0018
1811.0,-0.0018
1810.0,-0.0018
1809.0,-0.0017
1808.0,-0.0018
1807.0,-0.0018
1806.0,-0.0018
1805.0,-0.0017
1804.0,-0.0017
1803.0,-0.0018
1802.0,-0.0018
1801.0,-0.0018
1800.0,-0.0018
1799.0,-0.0018
1798.0,-0.0018
1797.0,-0.0018
1796.0,-0.0018
1795.0,-0.0018
1794.0,-0.0018
1793.0,-0.0018
1792.0,-0.0017
1791.0,-0.0017
1790.0,-0.0017
1789.0,-0.0017
1788.0,-0.0017
1787.0,-0.0018
1786.0,-0.0018
1785.0,-0.0019
1784.0,-0.0019
1783.0,-0.0019
1782.0,-0.0019
1781.0,-0.0019
1780.0,-0.0019
1779.0,-0.0019
1778.0,-0.0019
1777.0,-0.0019
1776.0,-0.0019
1775.0,-0.0019
1774.0,-0.0019
1773.0,-0.0019
1772.0,-0.0018
1771.0,-0.0018
1770.0,-0.0017
1769.0,-0.0017
1768.0,-0.0017
1767.0,-0.0017
1766.0,-0.0017
1765.0,-0.0016
1764.0,-0.0016
1763.0,-0.0016
1762.0,-0.0016
1761.0,-0.0017
1760.0,-0.0017
1759.0,-0.0017
1758.0,-0.0017
1757.0,-0.0016
1756.0,-0.0016
1755.0,-0.0016
1754.0,-0.0016
1753.0,-0.0017
1752.0,-0.0017
1751.0,-0.0018
1750.0,-0.0018
1749.0,-0.0017
1748.0,-0.0017
1747.0,-0.0017
1746.0,-0.0017
1745.0,-0.0017
1744.0,-0.0017
1743.0,-0.0017
1742.0,-0.0017
1741.0,-0.0016
1740.0,-0.0016
1739.0,-0.0017
1738.0,-0.0017
1737.0,-0.0017
1736.0,-0.0017
1735.0,-0.0017
1734.0,-0.0018
1733.0,-0.0018
1732.0,-0.0018
1731.0,-0.0017
1730.0,-0.0017
1729.0,-0.0017
1728.0,-0.0017
1727.0,-0.0017
1726.0,-0.0018
1725.0,-0.0018
1724.0,-0.0018
1723.0,-0.0018
1722.0,-0.0018
1721.0,-0.0018
1720.0,-0.0017
1719.0,-0.0017
1718.0,-0.0016
1717.0,-0.0016
1716.0,-0.0016
1715.0,-0.0016
1714.0,-0.0016
1713.0,-0.0017
1712.0,-0.0017
1711.0,-0.0018
1710.0,-0.0018
1709.0,-0.0018
1708.0,-0.0018
1707.0,-0.0017
1706.0,-0.0017
1705.0,-0.0017
1704.0,-0.0017
1703.0,-0.0016
1702.0,-0.0015
1701.0,-0.0015
1700.0,-0.0016
1699.0,-0.0017
1698.0,-0.0017
1697.0,-0.0017
1696.0,-0.0017
1695.0,-0.0017
1694.0,-0.0018
1693.0,-0.0018
1692.0,-0.0018
1691.0,-0.0018
1690.0,-0.0017
1689.0,-0.0017
1688.0,-0.0018
1687.0,-0.0018
1686.0,-0.0019
1685.0,-0.002
1684.0,-0.0019
1683.0,-0.0018
1682.0,-0.0017
1681.0,-0.0016
1680.0,-0.0016
1679.0,-0.0017
1678.0,-0.0017
1677.0,-0.0017
1676.0,-0.0017
1675.0,-0.0017
1674.0,-0.0017
1673.0,-0.0017
1672.0,-0.0017
1671.0,-0.0018
1670.0,-0.0018
1669.0,-0.0018
1668.0,-0.0017
1667.0,-0.0016
1666.0,-0.0016
1665.0,-0.0016
1664.0,-0.0017
1663.0,-0.0018
1662.0,-0.0018
1661.0,-0.0019
1660.0,-0.0018
1659.0,-0.0018
1658.0,-0.0017
1657.0,-0.0017
1656.0,-0.0017
1655.0,-0.0017
1654.0,-0.0017
1653.0,-0.0016
1652.0,-0.0017
1651.0,-0.0017
1650.0,-0.0017
1649.0,-0.0017
1648.0,-0.0018
1647.0,-0.0018
1646.0,-0.0018
1645.0,-0.0019
1644.0,-0.0019
1643.0,-0.0019
1642.0,-0.0018
1641.0,-0.0018
1640.0,-0.0018
1639.0,-0.0018
1638.0,-0.0018
1637.0,-0.0018
1636.0,-0.0018
1635.0,-0.0018
1634.0,-0.0017
1633.0,-0.0017
1632.0,-0.0017
1631.0,-0.0017
1630.0,-0.0017
1629.0,-0.0016
1628.0,-0.0016
1627.0,-0.0017
1626.0,-0.0017
1625.0,-0.0018
1624.0,-0.0018
1623.0,-0.0019
1622.0,-0.0019
1621.0,-0.0019
1620.0,-0.0018
1619.0,-0.0018
1618.0,-0.0019
1617.0,-0.0019
1616.0,-0.0018
1615.0,-0.0018
1614.0,-0.0018
1613.0,-0.0018
1612.0,-0.0018
1611.0,-0.0018
1610.0,-0.0017
1609.0,-0.0017
1608.0,-0.0017
1607.0,-0.0016
1606.0,-0.0016
1605.0,-0.0016
1604.0,-0.0016
1603.0,-0.0016
1602.0,-0.0016
1601.0,-0.0016
1600.0,-0.0016
1599.0,-0.0016
1598.0,-0.0017
1597.0,-0.0017
1596.0,-0.0017
1595.0,-0.0016
1594.0,-0.0016
1593.0,-0.0017
1592.0,-0.0017
1591.0,-0.0017
1590.0,-0.0017
1589.0,-0.0017
1588.0,-0.0017
1587.0,-0.0016
1586.0,-0.0016
1585.0,-0.0016
1584.0,-0.0016
1583.0,-0.0016
1582.0,-0.0016
1581.0,-0.0016
1580.0,-0.0016
1579.0,-0.0017
1578.0,-0.0017
1577.0,-0.0018
1576.0,-0.0018
1575.0,-0.0017
1574.0,-0.0016
1573.0,-0.0016
1572.0,-0.0016
1571.0,-0.0017
1570.0,-0.0017
1569.0,-0.0016
1568.0,-0.0016
1567.0,-0.0017
1566.0,-0.0017
1565.0,-0.0017
1564.0,-0.0017
1563.0,-0.0017
1562.0,-0.0017
1561.0,-0.0017
1560.0,-0.0018
1559.0,-0.0018
1558.0,-0.0018
1557.0,-0.0018
1556.0,-0.0018
1555.0,-0.0018
1554.0,-0.0018
1553.0,-0.0018
1552.0,-0.0018
1551.0,-0.0018
1550.0,-0.0017
1549.0,-0.0017
1548.0,-0.0017
1547.0,-0.0017
1546.0,-0.0018
1545.0,-0.0018
1544.0,-0.0017
1543.0,-0.0016
1542.0,-0.0014
1541.0,-0.0013
1540.0,-0.0014
1539.0,-0.0016
1538.0,-0.0017
1537.0,-0.0018
1536.0,-0.0018
1535.0,-0.0018
1534.0,-0.0017
1533.0,-0.0017
1532.0,-0.0017
1531.0,-0.0017
1530.0,-0.0017
1529.0,-0.0017
1528.0,-0.0017
1527.0,-0.0017
1526.0,-0.0017
1525.0,-0.0017
1524.0,-0.0017
1523.0,-0.0017
1522.0,-0.0017
1521.0,-0.0016
1520.0,-0.0017
1519.0,-0.0017
1518.0,-0.0017
1517.0,-0.0018
1516.0,-0.0018
1515.0,-0.0018
1514.0,-0.0018
1513.0,-0.0018
1512.0,-0.0018
1511.0,-0.0017
1510.0,-0.0017
1509.0,-0.0017
1508.0,-0.0017
1507.0,-0.0017
1506.0,-0.0017
1505.0,-0.0017
1504.0,-0.0017
1503.0,-0.0018
1502.0,-0.0018
1501.0,-0.0018
1500.0,-0.0018
1499.0,-0.0018
1498.0,-0.0018
1497.0,-0.0017
1496.0,-0.0017
1495.0,-0.0017
1494.0,-0.0017
1493.0,-0.0017
1492.0,-0.0017
1491.0,-0.0017
1490.0,-0.0018
1489.0,-0.0019
1488.0,-0.0019
1487.0,-0.0019
1486.0,-0.0018
1485.0,-0.0017
1484.0,-0.0017
1483.0,-0.0017
1482.0,-0.0018
1481.0,-0.0018
1480.0,-0.0019
1479.0,-0.0019
1478.0,-0.0019
1477.0,-0.0019
1476.0,-0.0018
1475.0,-0.0018
1474.0,-0.0018
1473.0,-0.0018
1472.0,-0.0018
1471.0,-0.0018
1470.0,-0.0019
1469.0,-0.0019
1468.0,-0.0019
1467.0,-0.0019
1466.0,-0.0019
1465.0,-0.0019
1464.0,-0.0019
1463.0,-0.0019
1462.0,-0.0018
1461.0,-0.0018
1460.0,-0.0019
1459.0,-0.0019
1458.0,-0.0021
1457.0,-0.0021
1456.0,-0.002
1455.0,-0.0019
1454.0,-0.0019
1453.0,-0.0018
1452.0,-0.0018
1451.0,-0.0018
1450.0,-0.0018
1449.0,-0.0019
1448.0,-0.0019
1447.0,-0.002
1446.0,-0.002
1445.0,-0.002
1444.0,-0.0019
1443.0,-0.0019
1442.0,-0.0019
1441.0,-0.0019
1440.0,-0.0019
1439.0,-0.0019
1438.0,-0.0019
1437.0,-0.0019
1436.0,-0.0019
1435.0,-0.0019
1434.0,-0.0019
1433.0,-0.0019
1432.0,-0.0019
1431.0,-0.0019
1430.0,-0.0019
1429.0,-0.0019
1428.0,-0.0019
1427.0,-0.0019
1426.0,-0.0019
1425.0,-0.0019
1424.0,-0.0019
1423.0,-0.002
1422.0,-0.0021
1421.0,-0.0021
1420.0,-0.0022
1419.0,-0.0023
1418.0,-0.0023
1417.0,-0.0024
1416.0,-0.0024
1415.0,-0.0024
1414.0,-0.0025
1413.0,-0.0025
1412.0,-0.0026
1411.0,-0.0027
1410.0,-0.0027
1409.0,-0.0027
1408.0,-0.0027
1407.0,-0.0027
1406.0,-0.0027
1405.0,-0.0027
1404.0,-0.0027
1403.0,-0.0027
1402.0,-0.0027
1401.0,-0.0026
1400.0,-0.0026
1399.0,-0.0025
1398.0,-0.0025
1397.0,-0.0026
1396.0,-0.0028
1395.0,-0.0029
1394.0,-0.0029
1393.0,-0.0028
1392.0,-0.0027
1391.0,-0.0026
1390.0,-0.0025
1389.0,-0.0025
1388.0,-0.0025
1387.0,-0.0025
1386.0,-0.0025
1385.0,-0.0026
1384.0,-0.0026
1383.0,-0.0026
1382.0,-0.0026
1381.0,-0.0025
1380.0,-0.0025
1379.0,-0.0025
1378.0,-0.0024
1377.0,-0.0024
1376.0,-0.0023
1375.0,-0.0023
1374.0,-0.0023
1373.0,-0.0023
1372.0,-0.0023
1371.0,-0.0023
1370.0,-0.0023
1369.0,-0.0022
1368.0,-0.0021
1367.0,-0.0021
1366.0,-0.002
1365.0,-0.002
1364.0,-0.002
1363.0,-0.002
1362.0,-0.002
1361.0,-0.002
1360.0,-0.002
1359.0,-0.0019
1358.0,-0.0019
1357.0,-0.0019
1356.0,-0.0019
1355.0,-0.0019
1354.0,-0.0019
1353.0,-0.0018
1352.0,-0.0018
1351.0,-0.0017
1350.0,-0.0017
1349.0,-0.0017
1348.0,-0.0017
1347.0,-0.0017
1346.0,-0.0017
1345.0,-0.0018
1344.0,-0.0018
1343.0,-0.0018
1342.0,-0.0018
1341.0,-0.0018
1340.0,-0.0017
1339.0,-0.0017
1338.0,-0.0017
1337.0,-0.0017
1336.0,-0.0017
1335.0,-0.0017
1334.0,-0.0017
1333.0,-0.0017
1332.0,-0.0017
1331.0,-0.0018
1330.0,-0.0018
1329.0,-0.0018
1328.0,-0.0017
1327.0,-0.0017
1326.0,-0.0017
1325.0,-0.0017
1324.0,-0.0017
1323.0,-0.0017
1322.0,-0.0017
1321.0,-0.0018
1320.0,-0.0018
1319.0,-0.0018
1318.0,-0.0017
1317.0,-0.0017
1316.0,-0.0017
1315.0,-0.0016
1314.0,-0.0016
1313.0,-0.0016
1312.0,-0.0016
1311.0,-0.0016
1310.0,-0.0016
1309.0,-0.0017
1308.0,-0.0017
1307.0,-0.0017
1306.0,-0.0016
1305.0,-0.0016
1304.0,-0.0016
1303.0,-0.0016
1302.0,-0.0016
1301.0,-0.0017
1300.0,-0.0017
1299.0,-0.0018
1298.0,-0.0018
1297.0,-0.0018
1296.0,-0.0018
1295.0,-0.0018
1294.0,-0.0017
1293.0,-0.0017
1292.0,-0.0017
1291.0,-0.0017
1290.0,-0.0017
1289.0,-0.0017
1288.0,-0.0017
1287.0,-0.0017
1286.0,-0.0016
1285.0,-0.0016
1284.0,-0.0017
1283.0,-0.0017
1282.0,-0.0018
1281.0,-0.0018
1280.0,-0.0018
1279.0,-0.0018
1278.0,-0.0018
1277.0,-0.0018
1276.0,-0.0018
1275.0,-0.0018
1274.0,-0.0018
1273.0,-0.0019
1272.0,-0.002
1271.0,-0.002
1270.0,-0.0021
1269.0,-0.0021
1268.0,-0.0021
1267.0,-0.0021
1266.0,-0.0022
1265.0,-0.0022
1264.0,-0.0023
1263.0,-0.0023
1262.0,-0.0024
1261.0,-0.0024
1260.0,-0.0024
1259.0,-0.0024
1258.0,-0.0023
1257.0,-0.0024
1256.0,-0.0024
1255.0,-0.0024
1254.0,-0.0024
1253.0,-0.0024
1252.0,-0.0024
1251.0,-0.0024
1250.0,-0.0024
1249.0,-0.0024
1248.0,-0.0024
1247.0,-0.0024
1246.0,-0.0023
1245.0,-0.0023
1244.0,-0.0023
1243.0,-0.0023
1242.0,-0.0023
1241.0,-0.0023
1240.0,-0.0023
1239.0,-0.0022
1238.0,-0.0022
1237.0,-0.0022
1236.0,-0.0022
1235.0,-0.0022
1234.0,-0.0022
1233.0,-0.0023
1232.0,-0.0024
1231.0,-0.0024
1230.0,-0.0024
1229.0,-0.0024
1228.0,-0.0024
1227.0,-0.0023
1226.0,-0.0023
1225.0,-0.0023
1224.0,-0.0023
1223.0,-0.0022
1222.0,-0.0021
1221.0,-0.0021
1220.0,-0.002
1219.0,-0.002
1218.0,-0.002
1217.0,-0.002
1216.0,-0.002
1215.0,-0.0019
1214.0,-0.0019
1213.0,-0.0018
1212.0,-0.0018
1211.0,-0.0018
1210.0,-0.0018
1209.0,-0.0018
1208.0,-0.0018
1207.0,-0.0017
1206.0,-0.0016
1205.0,-0.0016
1204.0,-0.0017
1203.0,-0.0017
1202.0,-0.0017
1201.0,-0.0016
1200.0,-0.0016
1199.0,-0.0015
1198.0,-0.0015
1197.0,-0.0015
1196.0,-0.0015
1195.0,-0.0015
1194.0,-0.0015
1193.0,-0.0015
1192.0,-0.0015
1191.0,-0.0016
1190.0,-0.0016
1189.0,-0.0017
1188.0,-0.0017
1187.0,-0.0016
1186.0,-0.0016
1185.0,-0.0016
1184.0,-0.0016
1183.0,-0.0016
1182.0,-0.0016
1181.0,-0.0016
1180.0,-0.0016
1179.0,-0.0016
1178.0,-0.0016
1177.0,-0.0015
1176.0,-0.0015
1175.0,-0.0015
1174.0,-0.0016
1173.0,-0.0016
1172.0,-0.0016
1171.0,-0.0016
1170.0,-0.0016
1169.0,-0.0016
1168.0,-0.0016
1167.0,-0.0015
1166.0,-0.0015
1165.0,-0.0014
1164.0,-0.0014
1163.0,-0.0014
1162.0,-0.0014
1161.0,-0.0015
1160.0,-0.0015
1159.0,-0.0016
1158.0,-0.0016
1157.0,-0.0016
1156.0,-0.0015
1155.0,-0.0014
1154.0,-0.0014
1153.0,-0.0015
1152.0,-0.0015
1151.0,-0.0015
1150.0,-0.0015
1149.0,-0.0015
1148.0,-0.0015
1147.0,-0.0015
1146.0,-0.0015
1145.0,-0.0015
1144.0,-0.0014
1143.0,-0.0013
1142.0,-0.0013
1141.0,-0.0013
1140.0,-0.0014
1139.0,-0.0014
1138.0,-0.0014
1137.0,-0.0014
1136.0,-0.0015
1135.0,-0.0016
1134.0,-0.0016
1133.0,-0.0016
1132.0,-0.0016
1131.0,-0.0016
1130.0,-0.0017
1129.0,-0.0017
1128.0,-0.0018
1127.0,-0.0017
1126.0,-0.0017
1125.0,-0.0016
1124.0,-0.0016
1123.0,-0.0016
1122.0,-0.0016
1121.0,-0.0016
1120.0,-0.0017
1119.0,-0.0017
1118.0,-0.0017
1117.0,-0.0017
1116.0,-0.0017
1115.0,-0.0017
1114.0,-0.0018
1113.0,-0.0019
1112.0,-0.0021
1111.0,-0.0022
1110.0,-0.0023
1109.0,-0.0023
1108.0,-0.0022
1107.0,-0.0022
1106.0,-0.0022
1105.0,-0.0023
1104.0,-0.0023
1103.0,-0.0022
1102.0,-0.0022
1101.0,-0.0022
1100.0,-0.0022
1099.0,-0.0023
1098.0,-0.0024
1097.0,-0.0025
1096.0,-0.0026
1095.0,-0.0027
1094.0,-0.0027
1093.0,-0.0027
1092.0,-0.0028
1091.0,-0.0029
1090.0,-0.0029
1089.0,-0.003
1088.0,-0.0031
1087.0,-0.0032
1086.0,-0.0032
1085.0,-0.0033
1084.0,-0.0034
1083.0,-0.0036
1082.0,-0.0038
1081.0,-0.0039
1080.0,-0.0041
1079.0,-0.0041
1078.0,-0.0042
1077.0,-0.0042
1076.0,-0.0041
1075.0,-0.0041
1074.0,-0.004
1073.0,-0.004
1072.0,-0.0039
1071.0,-0.0039
1070.0,-0.004
1069.0,-0.0042
1068.0,-0.0043
1067.0,-0.0045
1066.0,-0.0044
1065.0,-0.0043
1064.0,-0.004
1063.0,-0.0038
1062.0,-0.0038
1061.0,-0.0038
1060.0,-0.004
1059.0,-0.0041
1058.0,-0.0042
1057.0,-0.0043
1056.0,-0.0043
1055.0,-0.0043
1054.0,-0.0042
1053.0,-0.0042
1052.0,-0.0041
1051.0,-0.004
1050.0,-0.0039
1049.0,-0.0039
1048.0,-0.0039
1047.0,-0.0039
1046.0,-0.0039
1045.0,-0.0038
1044.0,-0.0038
1043.0,-0.0038
1042.0,-0.0037
1041.0,-0.0036
1040.0,-0.0035
1039.0,-0.0034
1038.0,-0.0033
1037.0,-0.0032
1036.0,-0.003
1035.0,-0.0028
1034.0,-0.0025
1033.0,-0.0024
1032.0,-0.0023
1031.0,-0.0022
1030.0,-0.0023
1029.0,-0.0024
1028.0,-0.0025
1027.0,-0.0025
1026.0,-0.0024
1025.0,-0.0022
1024.0,-0.0021
1023.0,-0.002
1022.0,-0.0019
1021.0,-0.0019
1020.0,-0.0018
1019.0,-0.0018
1018.0,-0.0018
1017.0,-0.0018
1016.0,-0.0018
1015.0,-0.0018
1014.0,-0.0016
1013.0,-0.0014
1012.0,-0.0013
1011.0,-0.0012
1010.0,-0.0012
1009.0,-0.0012
1008.0,-0.0011
1007.0,-0.0011
1006.0,-0.0011
1005.0,-0.001
1004.0,-0.0009
1003.0,-0.0009
1002.0,-0.0009
1001.0,-0.001
1000.0,-0.001
999.0,-0.001
998.0,-0.0009
997.0,-0.0008
996.0,-0.0008
995.0,-0.0007
994.0,-0.0007
993.0,-0.0007
992.0,-0.0007
991.0,-0.0007
990.0,-0.0006
989.0,-0.0006
988.0,-0.0006
987.0,-0.0006
986.0,-0.0006
985.0,-0.0006
984.0,-0.0006
983.0,-0.0006
982.0,-0.0006
981.0,-0.0006
980.0,-0.0005
979.0,-0.0005
978.0,-0.0004
977.0,-0.0003
976.0,-0.0003
975.0,-0.0003
974.0,-0.0004
973.0,-0.0004
972.0,-0.0004
971.0,-0.0003
970.0,-0.0003
969.0,-0.0004
968.0,-0.0005
967.0,-0.0005
966.0,-0.0005
965.0,-0.0004
964.0,-0.0004
963.0,-0.0004
962.0,-0.0004
961.0,-0.0004
960.0,-0.0004
959.0,-0.0004
958.0,-0.0004
957.0,-0.0003
956.0,-0.0003
955.0,-0.0003
954.0,-0.0002
953.0,-0.0002
952.0,-0.0002
951.0,-0.0002
950.0,-0.0002
949.0,-0.0002
948.0,-0.0002
947.0,-0.0002
946.0,-0.0002
945.0,-0.0002
944.0,-0.0002
943.0,-0.0001
942.0,-0.0002
941.0,-0.0002
940.0,-0.0003
939.0,-0.0003
938.0,-0.0002
937.0,-0.0001
936.0,-0.0001
935.0,-0.0001
934.0,-0.0001
933.0,-0.0001
932.0,-0.0
931.0,0.0
930.0,0.0001
929.0,0.0001
928.0,0.0001
927.0,0.0001
926.0,0.0002
925.0,0.0002
924.0,0.0001
923.0,0.0
922.0,-0.0001
921.0,-0.0002
920.0,-0.0002
919.0,-0.0002
918.0,-0.0002
917.0,-0.0001
916.0,-0.0
915.0,-0.0
914.0,-0.0
913.0,-0.0001
912.0,-0.0
911.0,-0.0
910.0,-0.0
909.0,0.0
908.0,0.0
907.0,0.0
906.0,-0.0001
905.0,-0.0001
904.0,-0.0002
903.0,-0.0002
902.0,-0.0002
901.0,-0.0001
900.0,-0.0001
899.0,-0.0001
898.0,-0.0001
897.0,0.0
896.0,0.0001
895.0,0.0002
894.0,0.0003
893.0,0.0002
892.0,0.0001
891.0,0.0001
890.0,0.0
889.0,0.0001
888.0,0.0002
887.0,0.0003
886.0,0.0003
885.0,0.0003
884.0,0.0003
883.0,0.0004
882.0,0.0005
881.0,0.0004
880.0,0.0003
879.0,0.0002
878.0,0.0001
877.0,0.0001
876.0,0.0002
875.0,0.0003
874.0,0.0004
873.0,0.0003
872.0,0.0002
871.0,0.0002
870.0,0.0002
869.0,0.0002
868.0,0.0003
867.0,0.0004
866.0,0.0004
865.0,0.0004
864.0,0.0004
863.0,0.0003
862.0,0.0003
861.0,0.0003
860.0,0.0004
859.0,0.0006
858.0,0.0007
857.0,0.0008
856.0,0.0008
855.0,0.0009
854.0,0.0009
853.0,0.0009
852.0,0.0009
851.0,0.0009
850.0,0.0009
849.0,0.0009
848.0,0.0009
847.0,0.0009
846.0,0.001
845.0,0.0011
844.0,0.0011
843.0,0.0011
842.0,0.001
841.0,0.0009
840.0,0.0008
839.0,0.0007
838.0,0.0007
837.0,0.0008
836.0,0.0008
835.0,0.0008
834.0,0.0009
833.0,0.0009
832.0,0.0009
831.0,0.001
830.0,0.0011
829.0,0.0012
828.0,0.0013
827.0,0.0013
826.0,0.0014
825.0,0.0014
824.0,0.0015
823.0,0.0016
822.0,0.0016
821.0,0.0014
820.0,0.0013
819.0,0.0011
818.0,0.0011
817.0,0.001
816.0,0.001
815.0,0.0011
814.0,0.0011
813.0,0.0012
812.0,0.0011
811.0,0.0012
810.0,0.0013
809.0,0.0015
808.0,0.0016
807.0,0.0016
806.0,0.0016
805.0,0.0015
804.0,0.0015
803.0,0.0015
802.0,0.0014
801.0,0.0013
800.0,0.0012
799.0,0.0011
798.0,0.0011
797.0,0.0012
796.0,0.0014
795.0,0.0016
794.0,0.0016
793.0,0.0017
792.0,0.0017
791.0,0.0016
790.0,0.0016
789.0,0.0016
788.0,0.0016
787.0,0.0015
786.0,0.0014
785.0,0.0014
784.0,0.0014
783.0,0.0014
782.0,0.0015
781.0,0.0014
780.0,0.0014
779.0,0.0013
778.0,0.0014
777.0,0.0015
776.0,0.0016
775.0,0.0016
774.0,0.0016
773.0,0.0016
772.0,0.0015
771.0,0.0015
770.0,0.0016
769.0,0.0017
768.0,0.0019
767.0,0.0021
766.0,0.002
765.0,0.0019
764.0,0.0019
763.0,0.002
762.0,0.0021
761.0,0.0021
760.0,0.0019
759.0,0.0019
758.0,0.002
757.0,0.0024
756.0,0.0027
755.0,0.0029
754.0,0.003
753.0,0.0029
752.0,0.0029
751.0,0.003
750.0,0.0031
749.0,0.0032
748.0,0.0032
747.0,0.0031
746.0,0.0031
745.0,0.0032
744.0,0.0032
743.0,0.0033
742.0,0.0033
741.0,0.0032
740.0,0.0031
739.0,0.003
738.0,0.003
737.0,0.003
736.0,0.0032
735.0,0.0033
734.0,0.0033
733.0,0.0032
732.0,0.003
731.0,0.0029
730.0,0.0029
729.0,0.0031
728.0,0.0033
727.0,0.0035
726.0,0.0035
725.0,0.0034
724.0,0.0032
723.0,0.003
722.0,0.0029
721.0,0.0027
720.0,0.0026
719.0,0.0024
718.0,0.0024
717.0,0.0025
716.0,0.0026
715.0,0.0027
714.0,0.0027
713.0,0.0025
712.0,0.0024
711.0,0.0023
710.0,0.0023
709.0,0.0024
708.0,0.0023
707.0,0.0022
706.0,0.002
705.0,0.0018
704.0,0.0019
703.0,0.0022
702.0,0.003
701.0,0.0039
700.0,0.0049
699.0,0.0058
698.0,0.0066
697.0,0.0072
696.0,0.0076
695.0,0.0076
694.0,0.0074
693.0,0.0072
692.0,0.0072
691.0,0.0073
690.0,0.0074
689.0,0.0072
688.0,0.0067
687.0,0.0061
686.0,0.0056
685.0,0.0055
684.0,0.0057
683.0,0.0059
682.0,0.006
681.0,0.0059
680.0,0.0056
679.0,0.0052
678.0,0.0046
677.0,0.004
676.0,0.0035
675.0,0.0033
674.0,0.0034
673.0,0.0038
672.0,0.0041
671.0,0.0045
670.0,0.0047
669.0,0.0051
668.0,0.0054
667.0,0.0051
666.0,0.0045
665.0,0.0043
664.0,0.0045
663.0,0.0048
662.0,0.0049
661.0,0.0049
660.0,0.0049
659.0,0.0049
658.0,0.0048
657.0,0.0046
656.0,0.0046
655.0,0.0052
654.0,0.0059
653.0,0.0061
652.0,0.0055
651.0,0.0047
650.0,0.0041
649.0,0.0043
648.0,0.0051
647.0,0.006
646.0,0.0065
645.0,0.0064
644.0,0.0059
643.0,0.0052
642.0,0.0045
641.0,0.0042
640.0,0.0042
639.0,0.0043
638.0,0.0044
637.0,0.0047
636.0,0.0052
635.0,0.0058
634.0,0.0064
633.0,0.0068
632.0,0.0066
631.0,0.0058
630.0,0.0049
629.0,0.0043
628.0,0.004
627.0,0.0039
626.0,0.0039
625.0,0.0041
624.0,0.0047
623.0,0.0055
622.0,0.0057
621.0,0.0054
620.0,0.0052
619.0,0.0056
618.0,0.0065
617.0,0.0072
616.0,0.0072
615.0,0.0067
614.0,0.0061
613.0,0.0058
612.0,0.006
611.0,0.0064
610.0,0.0065
609.0,0.006
608.0,0.0052
607.0,0.0046
606.0,0.0044
605.0,0.0044
604.0,0.0045
603.0,0.0043
602.0,0.0038
601.0,0.003
600.0,0.0022
