cm-1,A
4000.0,0.0039
3999.0,0.0039
3998.0,0.004
3997.0,0.0041
3996.0,0.0041
3995.0,0.0041
3994.0,0.0041
3993.0,0.004
3992.0,0.004
3991.0,0.0039
3990.0,0.0038
3989.0,0.0038
3988.0,0.0039
3987.0,0.0039
3986.0,0.004
3985.0,0.0039
3984.0,0.0039
3983.0,0.0038
3982.0,0.0037
3981.0,0.0037
3980.0,0.0038
3979.0,0.0038
3978.0,0.0039
3977.0,0.0039
3976.0,0.004
3975.0,0.004
3974.0,0.0041
3973.0,0.0042
3972.0,0.0041
3971.0,0.0041
3970.0,0.0041
3969.0,0.004
3968.0,0.004
3967.0,0.004
3966.0,0.004
3965.0,0.004
3964.0,0.0039
3963.0,0.0039
3962.0,0.004
3961.0,0.004
3960.0,0.0041
3959.0,0.0041
3958.0,0.0041
3957.0,0.0041
3956.0,0.0041
3955.0,0.0041
3954.0,0.0041
3953.0,0.0041
3952.0,0.0042
3951.0,0.0042
3950.0,0.0043
3949.0,0.0042
3948.0,0.0042
3947.0,0.0041
3946.0,0.0041
3945.0,0.0041
3944.0,0.0041
3943.0,0.0041
3942.0,0.004
3941.0,0.004
3940.0,0.004
3939.0,0.004
3938.0,0.004
3937.0,0.004
3936.0,0.004
3935.0,0.0041
3934.0,0.0041
3933.0,0.0041
3932.0,0.0041
3931.0,0.004
3930.0,0.0039
3929.0,0.0038
3928.0,0.0038
3927.0,0.0038
3926.0,0.0039
3925.0,0.0039
3924.0,0.004
3923.0,0.004
3922.0,0.004
3921.0,0.0039
3920.0,0.0038
3919.0,0.0038
3918.0,0.0039
3917.0,0.004
3916.0,0.0041
3915.0,0.0042
3914.0,0.0041
3913.0,0.0041
3912.0,0.0041
3911.0,0.004
3910.0,0.004
3909.0,0.0039
3908.0,0.0039
3907.0,0.004
3906.0,0.0041
3905.0,0.0041
3904.0,0.0041
3903.0,0.0041
3902.0,0.0042
3901.0,0.0042
3900.0,0.0042
3899.0,0.0041
3898.0,0.004
3897.0,0.0039
3896.0,0.0038
3895.0,0.0038
3894.0,0.0038
3893.0,0.0039
3892.0,0.004
3891.0,0.0041
3890.0,0.0041
3889.0,0.0042
3888.0,0.0043
3887.0,0.0044
3886.0,0.0043
3885.0,0.0041
3884.0,0.004
3883.0,0.004
3882.0,0.004
3881.0,0.0041
3880.0,0.0041
3879.0,0.004
3878.0,0.004
3877.0,0.004
3876.0,0.004
3875.0,0.0039
3874.0,0.0038
3873.0,0.0039
3872.0,0.004
3871.0,0.0041
3870.0,0.0041
3869.0,0.004
3868.0,0.004
3867.0,0.004
3866.0,0.0041
3865.0,0.0042
3864.0,0.0043
3863.0,0.0043
3862.0,0.0044
3861.0,0.0044
3860.0,0.0044
3859.0,0.0043
3858.0,0.0041
3857.0,0.0039
3856.0,0.0039
3855.0,0.0039
3854.0,0.0039
3853.0,0.0041
3852.0,0.0042
3851.0,0.0042
3850.0,0.0042
3849.0,0.0041
3848.0,0.0039
3847.0,0.0038
3846.0,0.0038
3845.0,0.0038
3844.0,0.0039
3843.0,0.0039
3842.0,0.004
3841.0,0.004
3840.0,0.0039
3839.0,0.0038
3838.0,0.0037
3837.0,0.0037
3836.0,0.0037
3835.0,0.0037
3834.0,0.0038
3833.0,0.0038
3832.0,0.0039
3831.0,0.0039
3830.0,0.004
3829.0,0.0041
3828.0,0.0042
3827.0,0.0042
3826.0,0.0041
3825.0,0.0041
3824.0,0.0041
3823.0,0.0042
3822.0,0.0042
3821.0,0.004
3820.0,0.0039
3819.0,0.004
3818.0,0.0041
3817.0,0.0042
3816.0,0.0042
3815.0,0.0042
3814.0,0.0042
3813.0,0.0041
3812.0,0.0041
3811.0,0.004
3810.0,0.004
3809.0,0.0041
3808.0,0.0041
3807.0,0.0041
3806.0,0.0039
3805.0,0.0038
3804.0,0.0037
3803.0,0.0037
3802.0,0.0036
3801.0,0.0037
3800.0,0.0038
3799.0,0.004
3798.0,0.0041
3797.0,0.0042
3796.0,0.0041
3795.0,0.0041
3794.0,0.0041
3793.0,0.004
3792.0,0.004
3791.0,0.004
3790.0,0.004
3789.0,0.004
3788.0,0.004
3787.0,0.0041
3786.0,0.0041
3785.0,0.0041
3784.0,0.0041
3783.0,0.0042
3782.0,0.0042
3781.0,0.0042
3780.0,0.0042
3779.0,0.0041
3778.0,0.004
3777.0,0.0041
3776.0,0.0041
3775.0,0.0041
3774.0,0.004
3773.0,0.004
3772.0,0.0041
3771.0,0.0041
3770.0,0.0041
3769.0,0.0041
3768.0,0.0041
3767.0,0.0041
3766.0,0.0041
3765.0,0.0041
3764.0,0.0041
3763.0,0.0041
3762.0,0.0042
3761.0,0.0042
3760.0,0.0042
3759.0,0.0041
3758.0,0.0041
3757.0,0.0041
3756.0,0.004
3755.0,0.0039
3754.0,0.0039
3753.0,0.0039
3752.0,0.0039
3751.0,0.0039
3750.0,0.0039
3749.0,0.0039
3748.0,0.0039
3747.0,0.0041
3746.0,0.0041
3745.0,0.0039
3744.0,0.0036
3743.0,0.0035
3742.0,0.0035
3741.0,0.0034
3740.0,0.0034
3739.0,0.0034
3738.0,0.0033
3737.0,0.0032
3736.0,0.0032
3735.0,0.0032
3734.0,0.0032
3733.0,0.0032
3732.0,0.0031
3731.0,0.0031
3730.0,0.0031
3729.0,0.0031
3728.0,0.0032
3727.0,0.0031
3726.0,0.0031
3725.0,0.0031
3724.0,0.0031
3723.0,0.0032
3722.0,0.0032
3721.0,0.0033
3720.0,0.0034
3719.0,0.0036
3718.0,0.0038
3717.0,0.0039
3716.0,0.0039
3715.0,0.0039
3714.0,0.0039
3713.0,0.0038
3712.0,0.0036
3711.0,0.0034
3710.0,0.0033
3709.0,0.0033
3708.0,0.0033
3707.0,0.0034
3706.0,0.0034
3705.0,0.0034
3704.0,0.0034
3703.0,0.0034
3702.0,0.0034
3701.0,0.0035
3700.0,0.0036
3699.0,0.0038
3698.0,0.0039
3697.0,0.0039
3696.0,0.0039
3695.0,0.0037
3694.0,0.0036
3693.0,0.0035
3692.0,0.0035
3691.0,0.0036
3690.0,0.0038
3689.0,0.0039
3688.0,0.0039
3687.0,0.0038
3686.0,0.0037
3685.0,0.0037
3684.0,0.0038
3683.0,0.0039
3682.0,0.0039
3681.0,0.004
3680.0,0.0038
3679.0,0.0038
3678.0,0.0038
3677.0,0.0039
3676.0,0.004
3675.0,0.004
3674.0,0.004
3673.0,0.004
3672.0,0.0041
3671.0,0.0041
3670.0,0.0042
3669.0,0.0043
3668.0,0.0044
3667.0,0.0044
3666.0,0.0044
3665.0,0.0044
3664.0,0.0044
3663.0,0.0043
3662.0,0.0043
3661.0,0.0043
3660.0,0.0043
3659.0,0.0043
3658.0,0.0044
3657.0,0.0045
3656.0,0.0045
3655.0,0.0046
3654.0,0.0046
3653.0,0.0047
3652.0,0.0049
3651.0,0.005
3650.0,0.0049
3649.0,0.0046
3648.0,0.0044
3647.0,0.0044
3646.0,0.0044
3645.0,0.0044
3644.0,0.0044
3643.0,0.0044
3642.0,0.0043
3641.0,0.0043
3640.0,0.0043
3639.0,0.0044
3638.0,0.0044
3637.0,0.0045
3636.0,0.0045
3635.0,0.0045
3634.0,0.0044
3633.0,0.0043
3632.0,0.0043
3631.0,0.0043
3630.0,0.0043
3629.0,0.0042
3628.0,0.0041
3627.0,0.0042
3626.0,0.0043
3625.0,0.0044
3624.0,0.0044
3623.0,0.0045
3622.0,0.0045
3621.0,0.0046
3620.0,0.0047
3619.0,0.0048
3618.0,0.0049
3617.0,0.0051
3616.0,0.0053
3615.0,0.0054
3614.0,0.0054
3613.0,0.0052
3612.0,0.005
3611.0,0.0048
3610.0,0.0045
3609.0,0.0044
3608.0,0.0044
3607.0,0.0044
3606.0,0.0046
3605.0,0.0047
3604.0,0.0047
3603.0,0.0048
3602.0,0.0047
3601.0,0.0047
3600.0,0.0046
3599.0,0.0046
3598.0,0.0046
3597.0,0.0046
3596.0,0.0046
3595.0,0.0047
3594.0,0.0049
3593.0,0.0051
3592.0,0.0053
3591.0,0.0054
3590.0,0.0055
3589.0,0.0056
3588.0,0.0055
3587.0,0.0054
3586.0,0.0054
3585.0,0.0055
3584.0,0.0056
3583.0,0.0057
3582.0,0.0058
3581.0,0.0058
3580.0,0.0058
3579.0,0.0057
3578.0,0.0057
3577.0,0.0056
3576.0,0.0056
3575.0,0.0056
3574.0,0.0057
3573.0,0.0058
3572.0,0.0058
3571.0,0.0058
3570.0,0.0059
3569.0,0.0061
3568.0,0.0063
3567.0,0.0064
3566.0,0.0064
3565.0,0.0063
3564.0,0.0062
3563.0,0.0062
3562.0,0.0061
3561.0,0.0061
3560.0,0.0061
3559.0,0.0062
3558.0,0.0062
3557.0,0.0062
3556.0,0.0062
3555.0,0.0063
3554.0,0.0063
3553.0,0.0064
3552.0,0.0064
3551.0,0.0064
3550.0,0.0064
3549.0,0.0064
3548.0,0.0064
3547.0,0.0064
3546.0,0.0064
3545.0,0.0065
3544.0,0.0065
3543.0,0.0065
3542.0,0.0066
3541.0,0.0067
3540.0,0.0067
3539.0,0.0067
3538.0,0.0067
3537.0,0.0066
3536.0,0.0067
3535.0,0.0068
3534.0,0.0069
3533.0,0.007
3532.0,0.007
3531.0,0.007
3530.0,0.0069
3529.0,0.0069
3528.0,0.007
3527.0,0.0071
3526.0,0.0071
3525.0,0.0072
3524.0,0.0071
3523.0,0.0071
3522.0,0.007
3521.0,0.0069
3520.0,0.0069
3519.0,0.007
3518.0,0.0071
3517.0,0.0072
3516.0,0.0073
3515.0,0.0072
3514.0,0.0072
3513.0,0.0071
3512.0,0.0072
3511.0,0.0072
3510.0,0.0073
3509.0,0.0074
3508.0,0.0074
3507.0,0.0075
3506.0,0.0075
3505.0,0.0075
3504.0,0.0075
3503.0,0.0075
3502.0,0.0075
3501.0,0.0076
3500.0,0.0077
3499.0,0.0077
3498.0,0.0078
3497.0,0.0079
3496.0,0.0079
3495.0,0.0079
3494.0,0.0079
3493.0,0.0079
3492.0,0.0079
3491.0,0.0078
3490.0,0.0078
3489.0,0.0078
3488.0,0.0078
3487.0,0.0079
3486.0,0.0079
3485.0,0.0079
3484.0,0.0079
3483.0,0.0079
3482.0,0.0079
3481.0,0.008
3480.0,0.008
3479.0,0.0081
3478.0,0.0083
3477.0,0.0084
3476.0,0.0085
3475.0,0.0085
3474.0,0.0085
3473.0,0.0084
3472.0,0.0084
3471.0,0.0084
3470.0,0.0084
3469.0,0.0084
3468.0,0.0085
3467.0,0.0086
3466.0,0.0086
3465.0,0.0086
3464.0,0.0086
3463.0,0.0086
3462.0,0.0086
3461.0,0.0086
3460.0,0.0087
3459.0,0.0087
3458.0,0.0088
3457.0,0.0088
3456.0,0.0088
3455.0,0.0089
3454.0,0.0089
3453.0,0.0089
3452.0,0.0089
3451.0,0.0089
3450.0,0.0089
3449.0,0.009
3448.0,0.009
3447.0,0.0091
3446.0,0.0092
3445.0,0.0093
3444.0,0.0094
3443.0,0.0095
3442.0,0.0094
3441.0,0.0094
3440.0,0.0094
3439.0,0.0094
3438.0,0.0094
3437.0,0.0094
3436.0,0.0094
3435.0,0.0095
3434.0,0.0096
3433.0,0.0097
3432.0,0.0097
3431.0,0.0098
3430.0,0.0098
3429.0,0.0097
3428.0,0.0097
3427.0,0.0096
3426.0,0.0096
3425.0,0.0097
3424.0,0.0098
3423.0,0.0098
3422.0,0.0098
3421.0,0.0098
3420.0,0.0097
3419.0,0.0098
3418.0,0.0099
3417.0,0.01
3416.0,0.0102
3415.0,0.0104
3414.0,0.0105
3413.0,0.0105
3412.0,0.0105
3411.0,0.0106
3410.0,0.0106
3409.0,0.0107
3408.0,0.0107
3407.0,0.0106
3406.0,0.0106
3405.0,0.0106
3404.0,0.0106
3403.0,0.0108
3402.0,0.0109
3401.0,0.0111
3400.0,0.0112
3399.0,0.0113
3398.0,0.0113
3397.0,0.0112
3396.0,0.0111
3395.0,0.011
3394.0,0.0109
3393.0,0.011
3392.0,0.0111
3391.0,0.0112
3390.0,0.0113
3389.0,0.0112
3388.0,0.0111
3387.0,0.0109
3386.0,0.0109
3385.0,0.0109
3384.0,0.011
3383.0,0.0111
3382.0,0.0111
3381.0,0.0111
3380.0,0.0112
3379.0,0.0113
3378.0,0.0114
3377.0,0.0114
3376.0,0.0114
3375.0,0.0114
3374.0,0.0114
3373.0,0.0114
3372.0,0.0113
3371.0,0.0113
3370.0,0.0113
3369.0,0.0113
3368.0,0.0114
3367.0,0.0114
3366.0,0.0113
3365.0,0.0112
3364.0,0.0112
3363.0,0.0111
3362.0,0.0111
3361.0,0.0112
3360.0,0.0112
3359.0,0.0112
3358.0,0.0112
3357.0,0.0112
3356.0,0.0112
3355.0,0.0112
3354.0,0.0111
3353.0,0.0111
3352.0,0.011
3351.0,0.011
3350.0,0.0109
3349.0,0.011
3348.0,0.011
3347.0,0.011
3346.0,0.0111
3345.0,0.0111
3344.0,0.011
3343.0,0.0109
3342.0,0.0109
3341.0,0.011
3340.0,0.011
3339.0,0.011
3338.0,0.0109
3337.0,0.0108
3336.0,0.0107
3335.0,0.0108
3334.0,0.0109
3333.0,0.0109
3332.0,0.011
3331.0,0.011
3330.0,0.011
3329.0,0.011
3328.0,0.0109
3327.0,0.0108
3326.0,0.0108
3325.0,0.0108
3324.0,0.0108
3323.0,0.0108
3322.0,0.0107
3321.0,0.0107
3320.0,0.0108
3319.0,0.0108
3318.0,0.0108
3317.0,0.0106
3316.0,0.0105
3315.0,0.0104
3314.0,0.0104
3313.0,0.0105
3312.0,0.0105
3311.0,0.0106
3310.0,0.0105
3309.0,0.0105
3308.0,0.0105
3307.0,0.0104
3306.0,0.0104
3305.0,0.0104
3304.0,0.0103
3303.0,0.0102
3302.0,0.0102
3301.0,0.0102
3300.0,0.0102
3299.0,0.0102
3298.0,0.0103
3297.0,0.0104
3296.0,0.0105
3295.0,0.0105
3294.0,0.0105
3293.0,0.0104
3292.0,0.0103
3291.0,0.0103
3290.0,0.0102
3289.0,0.01
3288.0,0.0099
3287.0,0.0098
3286.0,0.0098
3285.0,0.0099
3284.0,0.0099
3283.0,0.0098
3282.0,0.0098
3281.0,0.0098
3280.0,0.0098
3279.0,0.0099
3278.0,0.0099
3277.0,0.01
3276.0,0.0101
3275.0,0.0101
3274.0,0.0101
3273.0,0.01
3272.0,0.0099
3271.0,0.0099
3270.0,0.0099
3269.0,0.0099
3268.0,0.0099
3267.0,0.0099
3266.0,0.0099
3265.0,0.0098
3264.0,0.0098
3263.0,0.0097
3262.0,0.0096
3261.0,0.0096
3260.0,0.0096
3259.0,0.0097
3258.0,0.0098
3257.0,0.0098
3256.0,0.0098
3255.0,0.0097
3254.0,0.0097
3253.0,0.0096
3252.0,0.0096
3251.0,0.0096
3250.0,0.0096
3249.0,0.0097
3248.0,0.0097
3247.0,0.0098
3246.0,0.0098
3245.0,0.0099
3244.0,0.0099
3243.0,0.0098
3242.0,0.0099
3241.0,0.0099
3240.0,0.01
3239.0,0.0101
3238.0,0.0101
3237.0,0.0101
3236.0,0.0101
3235.0,0.0099
3234.0,0.0098
3233.0,0.0097
3232.0,0.0098
3231.0,0.0098
3230.0,0.0098
3229.0,0.0097
3228.0,0.0096
3227.0,0.0096
3226.0,0.0096
3225.0,0.0095
3224.0,0.0095
3223.0,0.0095
3222.0,0.0095
3221.0,0.0095
3220.0,0.0095
3219.0,0.0095
3218.0,0.0095
3217.0,0.0095
3216.0,0.0094
3215.0,0.0093
3214.0,0.0092
3213.0,0.0091
3212.0,0.009
3211.0,0.0091
3210.0,0.0091
3209.0,0.0092
3208.0,0.0091
3207.0,0.009
3206.0,0.0089
3205.0,0.0088
3204.0,0.0088
3203.0,0.0088
3202.0,0.0089
3201.0,0.0089
3200.0,0.0089
3199.0,0.0088
3198.0,0.0088
3197.0,0.0087
3196.0,0.0087
3195.0,0.0087
3194.0,0.0087
3193.0,0.0088
3192.0,0.0088
3191.0,0.0088
3190.0,0.0088
3189.0,0.0088
3188.0,0.0087
3187.0,0.0086
3186.0,0.0085
3185.0,0.0085
3184.0,0.0086
3183.0,0.0086
3182.0,0.0087
3181.0,0.0087
3180.0,0.0087
3179.0,0.0086
3178.0,0.0085
3177.0,0.0084
3176.0,0.0082
3175.0,0.0081
3174.0,0.008
3173.0,0.008
3172.0,0.0081
3171.0,0.0081
3170.0,0.0081
3169.0,0.0082
3168.0,0.0082
3167.0,0.0081
3166.0,0.0081
3165.0,0.008
3164.0,0.008
3163.0,0.0079
3162.0,0.0078
3161.0,0.0077
3160.0,0.0077
3159.0,0.0077
3158.0,0.0077
3157.0,0.0077
3156.0,0.0077
3155.0,0.0077
3154.0,0.0077
3153.0,0.0077
3152.0,0.0076
3151.0,0.0076
3150.0,0.0076
3149.0,0.0077
3148.0,0.0078
3147.0,0.0078
3146.0,0.0077
3145.0,0.0076
3144.0,0.0076
3143.0,0.0075
3142.0,0.0075
3141.0,0.0075
3140.0,0.0075
3139.0,0.0076
3138.0,0.0076
3137.0,0.0076
3136.0,0.0075
3135.0,0.0075
3134.0,0.0075
3133.0,0.0075
3132.0,0.0075
3131.0,0.0075
3130.0,0.0074
3129.0,0.0073
3128.0,0.0073
3127.0,0.0073
3126.0,0.0073
3125.0,0.0073
3124.0,0.0073
3123.0,0.0072
3122.0,0.0072
3121.0,0.0071
3120.0,0.0071
3119.0,0.007
3118.0,0.007
3117.0,0.0069
3116.0,0.0069
3115.0,0.0068
3114.0,0.0068
3113.0,0.0068
3112.0,0.0069
3111.0,0.007
3110.0,0.0071
3109.0,0.0071
3108.0,0.0071
3107.0,0.007
3106.0,0.007
3105.0,0.0069
3104.0,0.0069
3103.0,0.0068
3102.0,0.0068
3101.0,0.0068
3100.0,0.0067
3099.0,0.0067
3098.0,0.0067
3097.0,0.0067
3096.0,0.0067
3095.0,0.0067
3094.0,0.0067
3093.0,0.0067
3092.0,0.0067
3091.0,0.0067
3090.0,0.0066
3089.0,0.0065
3088.0,0.0065
3087.0,0.0065
3086.0,0.0065
3085.0,0.0066
3084.0,0.0066
3083.0,0.0066
3082.0,0.0066
3081.0,0.0065
3080.0,0.0065
3079.0,0.0065
3078.0,0.0065
3077.0,0.0065
3076.0,0.0064
3075.0,0.0064
3074.0,0.0064
3073.0,0.0063
3072.0,0.0063
3071.0,0.0063
3070.0,0.0064
3069.0,0.0064
3068.0,0.0064
3067.0,0.0064
3066.0,0.0064
3065.0,0.0064
3064.0,0.0064
3063.0,0.0063
3062.0,0.0063
3061.0,0.0062
3060.0,0.0062
3059.0,0.0062
3058.0,0.0063
3057.0,0.0063
3056.0,0.0063
3055.0,0.0063
3054.0,0.0062
3053.0,0.0062
3052.0,0.0062
3051.0,0.0062
3050.0,0.0062
3049.0,0.0061
3048.0,0.0061
3047.0,0.006
3046.0,0.006
3045.0,0.006
3044.0,0.006
3043.0,0.006
3042.0,0.006
3041.0,0.0059
3040.0,0.0059
3039.0,0.0059
3038.0,0.0059
3037.0,0.0059
3036.0,0.0059
3035.0,0.0058
3034.0,0.0058
3033.0,0.0058
3032.0,0.0058
3031.0,0.0058
3030.0,0.0059
3029.0,0.0059
3028.0,0.0059
3027.0,0.0058
3026.0,0.0057
3025.0,0.0057
3024.0,0.0057
3023.0,0.0058
3022.0,0.0058
3021.0,0.0058
3020.0,0.0058
3019.0,0.0058
3018.0,0.0058
3017.0,0.0058
3016.0,0.0058
3015.0,0.0058
3014.0,0.0057
3013.0,0.0057
3012.0,0.0057
3011.0,0.0057
3010.0,0.0058
3009.0,0.0059
3008.0,0.006
3007.0,0.006
3006.0,0.0061
3005.0,0.0061
3004.0,0.006
3003.0,0.006
3002.0,0.0061
3001.0,0.0061
3000.0,0.0062
2999.0,0.0063
2998.0,0.0064
2997.0,0.0064
2996.0,0.0063
2995.0,0.0063
2994.0,0.0063
2993.0,0.0063
2992.0,0.0063
2991.0,0.0063
2990.0,0.0063
2989.0,0.0062
2988.0,0.0061
2987.0,0.0061
2986.0,0.006
2985.0,0.006
2984.0,0.0061
2983.0,0.0061
2982.0,0.006
2981.0,0.0059
2980.0,0.0058
2979.0,0.0058
2978.0,0.0057
2977.0,0.0057
2976.0,0.0057
2975.0,0.0058
2974.0,0.0058
2973.0,0.0057
2972.0,0.0057
2971.0,0.0057
2970.0,0.0057
2969.0,0.0057
2968.0,0.0057
2967.0,0.0057
2966.0,0.0057
2965.0,0.0057
2964.0,0.0058
2963.0,0.0059
2962.0,0.006
2961.0,0.006
2960.0,0.0059
2959.0,0.0059
2958.0,0.0059
2957.0,0.0059
2956.0,0.0059
2955.0,0.0059
2954.0,0.0059
2953.0,0.0059
2952.0,0.0058
2951.0,0.0058
2950.0,0.0057
2949.0,0.0058
2948.0,0.0058
2947.0,0.0059
2946.0,0.0059
2945.0,0.0059
2944.0,0.0059
2943.0,0.0059
2942.0,0.0059
2941.0,0.0058
2940.0,0.0058
2939.0,0.0058
2938.0,0.0058
2937.0,0.0058
2936.0,0.0058
2935.0,0.0059
2934.0,0.0059
2933.0,0.0059
2932.0,0.0059
2931.0,0.0059
2930.0,0.0058
2929.0,0.0057
2928.0,0.0057
2927.0,0.0057
2926.0,0.0058
2925.0,0.0058
2924.0,0.0058
2923.0,0.0057
2922.0,0.0056
2921.0,0.0056
2920.0,0.0056
2919.0,0.0056
2918.0,0.0057
2917.0,0.0057
2916.0,0.0057
2915.0,0.0056
2914.0,0.0056
2913.0,0.0056
2912.0,0.0055
2911.0,0.0055
2910.0,0.0054
2909.0,0.0054
2908.0,0.0054
2907.0,0.0053
2906.0,0.0053
2905.0,0.0053
2904.0,0.0053
2903.0,0.0053
2902.0,0.0054
2901.0,0.0054
2900.0,0.0055
2899.0,0.0055
2898.0,0.0055
2897.0,0.0054
2896.0,0.0054
2895.0,0.0055
2894.0,0.0055
2893.0,0.0055
2892.0,0.0055
2891.0,0.0055
2890.0,0.0054
2889.0,0.0054
2888.0,0.0054
2887.0,0.0054
2886.0,0.0054
2885.0,0.0053
2884.0,0.0053
2883.0,0.0053
2882.0,0.0053
2881.0,0.0053
2880.0,0.0053
2879.0,0.0053
2878.0,0.0053
2877.0,0.0053
2876.0,0.0053
2875.0,0.0054
2874.0,0.0054
2873.0,0.0054
2872.0,0.0054
2871.0,0.0054
2870.0,0.0054
2869.0,0.0054
2868.0,0.0054
2867.0,0.0054
2866.0,0.0054
2865.0,0.0053
2864.0,0.0053
2863.0,0.0053
2862.0,0.0054
2861.0,0.0054
2860.0,0.0053
2859.0,0.0053
2858.0,0.0053
2857.0,0.0053
2856.0,0.0053
2855.0,0.0053
2854.0,0.0053
2853.0,0.0053
2852.0,0.0053
2851.0,0.0052
2850.0,0.0051
2849.0,0.0051
2848.0,0.005
2847.0,0.0051
2846.0,0.0051
2845.0,0.0052
2844.0,0.0053
2843.0,0.0053
2842.0,0.0053
2841.0,0.0052
2840.0,0.0052
2839.0,0.0052
2838.0,0.0052
2837.0,0.0052
2836.0,0.0052
2835.0,0.0051
2834.0,0.0051
2833.0,0.0051
2832.0,0.0051
2831.0,0.0051
2830.0,0.0051
2829.0,0.0051
2828.0,0.0051
2827.0,0.0051
2826.0,0.0052
2825.0,0.0052
2824.0,0.0052
2823.0,0.0052
2822.0,0.0051
2821.0,0.0051
2820.0,0.005
2819.0,0.005
2818.0,0.005
2817.0,0.005
2816.0,0.005
2815.0,0.005
2814.0,0.005
2813.0,0.005
2812.0,0.005
2811.0,0.005
2810.0,0.005
2809.0,0.0049
2808.0,0.005
2807.0,0.005
2806.0,0.0051
2805.0,0.005
2804.0,0.0049
2803.0,0.0049
2802.0,0.0049
2801.0,0.0049
2800.0,0.0049
2799.0,0.0049
2798.0,0.0049
2797.0,0.0048
2796.0,0.0049
2795.0,0.0049
2794.0,0.0049
2793.0,0.005
2792.0,0.005
2791.0,0.005
2790.0,0.005
2789.0,0.0049
2788.0,0.0049
2787.0,0.0049
2786.0,0.0049
2785.0,0.0049
2784.0,0.005
2783.0,0.005
2782.0,0.005
2781.0,0.005
2780.0,0.005
2779.0,0.0049
2778.0,0.0049
2777.0,0.0049
2776.0,0.0049
2775.0,0.0049
2774.0,0.0049
2773.0,0.0049
2772.0,0.0049
2771.0,0.0049
2770.0,0.0049
2769.0,0.0049
2768.0,0.0049
2767.0,0.0049
2766.0,0.0049
2765.0,0.0049
2764.0,0.005
2763.0,0.005
2762.0,0.005
2761.0,0.005
2760.0,0.0049
2759.0,0.0049
2758.0,0.0049
2757.0,0.0049
2756.0,0.0049
2755.0,0.0049
2754.0,0.0049
2753.0,0.0049
2752.0,0.0049
2751.0,0.0049
2750.0,0.0048
2749.0,0.0048
2748.0,0.0049
2747.0,0.0049
2746.0,0.0049
2745.0,0.005
2744.0,0.005
2743.0,0.005
2742.0,0.005
2741.0,0.0049
2740.0,0.0049
2739.0,0.0049
2738.0,0.0048
2737.0,0.0048
2736.0,0.0048
2735.0,0.0048
2734.0,0.0047
2733.0,0.0047
2732.0,0.0048
2731.0,0.0048
2730.0,0.0048
2729.0,0.0048
2728.0,0.0049
2727.0,0.005
2726.0,0.0051
2725.0,0.005
2724.0,0.005
2723.0,0.0049
2722.0,0.0049
2721.0,0.0049
2720.0,0.005
2719.0,0.005
2718.0,0.005
2717.0,0.005
2716.0,0.005
2715.0,0.005
2714.0,0.005
2713.0,0.0051
2712.0,0.0051
2711.0,0.0051
2710.0,0.0051
2709.0,0.005
2708.0,0.0049
2707.0,0.0048
2706.0,0.0048
2705.0,0.0047
2704.0,0.0046
2703.0,0.0046
2702.0,0.0046
2701.0,0.0047
2700.0,0.0047
2699.0,0.0048
2698.0,0.0048
2697.0,0.0048
2696.0,0.0047
2695.0,0.0047
2694.0,0.0047
2693.0,0.0048
2692.0,0.0048
2691.0,0.0048
2690.0,0.0048
2689.0,0.0048
2688.0,0.0048
2687.0,0.0048
2686.0,0.0048
2685.0,0.0048
2684.0,0.0048
2683.0,0.0047
2682.0,0.0047
2681.0,0.0047
2680.0,0.0047
2679.0,0.0048
2678.0,0.0048
2677.0,0.0049
2676.0,0.005
2675.0,0.005
2674.0,0.0049
2673.0,0.0048
2672.0,0.0047
2671.0,0.0047
2670.0,0.0047
2669.0,0.0047
2668.0,0.0048
2667.0,0.0048
2666.0,0.0048
2665.0,0.0048
2664.0,0.0048
2663.0,0.0047
2662.0,0.0048
2661.0,0.0048
2660.0,0.0048
2659.0,0.0048
2658.0,0.0047
2657.0,0.0047
2656.0,0.0047
2655.0,0.0047
2654.0,0.0047
2653.0,0.0047
2652.0,0.0047
2651.0,0.0047
2650.0,0.0047
2649.0,0.0047
2648.0,0.0047
2647.0,0.0047
2646.0,0.0048
2645.0,0.0047
2644.0,0.0047
2643.0,0.0047
2642.0,0.0047
2641.0,0.0047
2640.0,0.0048
2639.0,0.0048
2638.0,0.0048
2637.0,0.0047
2636.0,0.0047
2635.0,0.0046
2634.0,0.0045
2633.0,0.0045
2632.0,0.0045
2631.0,0.0046
2630.0,0.0046
2629.0,0.0047
2628.0,0.0048
2627.0,0.0048
2626.0,0.0048
2625.0,0.0048
2624.0,0.0048
2623.0,0.0048
2622.0,0.0048
2621.0,0.0048
2620.0,0.0048
2619.0,0.0048
2618.0,0.0048
2617.0,0.0048
2616.0,0.0047
2615.0,0.0047
2614.0,0.0046
2613.0,0.0046
2612.0,0.0046
2611.0,0.0047
2610.0,0.0047
2609.0,0.0047
2608.0,0.0047
2607.0,0.0047
2606.0,0.0047
2605.0,0.0047
2604.0,0.0047
2603.0,0.0047
2602.0,0.0047
2601.0,0.0047
2600.0,0.0047
2599.0,0.0047
2598.0,0.0047
2597.0,0.0047
2596.0,0.0047
2595.0,0.0047
2594.0,0.0047
2593.0,0.0047
2592.0,0.0047
2591.0,0.0048
2590.0,0.0048
2589.0,0.0048
2588.0,0.0047
2587.0,0.0047
2586.0,0.0047
2585.0,0.0048
2584.0,0.0048
2583.0,0.0048
2582.0,0.0047
2581.0,0.0047
2580.0,0.0048
2579.0,0.0048
2578.0,0.0049
2577.0,0.0048
2576.0,0.0047
2575.0,0.0047
2574.0,0.0046
2573.0,0.0046
2572.0,0.0045
2571.0,0.0045
2570.0,0.0045
2569.0,0.0046
2568.0,0.0046
2567.0,0.0047
2566.0,0.0047
2565.0,0.0046
2564.0,0.0045
2563.0,0.0045
2562.0,0.0045
2561.0,0.0045
2560.0,0.0046
2559.0,0.0047
2558.0,0.0048
2557.0,0.0048
2556.0,0.0047
2555.0,0.0047
2554.0,0.0046
2553.0,0.0046
2552.0,0.0047
2551.0,0.0047
2550.0,0.0047
2549.0,0.0046
2548.0,0.0046
2547.0,0.0046
2546.0,0.0047
2545.0,0.0048
2544.0,0.0048
2543.0,0.0049
2542.0,0.0048
2541.0,0.0048
2540.0,0.0047
2539.0,0.0047
2538.0,0.0047
2537.0,0.0047
2536.0,0.0048
2535.0,0.0048
2534.0,0.0048
2533.0,0.0047
2532.0,0.0047
2531.0,0.0047
2530.0,0.0048
2529.0,0.0048
2528.0,0.0047
2527.0,0.0047
2526.0,0.0047
2525.0,0.0046
2524.0,0.0046
2523.0,0.0046
2522.0,0.0046
2521.0,0.0047
2520.0,0.0048
2519.0,0.0048
2518.0,0.0049
2517.0,0.0049
2516.0,0.0049
2515.0,0.0049
2514.0,0.0048
2513.0,0.0048
2512.0,0.0047
2511.0,0.0047
2510.0,0.0047
2509.0,0.0047
2508.0,0.0046
2507.0,0.0046
2506.0,0.0046
2505.0,0.0046
2504.0,0.0047
2503.0,0.0047
2502.0,0.0048
2501.0,0.0048
2500.0,0.0048
2499.0,0.0048
2498.0,0.0047
2497.0,0.0047
2496.0,0.0047
2495.0,0.0047
2494.0,0.0047
2493.0,0.0047
2492.0,0.0047
2491.0,0.0047
2490.0,0.0047
2489.0,0.0047
2488.0,0.0047
2487.0,0.0047
2486.0,0.0046
2485.0,0.0046
2484.0,0.0046
2483.0,0.0047
2482.0,0.0048
2481.0,0.0048
2480.0,0.0048
2479.0,0.0048
2478.0,0.0048
2477.0,0.0048
2476.0,0.0047
2475.0,0.0047
2474.0,0.0046
2473.0,0.0047
2472.0,0.0047
2471.0,0.0047
2470.0,0.0047
2469.0,0.0047
2468.0,0.0047
2467.0,0.0047
2466.0,0.0047
2465.0,0.0047
2464.0,0.0047
2463.0,0.0048
2462.0,0.0048
2461.0,0.0048
2460.0,0.0047
2459.0,0.0047
2458.0,0.0047
2457.0,0.0047
2456.0,0.0047
2455.0,0.0047
2454.0,0.0047
2453.0,0.0046
2452.0,0.0046
2451.0,0.0046
2450.0,0.0046
2449.0,0.0047
2448.0,0.0047
2447.0,0.0047
2446.0,0.0047
2445.0,0.0047
2444.0,0.0047
2443.0,0.0047
2442.0,0.0047
2441.0,0.0048
2440.0,0.0048
2439.0,0.0048
2438.0,0.0048
2437.0,0.0047
2436.0,0.0047
2435.0,0.0048
2434.0,0.0048
2433.0,0.0049
2432.0,0.0048
2431.0,0.0048
2430.0,0.0047
2429.0,0.0047
2428.0,0.0047
2427.0,0.0047
2426.0,0.0047
2425.0,0.0047
2424.0,0.0047
2423.0,0.0047
2422.0,0.0048
2421.0,0.0048
2420.0,0.0047
2419.0,0.0047
2418.0,0.0046
2417.0,0.0046
2416.0,0.0046
2415.0,0.0046
2414.0,0.0046
2413.0,0.0047
2412.0,0.0046
2411.0,0.0046
2410.0,0.0046
2409.0,0.0046
2408.0,0.0047
2407.0,0.0047
2406.0,0.0047
2405.0,0.0047
2404.0,0.0046
2403.0,0.0046
2402.0,0.0047
2401.0,0.0047
2400.0,0.0047
2399.0,0.0047
2398.0,0.0047
2397.0,0.0047
2396.0,0.0047
2395.0,0.0047
2394.0,0.0047
2393.0,0.0047
2392.0,0.0046
2391.0,0.0046
2390.0,0.0045
2389.0,0.0044
2388.0,0.0043
2387.0,0.0041
2386.0,0.0038
2385.0,0.0035
2384.0,0.0032
2383.0,0.0031
2382.0,0.0031
2381.0,0.0033
2380.0,0.0035
2379.0,0.0037
2378.0,0.0038
2377.0,0.0037
2376.0,0.0036
2375.0,0.0034
2374.0,0.0033
2373.0,0.0032
2372.0,0.0031
2371.0,0.003
2370.0,0.0031
2369.0,0.0032
2368.0,0.0032
2367.0,0.003
2366.0,0.0026
2365.0,0.0024
2364.0,0.0027
2363.0,0.0034
2362.0,0.0038
2361.0,0.0038
2360.0,0.0034
2359.0,0.0029
2358.0,0.0028
2357.0,0.0029
2356.0,0.003
2355.0,0.0028
2354.0,0.0025
2353.0,0.0026
2352.0,0.0029
2351.0,0.0031
2350.0,0.0032
2349.0,0.0033
2348.0,0.0035
2347.0,0.0037
2346.0,0.0039
2345.0,0.0037
2344.0,0.0031
2343.0,0.0022
2342.0,0.0018
2341.0,0.0022
2340.0,0.0028
2339.0,0.0031
2338.0,0.0031
2337.0,0.003
2336.0,0.0027
2335.0,0.0024
2334.0,0.0021
2333.0,0.0022
2332.0,0.0025
2331.0,0.0026
2330.0,0.0023
2329.0,0.0019
2328.0,0.0015
2327.0,0.0016
2326.0,0.0021
2325.0,0.0028
2324.0,0.0034
2323.0,0.0037
2322.0,0.0035
2321.0,0.003
2320.0,0.0025
2319.0,0.0022
2318.0,0.0022
2317.0,0.0023
2316.0,0.0023
2315.0,0.0023
2314.0,0.0022
2313.0,0.0018
2312.0,0.0014
2311.0,0.001
2310.0,0.0008
2309.0,0.0009
2308.0,0.0011
2307.0,0.0014
2306.0,0.0017
2305.0,0.0019
2304.0,0.0019
2303.0,0.0018
2302.0,0.0018
2301.0,0.0019
2300.0,0.002
2299.0,0.0021
2298.0,0.0022
2297.0,0.0023
2296.0,0.0024
2295.0,0.0026
2294.0,0.0028
2293.0,0.003
2292.0,0.0032
2291.0,0.0034
2290.0,0.0035
2289.0,0.0036
2288.0,0.0038
2287.0,0.0039
2286.0,0.0041
2285.0,0.0042
2284.0,0.0044
2283.0,0.0044
2282.0,0.0043
2281.0,0.0043
2280.0,0.0043
2279.0,0.0043
2278.0,0.0043
2277.0,0.0043
2276.0,0.0044
2275.0,0.0044
2274.0,0.0044
2273.0,0.0044
2272.0,0.0044
2271.0,0.0044
2270.0,0.0044
2269.0,0.0043
2268.0,0.0043
2267.0,0.0043
2266.0,0.0043
2265.0,0.0043
2264.0,0.0043
2263.0,0.0043
2262.0,0.0043
2261.0,0.0043
2260.0,0.0043
2259.0,0.0043
2258.0,0.0044
2257.0,0.0044
2256.0,0.0044
2255.0,0.0044
2254.0,0.0043
2253.0,0.0043
2252.0,0.0043
2251.0,0.0044
2250.0,0.0044
2249.0,0.0045
2248.0,0.0046
2247.0,0.0046
2246.0,0.0046
2245.0,0.0046
2244.0,0.0046
2243.0,0.0046
2242.0,0.0046
2241.0,0.0047
2240.0,0.0047
2239.0,0.0047
2238.0,0.0048
2237.0,0.0048
2236.0,0.0049
2235.0,0.0049
2234.0,0.0049
2233.0,0.0048
2232.0,0.0048
2231.0,0.0048
2230.0,0.0048
2229.0,0.0048
2228.0,0.0048
2227.0,0.0047
2226.0,0.0047
2225.0,0.0048
2224.0,0.0048
2223.0,0.0047
2222.0,0.0047
2221.0,0.0047
2220.0,0.0047
2219.0,0.0046
2218.0,0.0046
2217.0,0.0047
2216.0,0.0047
2215.0,0.0047
2214.0,0.0047
2213.0,0.0047
2212.0,0.0047
2211.0,0.0046
2210.0,0.0046
2209.0,0.0046
2208.0,0.0047
2207.0,0.0047
2206.0,0.0047
2205.0,0.0047
2204.0,0.0047
2203.0,0.0046
2202.0,0.0046
2201.0,0.0047
2200.0,0.0047
2199.0,0.0047
2198.0,0.0047
2197.0,0.0047
2196.0,0.0047
2195.0,0.0047
2194.0,0.0047
2193.0,0.0047
2192.0,0.0047
2191.0,0.0047
2190.0,0.0047
2189.0,0.0047
2188.0,0.0047
2187.0,0.0046
2186.0,0.0045
2185.0,0.0045
2184.0,0.0045
2183.0,0.0045
2182.0,0.0046
2181.0,0.0046
2180.0,0.0046
2179.0,0.0046
2178.0,0.0047
2177.0,0.0047
2176.0,0.0047
2175.0,0.0046
2174.0,0.0046
2173.0,0.0045
2172.0,0.0046
2171.0,0.0046
2170.0,0.0046
2169.0,0.0047
2168.0,0.0047
2167.0,0.0047
2166.0,0.0047
2165.0,0.0047
2164.0,0.0046
2163.0,0.0046
2162.0,0.0047
2161.0,0.0047
2160.0,0.0047
2159.0,0.0047
2158.0,0.0047
2157.0,0.0047
2156.0,0.0047
2155.0,0.0047
2154.0,0.0046
2153.0,0.0046
2152.0,0.0046
2151.0,0.0045
2150.0,0.0045
2149.0,0.0045
2148.0,0.0045
2147.0,0.0046
2146.0,0.0046
2145.0,0.0047
2144.0,0.0046
2143.0,0.0046
2142.0,0.0046
2141.0,0.0046
2140.0,0.0046
2139.0,0.0046
2138.0,0.0046
2137.0,0.0045
2136.0,0.0045
2135.0,0.0045
2134.0,0.0045
2133.0,0.0045
2132.0,0.0045
2131.0,0.0045
2130.0,0.0045
2129.0,0.0045
2128.0,0.0045
2127.0,0.0046
2126.0,0.0046
2125.0,0.0047
2124.0,0.0047
2123.0,0.0046
2122.0,0.0046
2121.0,0.0046
2120.0,0.0045
2119.0,0.0045
2118.0,0.0044
2117.0,0.0044
2116.0,0.0044
2115.0,0.0045
2114.0,0.0045
2113.0,0.0045
2112.0,0.0045
2111.0,0.0045
2110.0,0.0045
2109.0,0.0045
2108.0,0.0045
2107.0,0.0045
2106.0,0.0045
2105.0,0.0045
2104.0,0.0045
2103.0,0.0045
2102.0,0.0045
2101.0,0.0045
2100.0,0.0045
2099.0,0.0045
2098.0,0.0045
2097.0,0.0045
2096.0,0.0045
2095.0,0.0045
2094.0,0.0045
2093.0,0.0045
2092.0,0.0046
2091.0,0.0046
2090.0,0.0046
2089.0,0.0046
2088.0,0.0045
2087.0,0.0045
2086.0,0.0044
2085.0,0.0044
2084.0,0.0044
2083.0,0.0045
2082.0,0.0045
2081.0,0.0045
2080.0,0.0045
2079.0,0.0045
2078.0,0.0045
2077.0,0.0045
2076.0,0.0045
2075.0,0.0044
2074.0,0.0044
2073.0,0.0044
2072.0,0.0044
2071.0,0.0044
2070.0,0.0043
2069.0,0.0044
2068.0,0.0044
2067.0,0.0044
2066.0,0.0044
2065.0,0.0044
2064.0,0.0044
2063.0,0.0044
2062.0,0.0044
2061.0,0.0044
2060.0,0.0043
2059.0,0.0043
2058.0,0.0043
2057.0,0.0043
2056.0,0.0043
2055.0,0.0043
2054.0,0.0043
2053.0,0.0043
2052.0,0.0043
2051.0,0.0043
2050.0,0.0043
2049.0,0.0043
2048.0,0.0043
2047.0,0.0043
2046.0,0.0043
2045.0,0.0042
2044.0,0.0042
2043.0,0.0042
2042.0,0.0042
2041.0,0.0042
2040.0,0.0042
2039.0,0.0043
2038.0,0.0043
2037.0,0.0044
2036.0,0.0043
2035.0,0.0043
2034.0,0.0043
2033.0,0.0042
2032.0,0.0042
2031.0,0.0042
2030.0,0.0041
2029.0,0.0041
2028.0,0.0041
2027.0,0.0041
2026.0,0.0041
2025.0,0.004
2024.0,0.004
2023.0,0.004
2022.0,0.004
2021.0,0.004
2020.0,0.004
2019.0,0.004
2018.0,0.0041
2017.0,0.0041
2016.0,0.004
2015.0,0.004
2014.0,0.004
2013.0,0.004
2012.0,0.0041
2011.0,0.0041
2010.0,0.004
2009.0,0.004
2008.0,0.0039
2007.0,0.0039
2006.0,0.004
2005.0,0.004
2004.0,0.004
2003.0,0.004
2002.0,0.004
2001.0,0.004
2000.0,0.0039
1999.0,0.0039
1998.0,0.0039
1997.0,0.0039
1996.0,0.0039
1995.0,0.0039
1994.0,0.004
1993.0,0.004
1992.0,0.004
1991.0,0.004
1990.0,0.0039
1989.0,0.0039
1988.0,0.0039
1987.0,0.004
1986.0,0.004
1985.0,0.004
1984.0,0.0039
1983.0,0.0039
1982.0,0.0039
1981.0,0.0039
1980.0,0.0039
1979.0,0.0039
1978.0,0.0039
1977.0,0.0039
1976.0,0.0038
1975.0,0.0038
1974.0,0.0038
1973.0,0.0038
1972.0,0.0038
1971.0,0.0038
1970.0,0.0037
1969.0,0.0037
1968.0,0.0037
1967.0,0.0037
1966.0,0.0037
1965.0,0.0037
1964.0,0.0038
1963.0,0.0038
1962.0,0.0038
1961.0,0.0038
1960.0,0.0038
1959.0,0.0037
1958.0,0.0037
1957.0,0.0037
1956.0,0.0037
1955.0,0.0037
1954.0,0.0037
1953.0,0.0037
1952.0,0.0037
1951.0,0.0037
1950.0,0.0036
1949.0,0.0036
1948.0,0.0037
1947.0,0.0037
1946.0,0.0037
1945.0,0.0037
1944.0,0.0036
1943.0,0.0036
1942.0,0.0036
1941.0,0.0036
1940.0,0.0036
1939.0,0.0036
1938.0,0.0036
1937.0,0.0036
1936.0,0.0035
1935.0,0.0035
1934.0,0.0035
1933.0,0.0035
1932.0,0.0035
1931.0,0.0035
1930.0,0.0036
1929.0,0.0036
1928.0,0.0037
1927.0,0.0036
1926.0,0.0036
1925.0,0.0035
1924.0,0.0034
1923.0,0.0035
1922.0,0.0035
1921.0,0.0035
1920.0,0.0035
1919.0,0.0034
1918.0,0.0034
1917.0,0.0034
1916.0,0.0034
1915.0,0.0034
1914.0,0.0034
1913.0,0.0034
1912.0,0.0034
1911.0,0.0033
1910.0,0.0033
1909.0,0.0032
1908.0,0.0033
1907.0,0.0033
1906.0,0.0034
1905.0,0.0034
1904.0,0.0034
1903.0,0.0034
1902.0,0.0034
1901.0,0.0034
1900.0,0.0034
1899.0,0.0034
1898.0,0.0033
1897.0,0.0033
1896.0,0.0033
1895.0,0.0033
1894.0,0.0033
1893.0,0.0033
1892.0,0.0034
1891.0,0.0034
1890.0,0.0033
1889.0,0.0033
1888.0,0.0032
1887.0,0.0032
1886.0,0.0031
1885.0,0.0031
1884.0,0.0031
1883.0,0.0031
1882.0,0.0032
1881.0,0.0032
1880.0,0.0032
1879.0,0.0033
1878.0,0.0033
1877.0,0.0033
1876.0,0.0032
1875.0,0.0032
1874.0,0.0031
1873.0,0.0031
1872.0,0.0031
1871.0,0.003
1870.0,0.003
1869.0,0.003
1868.0,0.003
1867.0,0.003
1866.0,0.0031
1865.0,0.0031
1864.0,0.0032
1863.0,0.0032
1862.0,0.0032
1861.0,0.0031
1860.0,0.003
1859.0,0.003
1858.0,0.0029
1857.0,0.0029
1856.0,0.0029
1855.0,0.0029
1854.0,0.0029
1853.0,0.0029
1852.0,0.003
1851.0,0.003
1850.0,0.003
1849.0,0.003
1848.0,0.0029
1847.0,0.0029
1846.0,0.0028
1845.0,0.0028
1844.0,0.0028
1843.0,0.0028
1842.0,0.0027
1841.0,0.0027
1840.0,0.0027
1839.0,0.0028
1838.0,0.0028
1837.0,0.0028
1836.0,0.0028
1835.0,0.0028
1834.0,0.0028
1833.0,0.0028
1832.0,0.0028
1831.0,0.0027
1830.0,0.0027
1829.0,0.0027
1828.0,0.0027
1827.0,0.0027
1826.0,0.0028
1825.0,0.0028
1824.0,0.0028
1823.0,0.0028
1822.0,0.0028
1821.0,0.0028
1820.0,0.0028
1819.0,0.0028
1818.0,0.0028
1817.0,0.0028
1816.0,0.0029
1815.0,0.0029
1814.0,0.0029
1813.0,0.0028
1812.0,0.0028
1811.0,0.0027
1810.0,0.0027
1809.0,0.0027
1808.0,0.0027
1807.0,0.0028
1806.0,0.0028
1805.0,0.0027
1804.0,0.0027
1803.0,0.0027
1802.0,0.0027
1801.0,0.0028
1800.0,0.0028
1799.0,0.0029
1798.0,0.0029
1797.0,0.0029
1796.0,0.0028
1795.0,0.0028
1794.0,0.0029
1793.0,0.0029
1792.0,0.0031
1791.0,0.0033
1790.0,0.0035
1789.0,0.0036
1788.0,0.0038
1787.0,0.004
1786.0,0.0042
1785.0,0.0045
1784.0,0.0048
1783.0,0.0051
1782.0,0.0054
1781.0,0.0057
1780.0,0.0061
1779.0,0.0065
1778.0,0.0068
1777.0,0.0071
1776.0,0.0074
1775.0,0.0076
1774.0,0.0079
1773.0,0.0084
1772.0,0.0089
1771.0,0.0095
1770.0,0.0099
1769.0,0.0104
1768.0,0.011
1767.0,0.0116
1766.0,0.0121
1765.0,0.0126
1764.0,0.0132
1763.0,0.014
1762.0,0.0148
1761.0,0.0157
1760.0,0.0163
1759.0,0.0168
1758.0,0.0173
1757.0,0.0179
1756.0,0.0184
1755.0,0.0188
1754.0,0.0191
1753.0,0.0194
1752.0,0.0197
1751.0,0.0199
1750.0,0.02
1749.0,0.02
1748.0,0.02
1747.0,0.02
1746.0,0.02
1745.0,0.02
1744.0,0.0199
1743.0,0.0196
1742.0,0.0193
1741.0,0.0189
1740.0,0.0184
1739.0,0.0179
1738.0,0.0175
1737.0,0.0172
1736.0,0.0168
1735.0,0.0161
1734.0,0.0153
1733.0,0.0147
1732.0,0.0144
1731.0,0.0141
1730.0,0.0138
1729.0,0.0136
1728.0,0.0133
1727.0,0.0131
1726.0,0.0128
1725.0,0.0126
1724.0,0.0123
1723.0,0.0121
1722.0,0.0119
1721.0,0.0118
1720.0,0.0117
1719.0,0.0115
1718.0,0.0113
1717.0,0.011
1716.0,0.0108
1715.0,0.0107
1714.0,0.0107
1713.0,0.0106
1712.0,0.0106
1711.0,0.0105
1710.0,0.0104
1709.0,0.0103
1708.0,0.0101
1707.0,0.01
1706.0,0.0098
1705.0,0.0097
1704.0,0.0096
1703.0,0.0095
1702.0,0.0095
1701.0,0.0095
1700.0,0.0094
1699.0,0.0093
1698.0,0.0092
1697.0,0.0092
1696.0,0.0092
1695.0,0.0092
1694.0,0.0091
1693.0,0.0091
1692.0,0.0091
1691.0,0.009
1690.0,0.009
1689.0,0.0089
1688.0,0.0088
1687.0,0.0087
1686.0,0.0087
1685.0,0.0088
1684.0,0.0087
1683.0,0.0087
1682.0,0.0087
1681.0,0.0086
1680.0,0.0086
1679.0,0.0086
1678.0,0.0086
1677.0,0.0086
1676.0,0.0087
1675.0,0.0088
1674.0,0.0089
1673.0,0.0089
1672.0,0.0088
1671.0,0.0087
1670.0,0.0087
1669.0,0.0088
1668.0,0.0089
1667.0,0.009
1666.0,0.009
1665.0,0.009
1664.0,0.009
1663.0,0.009
1662.0,0.0091
1661.0,0.0091
1660.0,0.0091
1659.0,0.0091
1658.0,0.0091
1657.0,0.0091
1656.0,0.0092
1655.0,0.0094
1654.0,0.0098
1653.0,0.01
1652.0,0.0101
1651.0,0.01
1650.0,0.01
1649.0,0.01
1648.0,0.0101
1647.0,0.0102
1646.0,0.0105
1645.0,0.0107
1644.0,0.0108
1643.0,0.011
1642.0,0.0112
1641.0,0.0114
1640.0,0.0115
1639.0,0.0115
1638.0,0.0115
1637.0,0.0115
1636.0,0.0115
1635.0,0.0115
1634.0,0.0115
1633.0,0.0113
1632.0,0.0112
1631.0,0.011
1630.0,0.0107
1629.0,0.0105
1628.0,0.0102
1627.0,0.01
1626.0,0.0099
1625.0,0.0098
1624.0,0.0096
1623.0,0.0093
1622.0,0.0091
1621.0,0.009
1620.0,0.0089
1619.0,0.0089
1618.0,0.0088
1617.0,0.0086
1616.0,0.0084
1615.0,0.0084
1614.0,0.0083
1613.0,0.0083
1612.0,0.0082
1611.0,0.0081
1610.0,0.008
1609.0,0.0079
1608.0,0.0079
1607.0,0.0078
1606.0,0.0078
1605.0,0.0078
1604.0,0.0077
1603.0,0.0076
1602.0,0.0075
1601.0,0.0074
1600.0,0.0073
1599.0,0.0072
1598.0,0.0072
1597.0,0.0071
1596.0,0.007
1595.0,0.007
1594.0,0.0069
1593.0,0.0069
1592.0,0.0069
1591.0,0.0069
1590.0,0.0069
1589.0,0.0068
1588.0,0.0067
1587.0,0.0066
1586.0,0.0065
1585.0,0.0064
1584.0,0.0063
1583.0,0.0063
1582.0,0.0063
1581.0,0.0063
1580.0,0.0063
1579.0,0.0062
1578.0,0.006
1577.0,0.0059
1576.0,0.0058
1575.0,0.0058
1574.0,0.0058
1573.0,0.0057
1572.0,0.0056
1571.0,0.0056
1570.0,0.0055
1569.0,0.0055
1568.0,0.0055
1567.0,0.0055
1566.0,0.0055
1565.0,0.0055
1564.0,0.0055
1563.0,0.0054
1562.0,0.0054
1561.0,0.0056
1560.0,0.0059
1559.0,0.0058
1558.0,0.0055
1557.0,0.0053
1556.0,0.0052
1555.0,0.0051
1554.0,0.0051
1553.0,0.005
1552.0,0.005
1551.0,0.005
1550.0,0.0049
1549.0,0.005
1548.0,0.005
1547.0,0.005
1546.0,0.005
1545.0,0.0049
1544.0,0.0048
1543.0,0.0048
1542.0,0.0048
1541.0,0.0048
1540.0,0.0047
1539.0,0.0047
1538.0,0.0047
1537.0,0.0048
1536.0,0.0048
1535.0,0.0048
1534.0,0.0048
1533.0,0.0047
1532.0,0.0047
1531.0,0.0047
1530.0,0.0047
1529.0,0.0047
1528.0,0.0046
1527.0,0.0046
1526.0,0.0046
1525.0,0.0045
1524.0,0.0045
1523.0,0.0045
1522.0,0.0044
1521.0,0.0044
1520.0,0.0044
1519.0,0.0043
1518.0,0.0043
1517.0,0.0042
1516.0,0.0042
1515.0,0.0042
1514.0,0.0042
1513.0,0.0042
1512.0,0.0042
1511.0,0.0042
1510.0,0.0043
1509.0,0.0044
1508.0,0.0045
1507.0,0.0045
1506.0,0.0044
1505.0,0.0044
1504.0,0.0044
1503.0,0.0043
1502.0,0.0043
1501.0,0.0042
1500.0,0.0041
1499.0,0.004
1498.0,0.0039
1497.0,0.004
1496.0,0.004
1495.0,0.0041
1494.0,0.0041
1493.0,0.004
1492.0,0.004
1491.0,0.004
1490.0,0.0039
1489.0,0.0038
1488.0,0.0039
1487.0,0.0039
1486.0,0.0039
1485.0,0.0039
1484.0,0.0039
1483.0,0.0038
1482.0,0.0037
1481.0,0.0037
1480.0,0.0038
1479.0,0.0038
1478.0,0.0038
1477.0,0.0038
1476.0,0.0038
1475.0,0.0038
1474.0,0.0038
1473.0,0.004
1472.0,0.0042
1471.0,0.0044
1470.0,0.0045
1469.0,0.0047
1468.0,0.0049
1467.0,0.0051
1466.0,0.0054
1465.0,0.0059
1464.0,0.0065
1463.0,0.0069
1462.0,0.0073
1461.0,0.0076
1460.0,0.0079
1459.0,0.0083
1458.0,0.0088
1457.0,0.0096
1456.0,0.0101
1455.0,0.0103
1454.0,0.0104
1453.0,0.0105
1452.0,0.0107
1451.0,0.0108
1450.0,0.0108
1449.0,0.0108
1448.0,0.0107
1447.0,0.0106
1446.0,0.0104
1445.0,0.0102
1444.0,0.0098
1443.0,0.0094
1442.0,0.009
1441.0,0.0086
1440.0,0.0082
1439.0,0.0078
1438.0,0.0074
1437.0,0.007
1436.0,0.0066
1435.0,0.0063
1434.0,0.0061
1433.0,0.0058
1432.0,0.0056
1431.0,0.0054
1430.0,0.0052
1429.0,0.0051
1428.0,0.005
1427.0,0.005
1426.0,0.0049
1425.0,0.0048
1424.0,0.0047
1423.0,0.0046
1422.0,0.0046
1421.0,0.0045
1420.0,0.0045
1419.0,0.0044
1418.0,0.0043
1417.0,0.0042
1416.0,0.0042
1415.0,0.0041
1414.0,0.0041
1413.0,0.0041
1412.0,0.004
1411.0,0.004
1410.0,0.004
1409.0,0.004
1408.0,0.004
1407.0,0.0039
1406.0,0.0039
1405.0,0.0039
1404.0,0.0039
1403.0,0.0039
1402.0,0.0039
1401.0,0.0039
1400.0,0.0039
1399.0,0.004
1398.0,0.0041
1397.0,0.0043
1396.0,0.0046
1395.0,0.0049
1394.0,0.0053
1393.0,0.0057
1392.0,0.006
1391.0,0.0064
1390.0,0.0067
1389.0,0.0071
1388.0,0.0076
1387.0,0.0081
1386.0,0.0086
1385.0,0.0089
1384.0,0.0092
1383.0,0.0094
1382.0,0.0096
1381.0,0.0096
1380.0,0.0096
1379.0,0.0094
1378.0,0.0091
1377.0,0.0088
1376.0,0.0086
1375.0,0.0083
1374.0,0.0083
1373.0,0.0083
1372.0,0.0085
1371.0,0.0087
1370.0,0.0089
1369.0,0.0091
1368.0,0.0093
1367.0,0.0094
1366.0,0.0094
1365.0,0.0095
1364.0,0.0095
1363.0,0.0096
1362.0,0.0097
1361.0,0.0098
1360.0,0.0099
1359.0,0.0099
1358.0,0.0099
1357.0,0.0099
1356.0,0.0098
1355.0,0.0097
1354.0,0.0096
1353.0,0.0095
1352.0,0.0093
1351.0,0.0092
1350.0,0.009
1349.0,0.0088
1348.0,0.0086
1347.0,0.0085
1346.0,0.0083
1345.0,0.0081
1344.0,0.0079
1343.0,0.0078
1342.0,0.0077
1341.0,0.0075
1340.0,0.0073
1339.0,0.0071
1338.0,0.007
1337.0,0.007
1336.0,0.0069
1335.0,0.0068
1334.0,0.0067
1333.0,0.0067
1332.0,0.0067
1331.0,0.0066
1330.0,0.0066
1329.0,0.0066
1328.0,0.0065
1327.0,0.0064
1326.0,0.0064
1325.0,0.0063
1324.0,0.0063
1323.0,0.0063
1322.0,0.0063
1321.0,0.0063
1320.0,0.0062
1319.0,0.0062
1318.0,0.0061
1317.0,0.0061
1316.0,0.0061
1315.0,0.0061
1314.0,0.0061
1313.0,0.0061
1312.0,0.006
1311.0,0.006
1310.0,0.006
1309.0,0.006
1308.0,0.0061
1307.0,0.0061
1306.0,0.0061
1305.0,0.0061
1304.0,0.0061
1303.0,0.006
1302.0,0.006
1301.0,0.006
1300.0,0.0059
1299.0,0.0059
1298.0,0.0058
1297.0,0.0057
1296.0,0.0056
1295.0,0.0055
1294.0,0.0054
1293.0,0.0053
1292.0,0.0052
1291.0,0.0051
1290.0,0.0051
1289.0,0.0051
1288.0,0.0052
1287.0,0.0054
1286.0,0.0056
1285.0,0.0058
1284.0,0.006
1283.0,0.0062
1282.0,0.0065
1281.0,0.0068
1280.0,0.0071
1279.0,0.0075
1278.0,0.0078
1277.0,0.0081
1276.0,0.0083
1275.0,0.0086
1274.0,0.0089
1273.0,0.0091
1272.0,0.0092
1271.0,0.0094
1270.0,0.0095
1269.0,0.0096
1268.0,0.0097
1267.0,0.0097
1266.0,0.0098
1265.0,0.0098
1264.0,0.0098
1263.0,0.0097
1262.0,0.0097
1261.0,0.0096
1260.0,0.0095
1259.0,0.0094
1258.0,0.0092
1257.0,0.0091
1256.0,0.0089
1255.0,0.0087
1254.0,0.0086
1253.0,0.0085
1252.0,0.0084
1251.0,0.0084
1250.0,0.0084
1249.0,0.0083
1248.0,0.0083
1247.0,0.0082
1246.0,0.0082
1245.0,0.0082
1244.0,0.0082
1243.0,0.0082
1242.0,0.0082
1241.0,0.0082
1240.0,0.0083
1239.0,0.0084
1238.0,0.0085
1237.0,0.0086
1236.0,0.0087
1235.0,0.0088
1234.0,0.009
1233.0,0.0091
1232.0,0.0094
1231.0,0.0096
1230.0,0.0099
1229.0,0.0102
1228.0,0.0105
1227.0,0.0108
1226.0,0.0112
1225.0,0.0115
1224.0,0.0119
1223.0,0.0123
1222.0,0.0128
1221.0,0.0133
1220.0,0.0137
1219.0,0.0142
1218.0,0.0147
1217.0,0.0151
1216.0,0.0156
1215.0,0.016
1214.0,0.0164
1213.0,0.0167
1212.0,0.017
1211.0,0.0173
1210.0,0.0175
1209.0,0.0176
1208.0,0.0178
1207.0,0.0179
1206.0,0.018
1205.0,0.0181
1204.0,0.0182
1203.0,0.0183
1202.0,0.0184
1201.0,0.0186
1200.0,0.0188
1199.0,0.0191
1198.0,0.0194
1197.0,0.0198
1196.0,0.0202
1195.0,0.0207
1194.0,0.0213
1193.0,0.0219
1192.0,0.0226
1191.0,0.0234
1190.0,0.0242
1189.0,0.025
1188.0,0.0258
1187.0,0.0267
1186.0,0.0277
1185.0,0.0286
1184.0,0.0296
1183.0,0.0304
1182.0,0.0311
1181.0,0.0315
1180.0,0.0315
1179.0,0.0313
1178.0,0.0307
1177.0,0.0299
1176.0,0.0287
1175.0,0.0274
1174.0,0.026
1173.0,0.0245
1172.0,0.0231
1171.0,0.0217
1170.0,0.0204
1169.0,0.0191
1168.0,0.018
1167.0,0.0169
1166.0,0.0159
1165.0,0.015
1164.0,0.0141
1163.0,0.0134
1162.0,0.0128
1161.0,0.0122
1160.0,0.0117
1159.0,0.0112
1158.0,0.0107
1157.0,0.0103
1156.0,0.01
1155.0,0.0098
1154.0,0.0096
1153.0,0.0094
1152.0,0.0094
1151.0,0.0094
1150.0,0.0095
1149.0,0.0098
1148.0,0.0101
1147.0,0.0106
1146.0,0.0111
1145.0,0.0119
1144.0,0.0128
1143.0,0.0138
1142.0,0.0149
1141.0,0.016
1140.0,0.017
1139.0,0.0181
1138.0,0.0191
1137.0,0.02
1136.0,0.0209
1135.0,0.0218
1134.0,0.0225
1133.0,0.0232
1132.0,0.0238
1131.0,0.0243
1130.0,0.0247
1129.0,0.025
1128.0,0.0251
1127.0,0.0252
1126.0,0.025
1125.0,0.0247
1124.0,0.0243
1123.0,0.0239
1122.0,0.0234
1121.0,0.0229
1120.0,0.0226
1119.0,0.0223
1118.0,0.022
1117.0,0.0218
1116.0,0.0216
1115.0,0.0216
1114.0,0.0216
1113.0,0.0217
1112.0,0.022
1111.0,0.0224
1110.0,0.023
1109.0,0.0236
1108.0,0.0244
1107.0,0.0253
1106.0,0.0262
1105.0,0.0272
1104.0,0.0282
1103.0,0.0291
1102.0,0.0301
1101.0,0.0311
1100.0,0.032
1099.0,0.0329
1098.0,0.0337
1097.0,0.0346
1096.0,0.0354
1095.0,0.0362
1094.0,0.037
1093.0,0.0379
1092.0,0.0387
1091.0,0.0395
1090.0,0.0403
1089.0,0.0411
1088.0,0.0418
1087.0,0.0425
1086.0,0.0432
1085.0,0.0438
1084.0,0.0443
1083.0,0.0446
1082.0,0.0449
1081.0,0.0451
1080.0,0.0451
1079.0,0.0451
1078.0,0.045
1077.0,0.0448
1076.0,0.0444
1075.0,0.044
1074.0,0.0435
1073.0,0.0429
1072.0,0.0422
1071.0,0.0414
1070.0,0.0404
1069.0,0.0395
1068.0,0.0385
1067.0,0.0374
1066.0,0.0363
1065.0,0.0353
1064.0,0.0343
1063.0,0.0333
1062.0,0.0325
1061.0,0.0319
1060.0,0.0314
1059.0,0.0311
1058.0,0.031
1057.0,0.0309
1056.0,0.0309
1055.0,0.031
1054.0,0.0312
1053.0,0.0314
1052.0,0.0316
1051.0,0.0318
1050.0,0.032
1049.0,0.0323
1048.0,0.0326
1047.0,0.033
1046.0,0.0334
1045.0,0.0337
1044.0,0.034
1043.0,0.0342
1042.0,0.0343
1041.0,0.0344
1040.0,0.0344
1039.0,0.0343
1038.0,0.0341
1037.0,0.0339
1036.0,0.0335
1035.0,0.0331
1034.0,0.0326
1033.0,0.0322
1032.0,0.0317
1031.0,0.0314
1030.0,0.031
1029.0,0.0307
1028.0,0.0303
1027.0,0.03
1026.0,0.0297
1025.0,0.0295
1024.0,0.0293
1023.0,0.029
1022.0,0.0287
1021.0,0.0285
1020.0,0.0283
1019.0,0.028
1018.0,0.0276
1017.0,0.0272
1016.0,0.0267
1015.0,0.0263
1014.0,0.0258
1013.0,0.0255
1012.0,0.0251
1011.0,0.0248
1010.0,0.0245
1009.0,0.0241
1008.0,0.0238
1007.0,0.0235
1006.0,0.0232
1005.0,0.0229
1004.0,0.0226
1003.0,0.0223
1002.0,0.0221
1001.0,0.0218
1000.0,0.0216
999.0,0.0214
998.0,0.0212
997.0,0.021
996.0,0.0208
995.0,0.0207
994.0,0.0205
993.0,0.0203
992.0,0.0201
991.0,0.02
990.0,0.0199
989.0,0.0197
988.0,0.0195
987.0,0.0194
986.0,0.0193
985.0,0.0191
984.0,0.019
983.0,0.0189
982.0,0.0187
981.0,0.0186
980.0,0.0184
979.0,0.0183
978.0,0.0183
977.0,0.0182
976.0,0.018
975.0,0.0179
974.0,0.0178
973.0,0.0176
972.0,0.0175
971.0,0.0174
970.0,0.0173
969.0,0.0173
968.0,0.0172
967.0,0.0171
966.0,0.0169
965.0,0.0168
964.0,0.0168
963.0,0.0169
962.0,0.017
961.0,0.0172
960.0,0.0174
959.0,0.0175
958.0,0.0176
957.0,0.0177
956.0,0.0177
955.0,0.0178
954.0,0.0178
953.0,0.0178
952.0,0.0177
951.0,0.0176
950.0,0.0175
949.0,0.0174
948.0,0.0174
947.0,0.0173
946.0,0.0172
945.0,0.017
944.0,0.0169
943.0,0.0169
942.0,0.0169
941.0,0.0168
940.0,0.0167
939.0,0.0166
938.0,0.0165
937.0,0.0165
936.0,0.0165
935.0,0.0164
934.0,0.0164
933.0,0.0164
932.0,0.0164
931.0,0.0164
930.0,0.0164
929.0,0.0164
928.0,0.0163
927.0,0.0163
926.0,0.0163
925.0,0.0164
924.0,0.0164
923.0,0.0164
922.0,0.0163
921.0,0.0161
920.0,0.0161
919.0,0.016
918.0,0.016
917.0,0.016
916.0,0.016
915.0,0.016
914.0,0.0161
913.0,0.0161
912.0,0.0161
911.0,0.0161
910.0,0.016
909.0,0.016
908.0,0.016
907.0,0.016
906.0,0.016
905.0,0.0159
904.0,0.0159
903.0,0.0159
902.0,0.0158
901.0,0.0157
900.0,0.0157
899.0,0.0158
898.0,0.0159
897.0,0.0159
896.0,0.0159
895.0,0.0159
894.0,0.0159
893.0,0.0159
892.0,0.0159
891.0,0.0158
890.0,0.0157
889.0,0.0156
888.0,0.0155
887.0,0.0154
886.0,0.0152
885.0,0.0151
884.0,0.0151
883.0,0.0151
882.0,0.0151
881.0,0.0152
880.0,0.0154
879.0,0.0157
878.0,0.0161
877.0,0.0166
876.0,0.0171
875.0,0.0177
874.0,0.0183
873.0,0.0189
872.0,0.0194
871.0,0.0198
870.0,0.02
869.0,0.0202
868.0,0.0204
867.0,0.0206
866.0,0.0207
865.0,0.0208
864.0,0.0209
863.0,0.0209
862.0,0.0208
861.0,0.0207
860.0,0.0206
859.0,0.0203
858.0,0.02
857.0,0.0196
856.0,0.0191
855.0,0.0185
854.0,0.018
853.0,0.0175
852.0,0.0173
851.0,0.0172
850.0,0.0171
849.0,0.017
848.0,0.0169
847.0,0.0169
846.0,0.0168
845.0,0.0168
844.0,0.0167
843.0,0.0166
842.0,0.0164
841.0,0.0161
840.0,0.0158
839.0,0.0155
838.0,0.0152
837.0,0.0151
836.0,0.015
835.0,0.0151
834.0,0.0151
833.0,0.0151
832.0,0.015
831.0,0.0148
830.0,0.0146
829.0,0.0144
828.0,0.0143
827.0,0.0143
826.0,0.0143
825.0,0.0144
824.0,0.0144
823.0,0.0144
822.0,0.0143
821.0,0.0142
820.0,0.0141
819.0,0.014
818.0,0.0139
817.0,0.0138
816.0,0.0137
815.0,0.0136
814.0,0.0135
813.0,0.0135
812.0,0.0136
811.0,0.0137
810.0,0.0137
809.0,0.0137
808.0,0.0137
807.0,0.0137
806.0,0.0137
805.0,0.0136
804.0,0.0134
803.0,0.0132
802.0,0.0131
801.0,0.0132
800.0,0.0132
799.0,0.0131
798.0,0.0131
797.0,0.013
796.0,0.0129
795.0,0.0129
794.0,0.0129
793.0,0.013
792.0,0.013
791.0,0.0131
790.0,0.0132
789.0,0.0134
788.0,0.0136
787.0,0.0137
786.0,0.0137
785.0,0.0138
784.0,0.0139
783.0,0.014
782.0,0.0142
781.0,0.0143
780.0,0.0145
779.0,0.0146
778.0,0.0147
777.0,0.0148
776.0,0.015
775.0,0.0152
774.0,0.0155
773.0,0.0158
772.0,0.016
771.0,0.0162
770.0,0.0164
769.0,0.0167
768.0,0.017
767.0,0.0175
766.0,0.018
765.0,0.0185
764.0,0.0191
763.0,0.0196
762.0,0.0201
761.0,0.0205
760.0,0.021
759.0,0.0216
758.0,0.0222
757.0,0.0229
756.0,0.0233
755.0,0.0237
754.0,0.024
753.0,0.0242
752.0,0.0243
751.0,0.0243
750.0,0.0242
749.0,0.0242
748.0,0.0241
747.0,0.0239
746.0,0.0237
745.0,0.0236
744.0,0.0236
743.0,0.0236
742.0,0.0236
741.0,0.0236
740.0,0.0236
739.0,0.0236
738.0,0.0235
737.0,0.0233
736.0,0.0228
735.0,0.0222
734.0,0.0215
733.0,0.0211
732.0,0.021
731.0,0.0209
730.0,0.0207
729.0,0.0205
728.0,0.0204
727.0,0.0204
726.0,0.0205
725.0,0.0206
724.0,0.0206
723.0,0.0206
722.0,0.0205
721.0,0.0205
720.0,0.0207
719.0,0.0211
718.0,0.0216
717.0,0.0221
716.0,0.0226
715.0,0.023
714.0,0.0234
713.0,0.0237
712.0,0.0239
711.0,0.0239
710.0,0.0239
709.0,0.0238
708.0,0.0237
707.0,0.0236
706.0,0.0236
705.0,0.0239
704.0,0.0244
703.0,0.025
702.0,0.0252
701.0,0.025
700.0,0.0244
699.0,0.0237
698.0,0.0231
697.0,0.0228
696.0,0.023
695.0,0.0233
694.0,0.0238
693.0,0.024
692.0,0.0242
691.0,0.0243
690.0,0.0245
689.0,0.0245
688.0,0.0244
687.0,0.0242
686.0,0.0241
685.0,0.024
684.0,0.0238
683.0,0.0232
682.0,0.0224
681.0,0.0222
680.0,0.0223
679.0,0.0237
678.0,0.0215
677.0,0.0204
676.0,0.0209
675.0,0.0205
674.0,0.0207
673.0,0.0207
672.0,0.0207
671.0,0.0205
670.0,0.0203
669.0,0.0203
668.0,0.0206
667.0,0.0209
666.0,0.0212
665.0,0.0217
664.0,0.0219
663.0,0.0218
662.0,0.021
661.0,0.0204
660.0,0.0195
659.0,0.0216
658.0,0.023
657.0,0.0229
656.0,0.0233
655.0,0.0231
654.0,0.0228
653.0,0.0225
652.0,0.0224
651.0,0.0222
650.0,0.0215
649.0,0.0207
648.0,0.0202
647.0,0.0205
646.0,0.0215
645.0,0.0229
644.0,0.0241
643.0,0.0248
642.0,0.0249
641.0,0.0246
640.0,0.0241
639.0,0.0235
638.0,0.0233
637.0,0.0235
636.0,0.0241
635.0,0.0245
634.0,0.0241
633.0,0.0234
632.0,0.0228
631.0,0.0226
630.0,0.0225
629.0,0.0225
628.0,0.0226
627.0,0.0228
626.0,0.0229
625.0,0.0231
624.0,0.0233
623.0,0.0236
622.0,0.0238
621.0,0.024
620.0,0.0242
619.0,0.0247
618.0,0.0251
617.0,0.0254
616.0,0.0257
615.0,0.0259
614.0,0.0259
613.0,0.0259
612.0,0.0259
611.0,0.0257
610.0,0.0255
609.0,0.0254
608.0,0.0255
607.0,0.0258
606.0,0.0261
605.0,0.0261
604.0,0.0258
603.0,0.0255
602.0,0.0254
601.0,0.0257
600.0,0.0262
