nm,Intensity
526.495,829.7
526.632,828.5
526.768,829.9
526.905,827.8
527.042,829.9
527.179,830.2
527.315,830.2
527.452,829.2
527.589,828.1
527.725,829.5
527.862,828.2
527.999,830.0
528.136,829.5
528.272,828.5
528.409,828.1
528.546,829.5
528.682,828.5
528.819,829.7
528.955,830.1
529.092,829.0
529.229,829.8
529.365,828.3
529.502,829.4
529.639,828.4
529.775,828.2
529.912,829.4
530.048,830.1
530.185,828.1
530.321,829.5
530.458,829.7
530.594,829.5
530.731,829.9
530.867,829.2
531.004,829.2
531.14,827.9
531.277,828.9
531.413,830.4
531.55,829.3
531.686,829.8
531.823,827.9
531.959,832.6
532.096,850.7
532.232,856.4
532.369,837.5
532.505,827.7
532.641,828.6
532.778,830.5
532.914,828.6
533.051,829.8
533.187,830.0
533.323,830.1
533.46,828.6
533.596,829.8
533.732,834.3
533.869,860.2
534.005,893.7
534.141,901.8
534.278,897.2
534.414,895.5
534.55,894.8
534.687,903.1
534.823,917.9
534.959,932.1
535.095,949.1
535.232,958.1
535.368,932.5
535.504,901.3
535.64,879.0
535.777,869.0
535.913,861.5
536.049,857.6
536.185,856.0
536.321,852.7
536.457,852.8
536.594,857.8
536.73,862.9
536.866,872.5
537.002,885.6
537.138,893.5
537.274,889.7
537.41,876.5
537.547,866.4
537.683,854.2
537.819,853.3
537.955,849.8
538.091,850.6
538.227,847.7
538.363,848.5
538.499,847.9
538.635,848.8
538.771,847.6
538.907,848.9
539.043,851.0
539.179,853.6
539.315,857.1
539.451,860.3
539.587,855.4
539.723,853.7
539.859,847.1
539.995,844.9
540.131,843.3
540.267,841.0
540.403,841.3
540.539,840.4
540.675,840.7
540.811,841.3
540.947,843.3
541.083,845.7
541.219,851.9
541.354,856.9
541.49,855.0
541.626,850.1
541.762,843.7
541.898,841.1
542.034,840.6
542.17,840.4
542.305,839.6
542.441,839.0
542.577,838.2
542.713,839.1
542.849,840.5
542.984,841.5
543.12,842.8
543.256,847.2
543.392,856.4
543.528,887.5
543.663,942.7
543.799,932.2
543.935,888.9
544.071,866.6
544.206,854.4
544.342,848.0
544.478,847.7
544.613,844.2
544.749,845.7
544.885,844.0
545.02,845.7
545.156,851.5
545.292,863.8
545.427,868.5
545.563,862.1
545.699,854.3
545.834,845.8
545.97,840.7
546.106,839.5
546.241,840.7
546.377,837.7
546.512,838.6
546.648,837.4
546.784,840.4
546.919,839.7
547.055,840.9
547.19,844.0
547.326,851.2
547.461,859.4
547.597,865.8
547.732,857.9
547.868,848.8
548.003,843.4
548.139,839.2
548.274,836.5
548.41,840.0
548.545,837.8
548.681,837.8
548.816,835.4
548.952,836.3
549.087,834.0
549.223,835.2
549.358,833.3
549.494,835.0
549.629,834.5
549.764,834.0
549.9,834.4
550.035,835.1
550.171,832.3
550.306,834.2
550.441,832.5
550.577,832.3
550.712,833.2
550.847,833.1
550.983,832.8
551.118,832.8
551.253,831.9
551.389,832.9
551.524,833.9
551.659,833.2
551.795,834.3
551.93,834.5
552.065,835.1
552.201,832.3
552.336,833.5
552.471,833.2
552.606,831.9
552.742,833.3
552.877,834.8
553.012,833.6
553.147,834.8
553.283,833.2
553.418,833.5
553.553,833.7
553.688,835.0
553.823,834.8
553.959,834.1
554.094,834.5
554.229,835.7
554.364,834.8
554.499,836.8
554.634,836.6
554.769,839.0
554.905,839.8
555.04,839.1
555.175,840.3
555.31,839.9
555.445,844.4
555.58,850.5
555.715,855.0
555.85,874.8
555.985,932.6
556.121,998.6
556.256,952.5
556.391,888.8
556.526,873.6
556.661,876.8
556.796,885.0
556.931,911.9
557.066,977.4
557.201,987.3
557.336,905.1
557.471,870.7
557.606,857.3
557.741,854.1
557.876,850.4
558.011,846.7
558.146,846.2
558.281,845.5
558.416,841.9
558.551,842.5
558.685,846.6
558.82,852.4
558.955,863.2
559.09,855.4
559.225,843.8
559.36,841.6
559.495,840.7
559.63,841.9
559.765,841.9
559.9,845.2
560.034,850.0
560.169,864.2
560.304,869.4
560.439,855.4
560.574,850.9
560.709,847.6
560.843,850.6
560.978,857.8
561.113,881.1
561.248,910.1
561.383,892.6
561.517,861.0
561.652,852.0
561.787,857.1
561.922,876.9
562.057,902.1
562.191,883.7
562.326,859.7
562.461,852.2
562.596,850.3
562.73,849.7
562.865,851.5
563.0,857.0
563.134,869.8
563.269,883.6
563.404,882.6
563.539,873.4
563.673,861.9
563.808,852.3
563.943,846.8
564.077,845.2
564.212,844.5
564.346,840.9
564.481,842.0
564.616,842.6
564.75,841.5
564.885,843.3
565.02,844.5
565.154,848.5
565.289,853.6
565.423,856.4
565.558,851.2
565.693,846.2
565.827,845.7
565.962,846.9
566.096,844.3
566.231,846.1
566.365,848.9
566.5,852.3
566.634,868.7
566.769,903.7
566.903,960.3
567.038,961.8
567.172,929.2
567.307,909.0
567.441,916.0
567.576,901.4
567.71,867.5
567.845,852.0
567.979,846.1
568.114,846.1
568.248,845.6
568.383,847.0
568.517,850.1
568.652,853.4
568.786,857.1
568.92,871.5
569.055,890.7
569.189,891.7
569.324,873.4
569.458,858.7
569.592,851.4
569.727,847.3
569.861,847.8
569.996,850.7
570.13,850.5
570.264,856.5
570.399,854.7
570.533,847.8
570.667,847.9
570.802,846.8
570.936,845.8
571.07,849.8
571.205,852.0
571.339,854.1
571.473,857.1
571.607,864.2
571.742,865.6
571.876,861.4
572.01,861.0
572.144,862.1
572.279,870.3
572.413,885.2
572.547,932.2
572.681,996.5
572.816,982.7
572.95,918.4
573.084,883.2
573.218,869.2
573.353,867.4
573.487,881.0
573.621,904.1
573.755,912.9
573.889,890.3
574.023,873.6
574.158,871.3
574.292,865.8
574.426,854.3
574.56,847.4
574.694,845.6
574.828,844.3
574.963,841.2
575.097,838.9
575.231,840.0
575.365,841.3
575.499,842.5
575.633,843.5
575.767,844.9
575.901,851.4
576.035,871.4
576.169,909.4
576.303,914.2
576.438,902.9
576.572,911.7
576.706,946.7
576.84,999.8
576.974,1049.5
577.108,1034.6
577.242,959.7
577.376,902.0
577.51,869.4
577.644,854.5
577.778,850.4
577.912,845.7
578.046,845.3
578.18,842.0
578.314,842.8
578.448,840.4
578.582,840.1
578.716,840.4
578.85,839.1
578.984,838.0
579.117,839.3
579.251,838.0
579.385,838.5
579.519,837.0
579.653,838.3
579.787,837.3
579.921,837.7
580.055,837.0
580.189,836.0
580.323,837.5
580.456,836.5
580.59,836.4
580.724,838.0
580.858,837.5
580.992,836.3
581.126,836.7
581.26,837.3
581.393,836.3
581.527,837.6
581.661,838.4
581.795,837.0
581.929,836.6
582.063,838.0
582.196,835.4
582.33,837.1
582.464,836.7
582.598,838.0
582.731,837.6
582.865,838.5
582.999,837.9
583.133,836.8
583.267,838.1
583.4,837.3
583.534,837.9
583.668,838.4
583.801,837.9
583.935,837.6
584.069,836.3
584.203,837.6
584.336,837.2
584.47,838.2
584.604,840.9
584.737,838.4
584.871,837.6
585.005,838.8
585.138,839.3
585.272,840.5
585.406,840.4
585.539,837.9
585.673,837.9
585.807,837.8
585.94,838.3
586.074,836.2
586.208,837.5
586.341,835.4
586.475,836.7
586.608,836.8
586.742,838.2
586.876,836.5
587.009,835.7
587.143,837.1
587.276,835.6
587.41,836.6
587.543,836.8
587.677,837.4
587.811,837.2
587.944,835.4
588.078,835.6
588.211,835.2
588.345,834.7
588.478,837.1
588.612,836.2
588.745,836.2
588.879,836.9
589.012,833.9
589.146,836.7
589.279,833.5
589.413,836.3
589.546,836.7
589.68,834.6
589.813,834.7
589.947,836.8
590.08,835.5
590.214,836.0
590.347,835.0
590.48,835.9
590.614,837.3
590.747,835.3
590.881,837.0
591.014,835.7
591.148,837.0
591.281,836.2
591.414,835.4
591.548,836.2
591.681,838.6
591.815,836.8
591.948,837.1
592.081,836.9
592.215,837.5
592.348,836.9
592.481,838.4
592.615,836.8
592.748,836.4
592.881,835.1
593.015,834.1
593.148,835.2
593.281,834.5
593.415,835.9
593.548,837.8
593.681,835.1
593.815,837.3
593.948,835.6
594.081,837.3
594.215,835.0
594.348,834.8
594.481,836.5
594.614,835.0
594.748,837.1
594.881,835.8
595.014,836.1
595.147,836.4
595.281,836.3
595.414,835.6
595.547,836.5
595.68,836.6
595.814,834.3
595.947,835.0
596.08,837.2
596.213,835.7
596.347,836.6
596.48,835.6
596.613,837.0
596.746,835.8
596.879,836.5
597.012,836.8
597.146,835.2
597.279,836.9
597.412,836.8
597.545,834.6
597.678,837.1
597.811,837.1
597.945,835.4
598.078,836.2
598.211,836.3
598.344,837.0
598.477,836.7
598.61,837.8
598.743,835.1
598.876,836.8
599.009,835.8
599.143,834.7
599.276,836.7
599.409,835.2
599.542,837.2
599.675,836.9
599.808,836.6
599.941,839.3
600.074,835.4
600.207,839.1
600.34,837.9
600.473,834.2
600.606,836.8
600.739,836.0
600.872,835.9
601.005,837.0
601.138,839.3
601.271,837.6
601.404,836.6
601.537,837.3
601.67,837.7
601.803,835.4
601.936,837.5
602.069,837.2
602.202,835.8
602.335,835.9
602.468,836.3
602.601,836.6
602.734,836.7
602.867,836.5
603.0,835.5
603.133,836.9
603.266,836.8
603.399,836.5
603.532,839.0
603.665,837.0
603.798,838.0
603.931,838.2
604.064,838.8
604.196,838.7
604.329,837.0
604.462,838.0
604.595,839.7
604.728,839.0
604.861,841.1
604.994,839.5
605.127,838.7
605.259,839.7
605.392,838.0
605.525,840.2
605.658,838.0
605.791,837.7
605.924,837.1
606.057,838.1
606.189,838.7
606.322,838.4
606.455,839.2
606.588,837.7
606.721,837.2
606.853,840.3
606.986,838.4
607.119,837.8
607.252,838.9
607.385,839.0
607.517,841.0
607.65,841.3
607.783,837.8
607.916,838.6
608.049,838.8
608.181,839.7
608.314,838.8
608.447,838.0
608.58,839.1
608.712,840.9
608.845,838.5
608.978,838.2
609.111,837.5
609.243,837.6
609.376,838.8
609.509,839.7
609.641,838.5
609.774,838.9
609.907,839.1
610.039,839.7
610.172,838.9
610.305,837.3
610.438,837.8
610.57,840.5
610.703,838.0
610.836,838.9
610.968,837.4
611.101,838.3
611.234,839.4
611.366,839.1
611.499,838.3
611.631,837.6
611.764,838.5
611.897,837.7
612.029,838.3
612.162,838.2
612.295,840.7
612.427,838.5
612.56,838.1
612.692,837.6
612.825,836.8
612.958,838.8
613.09,838.9
613.223,838.5
613.355,837.3
613.488,838.2
613.621,838.7
613.753,839.3
613.886,839.6
614.018,840.4
614.151,841.2
614.283,840.0
614.416,840.6
614.548,839.5
614.681,840.0
614.814,839.3
614.946,840.8
615.079,840.4
615.211,840.5
615.344,841.6
615.476,841.4
615.609,841.3
615.741,842.1
615.874,840.4
616.006,839.4
616.139,840.5
616.271,841.3
616.404,842.0
616.536,841.6
616.669,842.3
616.801,842.5
616.933,841.9
617.066,845.3
617.198,844.7
617.331,846.4
617.463,846.2
617.596,845.5
617.728,845.6
617.861,844.6
617.993,847.2
618.125,844.0
618.258,845.8
618.39,847.6
618.523,846.2
618.655,844.1
618.788,845.7
618.92,846.1
619.052,846.9
619.185,847.8
619.317,852.3
619.45,855.7
619.582,858.7
619.714,857.7
619.847,858.9
619.979,859.1
620.111,855.8
620.244,856.3
620.376,855.6
620.509,854.8
620.641,854.6
620.773,854.3
620.906,856.1
621.038,855.8
621.17,854.4
621.303,856.6
621.435,861.4
621.567,867.0
621.7,873.5
621.832,880.4
621.964,884.2
622.096,890.9
622.229,901.7
622.361,908.8
622.493,910.7
622.626,895.2
622.758,889.6
622.89,879.1
623.022,876.4
623.155,870.0
623.287,867.7
623.419,865.8
623.552,859.2
623.684,859.0
623.816,855.3
623.948,852.2
624.081,850.7
624.213,850.4
624.345,850.6
624.477,850.4
624.61,848.7
624.742,849.1
624.874,851.0
625.006,854.2
625.138,853.8
625.271,856.5
625.403,858.3
625.535,859.1
625.667,863.3
625.799,866.6
625.932,871.4
626.064,877.2
626.196,884.1
626.328,895.6
626.46,923.8
626.593,977.1
626.725,1087.1
626.857,1212.4
626.989,1278.6
627.121,1217.4
627.253,1117.1
627.386,1037.4
627.518,1015.0
627.65,1036.3
627.782,1141.0
627.914,1328.6
628.046,1464.9
628.178,1476.8
628.311,1490.7
628.443,1587.0
628.575,1715.6
628.707,1777.0
628.839,1732.7
628.971,1638.2
629.103,1539.0
629.235,1499.7
629.367,1534.7
629.5,1569.7
629.632,1532.5
629.764,1419.2
629.896,1324.5
630.028,1307.4
630.16,1325.0
630.292,1349.1
630.424,1327.2
630.556,1255.3
630.688,1163.9
630.82,1096.1
630.952,1068.9
631.084,1090.3
631.216,1191.5
631.349,1316.0
631.481,1344.3
631.613,1304.2
631.745,1270.3
631.877,1233.5
632.009,1172.3
632.141,1094.6
632.273,1025.9
632.405,969.5
632.537,931.9
632.669,912.5
632.801,895.6
632.933,882.2
633.065,877.6
633.197,868.2
633.329,864.0
633.461,864.2
633.593,857.8
633.725,857.4
633.857,856.3
633.989,849.6
634.121,849.5
634.253,850.4
634.385,847.6
634.517,845.9
634.649,845.4
634.781,845.5
634.912,844.1
635.044,844.6
635.176,845.4
635.308,845.2
635.44,840.8
635.572,842.7
635.704,844.2
635.836,842.3
635.968,841.2
636.1,840.5
636.232,841.7
636.364,840.1
636.496,841.2
636.628,841.1
636.76,840.3
636.891,840.9
637.023,840.9
637.155,839.7
637.287,839.8
637.419,840.9
637.551,840.0
637.683,841.8
637.815,842.1
637.947,839.6
638.078,840.4
638.21,839.6
638.342,841.7
638.474,840.6
638.606,841.4
638.738,840.4
638.87,841.1
639.002,840.5
639.133,843.2
639.265,840.4
639.397,841.9
639.529,840.2
639.661,840.1
639.793,841.2
639.924,840.9
640.056,839.0
640.188,841.0
640.32,840.1
640.452,841.9
640.584,842.6
640.715,842.3
640.847,841.5
640.979,841.1
641.111,841.7
641.243,841.5
641.374,842.4
641.506,841.2
641.638,843.6
641.77,841.1
641.902,842.0
642.033,840.6
642.165,840.1
642.297,840.9
642.429,837.3
642.561,839.5
642.692,836.1
642.824,837.8
642.956,837.3
643.088,836.9
643.219,835.9
643.351,836.0
643.483,834.9
643.615,836.4
643.746,838.0
643.878,835.9
644.01,837.4
644.142,836.7
644.273,835.8
644.405,838.2
644.537,836.1
644.669,835.2
644.8,835.7
644.932,834.8
645.064,835.2
645.195,836.7
645.327,836.7
645.459,834.2
645.591,835.4
645.722,834.2
645.854,834.2
645.986,834.8
646.117,835.4
646.249,833.8
646.381,835.4
646.512,834.7
646.644,833.2
646.776,834.4
646.908,835.7
647.039,834.2
647.171,835.6
647.303,835.2
647.434,835.8
647.566,837.0
647.698,835.2
647.829,835.3
647.961,835.4
648.093,834.6
648.224,835.4
648.356,834.1
648.488,836.0
648.619,835.6
648.751,833.3
648.883,836.0
649.014,833.6
649.146,834.9
649.277,833.9
649.409,835.6
649.541,834.7
649.672,835.0
649.804,833.0
649.936,835.4
650.067,834.4
650.199,835.2
650.33,834.0
650.462,834.8
650.594,833.6
650.725,834.8
650.857,833.4
650.988,834.7
651.12,833.6
651.252,836.0
651.383,833.6
651.515,832.9
651.646,833.4
651.778,833.8
651.91,833.3
652.041,832.3
652.173,833.6
652.304,834.4
652.436,835.5
652.568,836.0
652.699,833.2
652.831,834.2
652.962,834.6
653.094,832.4
653.225,832.9
653.357,832.9
653.489,833.1
653.62,836.1
653.752,835.4
653.883,832.9
654.015,832.9
654.146,833.5
654.278,835.6
654.409,834.0
654.541,834.5
654.672,832.7
654.804,833.6
654.935,834.0
655.067,834.4
655.199,831.6
655.33,833.3
655.462,833.8
655.593,833.2
655.725,831.9
655.856,833.9
655.988,834.8
656.119,832.5
656.251,833.3
656.382,832.1
656.514,833.2
656.645,832.7
656.777,832.0
656.908,833.9
657.04,833.5
657.171,832.6
657.303,832.8
657.434,835.3
657.566,834.1
657.697,833.1
657.829,834.1
657.96,833.3
658.092,832.9
658.223,831.9
658.355,832.8
658.486,833.2
658.617,833.8
658.749,833.3
658.88,833.0
659.012,833.9
659.143,834.6
659.275,832.1
659.406,833.4
659.538,833.9
659.669,832.4
659.801,831.8
659.932,832.9
660.064,835.8
660.195,832.8
660.326,833.0
660.458,833.6
660.589,834.1
660.721,832.6
660.852,832.4
660.984,831.0
661.115,833.5
661.246,834.0
661.378,832.9
661.509,832.9
661.641,832.4
661.772,833.4
661.904,834.4
662.035,830.5
662.166,833.2
662.298,832.3
662.429,831.6
662.561,835.2
662.692,832.5
662.823,832.7
662.955,832.6
663.086,834.5
