nm,Intensity
791.377,4865.75
791.652,4865.05
791.927,4882.9
792.202,4850.15
792.477,4832.2
792.752,4825.95
793.027,4797.8
793.301,4816.35
793.576,4811.05
793.851,4812.55
794.126,4795.3
794.401,4784.9
794.676,4757.65
794.951,4771.35
795.225,4788.2
795.5,4765.0
795.775,4761.45
796.05,4777.1
796.325,4770.0
796.599,4754.25
796.874,4767.5
797.149,4787.0
797.424,4780.2
797.698,4755.75
797.973,4756.7
798.248,4740.75
798.523,4745.4
798.797,4736.9
799.072,4744.1
799.347,4727.95
799.622,4712.4
799.896,4727.95
800.171,4718.4
800.446,4718.15
800.72,4686.75
800.995,4712.75
801.27,4703.7
801.544,4676.15
801.819,4702.45
802.094,4702.3
802.368,4690.55
802.643,4689.1
802.918,4673.05
803.192,4664.6
803.467,4690.45
803.742,4681.05
804.016,4681.1
804.291,4675.0
804.565,4666.25
804.84,4669.1
805.114,4668.15
805.389,4673.65
805.664,4659.6
805.938,4660.25
806.213,4658.25
806.487,4639.8
806.762,4651.4
807.036,4645.85
807.311,4636.45
807.585,4631.35
807.86,4623.95
808.134,4639.45
808.409,4630.25
808.683,4623.55
808.958,4637.65
809.232,4623.9
809.507,4619.15
809.781,4640.15
810.056,4643.85
810.33,4655.15
810.605,4659.1
810.879,4619.95
811.153,4591.75
811.428,4590.95
811.702,4590.7
811.977,4592.0
812.251,4582.15
812.525,4587.9
812.8,4582.25
813.074,4569.35
813.349,4583.2
813.623,4561.3
813.897,4560.6
814.172,4562.35
814.446,4553.4
814.72,4556.85
814.995,4547.55
815.269,4531.4
815.543,4546.5
815.818,4536.6
816.092,4523.4
816.366,4524.25
816.64,4526.8
816.915,4516.8
817.189,4505.85
817.463,4508.55
817.737,4494.5
818.012,4512.95
818.286,4507.35
818.56,4504.4
818.834,4498.1
819.109,4492.65
819.383,4486.4
819.657,4483.05
819.931,4497.2
820.205,4483.0
820.48,4489.75
820.754,4486.4
821.028,4484.2
821.302,4470.9
821.576,4471.65
821.85,4468.05
822.125,4469.6
822.399,4449.65
822.673,4430.85
822.947,4435.45
823.221,4445.35
823.495,4451.75
823.769,4456.55
824.043,4447.5
824.317,4441.75
824.591,4440.7
824.865,4440.7
825.14,4450.3
825.414,4433.25
825.688,4435.15
825.962,4434.3
826.236,4428.9
826.51,4425.65
826.784,4419.95
827.058,4413.4
827.332,4401.2
827.606,4404.8
827.88,4411.7
828.154,4406.3
828.428,4403.95
828.702,4402.8
828.976,4399.2
829.249,4407.9
829.523,4404.2
829.797,4393.4
830.071,4390.15
830.345,4373.95
830.619,4378.65
830.893,4381.55
831.167,4369.15
831.441,4376.3
831.715,4378.7
831.988,4364.45
832.262,4356.55
832.536,4360.55
832.81,4374.35
833.084,4374.35
833.358,4367.35
833.632,4366.85
833.905,4360.6
834.179,4365.35
834.453,4342.4
834.727,4338.15
835.001,4348.15
835.274,4350.55
835.548,4342.95
835.822,4331.65
836.096,4344.35
836.369,4347.0
836.643,4345.6
836.917,4337.25
837.191,4357.5
837.464,4366.65
837.738,4366.05
838.012,4388.05
838.285,4372.5
838.559,4356.65
838.833,4357.8
839.106,4344.4
839.38,4329.2
839.654,4348.6
839.927,4357.5
840.201,4350.75
840.475,4360.8
840.748,4348.15
841.022,4336.0
841.295,4311.9
841.569,4313.1
841.843,4316.05
842.116,4315.9
842.39,4312.55
842.663,4309.7
842.937,4309.6
843.211,4299.5
843.484,4298.2
843.758,4297.2
844.031,4298.2
844.305,4292.15
844.578,4281.95
844.852,4285.3
845.125,4283.1
845.399,4287.35
845.672,4290.45
845.946,4278.95
846.219,4272.35
846.493,4277.5
846.766,4278.95
847.039,4283.35
847.313,4266.6
847.586,4279.55
847.86,4277.7
848.133,4273.4
848.407,4277.4
848.68,4265.1
848.953,4263.55
849.227,4276.9
849.5,4275.95
849.773,4271.8
850.047,4271.1
850.32,4260.6
850.593,4259.9
850.867,4257.2
851.14,4262.9
851.413,4267.15
851.687,4272.05
851.96,4278.8
852.233,4250.95
852.507,4250.6
852.78,4241.65
853.053,4251.4
853.326,4250.1
853.6,4233.35
853.873,4248.6
854.146,4233.45
854.419,4241.2
854.693,4249.35
854.966,4240.55
855.239,4233.6
855.512,4221.85
855.785,4229.15
856.059,4236.9
856.332,4230.5
856.605,4225.65
856.878,4212.0
857.151,4220.8
857.424,4225.85
857.698,4220.5
857.971,4228.0
858.244,4215.45
858.517,4219.8
858.79,4224.7
859.063,4219.55
859.336,4214.6
859.609,4221.05
859.882,4217.15
860.155,4212.7
860.428,4201.05
860.701,4213.4
860.974,4213.55
861.247,4212.35
861.52,4214.9
861.793,4217.8
862.066,4209.6
862.339,4214.75
862.612,4227.75
862.885,4225.8
863.158,4219.1
863.431,4220.7
863.704,4218.75
863.977,4217.8
864.25,4215.9
864.523,4212.45
864.796,4208.05
865.069,4194.7
865.342,4194.4
865.615,4181.75
865.888,4181.45
866.16,4186.15
866.433,4189.8
866.706,4175.7
866.979,4180.35
867.252,4180.6
867.525,4181.9
867.798,4177.6
868.07,4187.0
868.343,4183.15
868.616,4178.65
868.889,4170.55
869.162,4177.1
869.434,4177.7
869.707,4173.65
869.98,4182.1
870.253,4183.15
870.525,4172.85
870.798,4167.25
871.071,4164.8
871.344,4168.3
871.616,4168.6
871.889,4160.4
872.162,4154.3
872.434,4155.4
872.707,4152.75
872.98,4165.55
873.252,4163.3
873.525,4170.95
873.798,4167.8
874.07,4162.25
874.343,4153.15
874.615,4156.8
874.888,4157.75
875.161,4167.35
875.433,4168.8
875.706,4162.05
875.978,4174.45
876.251,4169.0
876.524,4174.45
876.796,4174.7
877.069,4172.3
877.341,4161.7
877.614,4151.95
877.886,4150.8
878.159,4151.3
878.431,4161.9
878.704,4148.0
878.976,4135.2
879.249,4136.0
879.521,4136.95
879.794,4130.5
880.066,4128.35
880.338,4123.35
880.611,4123.35
880.883,4122.45
881.156,4114.75
881.428,4122.15
881.7,4123.05
881.973,4120.15
882.245,4115.95
882.518,4109.5
882.79,4119.1
883.062,4113.95
883.335,4110.85
883.607,4114.45
883.879,4120.65
884.152,4120.85
884.424,4122.2
884.696,4123.75
884.968,4131.25
885.241,4138.4
885.513,4130.6
885.785,4133.05
886.058,4131.6
886.33,4132.0
886.602,4124.15
886.874,4123.4
887.146,4113.7
887.419,4112.55
887.691,4108.8
887.963,4099.05
888.235,4091.9
888.507,4091.0
888.78,4087.0
889.052,4078.15
889.324,4075.65
889.596,4082.95
889.868,4081.05
890.14,4078.3
890.412,4078.1
890.684,4078.3
890.957,4079.95
891.229,4077.95
891.501,4083.55
891.773,4079.3
892.045,4077.35
892.317,4074.65
892.589,4071.1
892.861,4063.8
893.133,4059.05
893.405,4059.2
893.677,4063.5
893.949,4057.75
894.221,4047.95
894.493,4049.25
894.765,4042.5
895.037,4048.95
895.309,4047.25
895.581,4046.9
895.853,4041.3
896.125,4041.5
896.397,4040.65
896.668,4047.75
896.94,4051.3
897.212,4044.4
897.484,4034.85
897.756,4031.55
898.028,4026.8
898.3,4023.4
898.571,4025.05
898.843,4028.9
899.115,4027.4
899.387,4023.15
899.659,4019.3
899.931,4022.3
900.202,4023.4
900.474,4024.1
900.746,4018.25
901.018,4020.05
901.289,4022.25
901.561,4016.4
901.833,4011.65
902.105,4014.15
902.376,4010.3
902.648,4006.25
902.92,4009.0
903.191,4006.8
903.463,3999.5
903.735,4004.7
904.006,4008.65
904.278,4007.65
904.55,4008.75
904.821,4000.25
905.093,3999.45
905.365,3999.7
905.636,3992.5
905.908,3990.85
906.179,3988.9
906.451,3986.5
906.722,3988.15
906.994,3985.3
907.266,3984.65
907.537,3980.45
907.809,3990.4
908.08,3988.6
908.352,3984.85
908.623,3980.75
908.895,3972.1
909.166,3970.15
909.438,3973.0
909.709,3973.05
909.981,3971.8
910.252,3967.85
910.523,3963.55
910.795,3966.85
911.066,3970.6
911.338,3964.8
911.609,3965.95
911.881,3973.3
912.152,3968.7
912.423,3961.55
912.695,3964.1
912.966,3955.75
913.237,3959.6
913.509,3956.75
913.78,3949.3
914.051,3950.55
914.323,3951.2
914.594,3950.1
914.865,3952.2
915.136,3951.55
915.408,3952.0
915.679,3950.55
915.95,3942.25
916.221,3939.1
916.493,3942.55
916.764,3948.9
917.035,3940.5
917.306,3937.0
917.578,3949.15
917.849,3944.25
918.12,3942.45
918.391,3944.65
918.662,3938.35
918.933,3935.2
919.204,3936.85
919.476,3936.85
919.747,3936.95
920.018,3935.45
920.289,3937.0
920.56,3931.5
920.831,3928.35
921.102,3924.65
921.373,3922.65
921.644,3924.2
921.915,3926.9
922.186,3924.05
922.457,3926.05
922.728,3920.5
922.999,3921.15
923.27,3917.95
923.541,3919.5
923.812,3919.6
924.083,3920.95
924.354,3919.45
924.625,3915.15
924.896,3912.3
925.167,3910.65
925.438,3910.75
925.709,3913.8
925.98,3911.9
926.251,3907.6
926.522,3904.15
926.792,3905.15
927.063,3906.05
927.334,3903.75
927.605,3900.7
927.876,3902.4
928.147,3898.0
928.417,3897.6
928.688,3902.9
928.959,3902.2
929.23,3898.15
929.501,3895.75
929.771,3892.3
930.042,3887.95
930.313,3883.7
930.584,3882.45
930.854,3883.0
931.125,3885.95
931.396,3886.45
931.666,3884.8
931.937,3887.75
932.208,3883.05
932.478,3881.4
932.749,3877.6
933.02,3879.85
933.29,3880.7
933.561,3877.5
933.832,3874.5
934.102,3875.25
934.373,3877.25
934.643,3872.85
934.914,3871.25
935.184,3871.3
935.455,3870.2
935.726,3869.55
935.996,3871.7
936.267,3867.7
936.537,3868.2
936.808,3866.0
937.078,3863.8
937.349,3867.0
937.619,3865.1
937.89,3867.6
938.16,3865.3
938.43,3866.05
938.701,3864.2
938.971,3858.85
939.242,3860.5
939.512,3863.4
939.782,3861.05
940.053,3861.55
940.323,3859.35
940.594,3862.3
940.864,3858.1
941.134,3856.8
941.405,3860.35
941.675,3858.25
941.945,3857.45
942.216,3855.6
942.486,3853.85
942.756,3855.5
943.026,3854.8
943.297,3850.7
943.567,3853.55
943.837,3853.5
944.107,3850.8
944.378,3848.8
944.648,3850.75
944.918,3847.2
945.188,3844.15
945.458,3848.35
945.729,3847.05
945.999,3846.1
946.269,3849.2
946.539,3848.8
946.809,3848.55
947.079,3844.25
947.349,3846.15
947.62,3843.65
947.89,3844.7
948.16,3842.2
948.43,3843.2
948.7,3843.35
948.97,3842.2
949.24,3841.7
949.51,3839.25
949.78,3841.15
950.05,3841.6
950.32,3839.25
950.59,3839.25
950.86,3841.3
951.13,3840.0
951.4,3835.85
951.67,3838.45
951.94,3836.9
952.21,3839.55
952.48,3837.3
952.75,3836.1
953.02,3834.8
953.289,3837.0
953.559,3834.35
953.829,3831.15
954.099,3831.35
954.369,3831.9
954.639,3834.7
954.909,3830.45
955.178,3830.45
955.448,3830.4
955.718,3830.15
955.988,3831.15
956.257,3829.3
956.527,3831.2
956.797,3829.55
957.067,3827.7
957.336,3827.95
957.606,3829.85
957.876,3828.55
958.146,3828.1
958.415,3827.0
958.685,3825.5
958.955,3827.5
959.224,3826.05
959.494,3826.05
959.764,3824.95
960.033,3822.9
960.303,3824.3
960.572,3826.45
960.842,3825.0
961.112,3821.35
961.381,3822.4
961.651,3824.25
961.92,3820.1
962.19,3822.45
962.459,3823.05
962.729,3823.4
962.998,3821.95
963.268,3819.8
963.537,3821.6
963.807,3822.1
964.076,3821.35
964.346,3819.45
964.615,3819.6
964.885,3819.1
965.154,3819.8
965.424,3819.05
965.693,3818.25
965.962,3818.05
966.232,3816.75
966.501,3818.95
966.771,3819.35
967.04,3818.6
967.309,3817.9
967.579,3816.4
967.848,3815.55
968.117,3816.7
968.387,3817.05
968.656,3815.95
968.925,3820.55
969.194,3815.35
969.464,3816.55
969.733,3817.35
970.002,3814.75
970.271,3813.65
970.541,3814.95
970.81,3812.2
971.079,3814.9
971.348,3813.7
971.617,3813.85
971.887,3812.7
972.156,3812.75
972.425,3813.8
972.694,3815.0
972.963,3810.4
973.232,3810.1
973.501,3810.65
973.77,3809.75
974.04,3809.8
974.309,3809.35
974.578,3811.15
974.847,3809.9
975.116,3809.15
975.385,3807.45
975.654,3810.85
975.923,3807.4
976.192,3810.4
976.461,3808.35
976.73,3807.7
976.999,3804.75
977.268,3806.8
977.537,3805.9
977.806,3804.85
978.074,3808.3
978.343,3807.1
978.612,3807.05
978.881,3808.05
979.15,3807.55
979.419,3806.7
979.688,3807.15
979.957,3804.95
980.225,3806.45
980.494,3804.65
980.763,3805.3
981.032,3806.85
981.301,3805.25
981.569,3804.1
981.838,3804.6
982.107,3804.4
982.376,3805.8
982.644,3804.55
982.913,3804.25
983.182,3805.85
983.451,3803.95
983.719,3802.55
983.988,3801.55
984.257,3802.6
984.525,3802.8
984.794,3802.05
985.063,3802.7
985.331,3802.65
985.6,3802.5
985.868,3802.3
986.137,3803.0
986.406,3802.0
986.674,3801.25
986.943,3800.25
987.211,3801.7
987.48,3802.15
987.748,3800.8
988.017,3800.75
988.285,3799.9
988.554,3800.2
988.822,3800.6
989.091,3799.8
989.359,3798.45
989.628,3799.85
989.896,3798.95
990.164,3799.0
990.433,3799.7
990.701,3799.0
990.97,3797.5
991.238,3799.35
991.506,3798.2
991.775,3799.95
992.043,3798.8
992.311,3799.9
992.58,3798.25
992.848,3798.2
993.116,3797.2
993.385,3797.2
993.653,3798.45
993.921,3797.85
994.19,3797.4
994.458,3798.5
994.726,3796.05
994.994,3797.1
995.262,3796.75
995.531,3796.05
995.799,3797.8
996.067,3798.15
996.335,3796.55
996.603,3795.55
996.872,3796.1
997.14,3796.0
997.408,3796.05
997.676,3795.45
997.944,3796.65
998.212,3796.3
998.48,3796.25
998.748,3796.15
999.016,3794.2
999.284,3795.3
999.552,3795.05
999.82,3795.45
1000.09,3793.8
1000.36,3795.6
1000.62,3794.6
1000.89,3793.05
1001.16,3793.35
1001.43,3792.0
1001.7,3791.4
1001.96,3792.05
1002.23,3792.4
1002.5,3793.4
1002.77,3792.7
1003.04,3792.15
1003.3,3791.55
1003.57,3791.25
1003.84,3793.35
1004.11,3789.7
1004.38,3791.0
1004.64,3790.6
1004.91,3790.8
1005.18,3791.6
1005.45,3790.9
1005.71,3789.25
1005.98,3792.5
1006.25,3789.05
1006.52,3790.3
1006.79,3788.7
1007.05,3791.7
1007.32,3789.4
1007.59,3790.95
1007.86,3790.2
1008.12,3791.9
1008.39,3791.4
1008.66,3791.7
1008.93,3790.35
1009.19,3793.15
1009.46,3792.9
1009.73,3791.95
1010.0,3793.55
1010.26,3792.1
1010.53,3792.65
1010.8,3795.0
1011.07,3795.2
1011.33,3795.9
1011.6,3793.6
1011.87,3794.75
1012.14,3796.25
1012.4,3797.1
1012.67,3796.35
1012.94,3797.5
1013.21,3798.7
1013.47,3797.3
1013.74,3798.85
1014.01,3802.4
1014.28,3801.2
1014.54,3799.0
1014.81,3801.8
1015.08,3798.55
1015.35,3800.4
1015.61,3800.6
1015.88,3797.95
1016.15,3799.75
1016.42,3796.8
1016.68,3798.85
1016.95,3799.7
1017.22,3794.55
1017.48,3795.55
1017.75,3798.85
1018.02,3794.9
1018.29,3794.25
1018.55,3794.05
1018.82,3793.25
1019.09,3792.95
1019.36,3792.45
1019.62,3792.1
1019.89,3789.8
1020.16,3791.35
1020.42,3788.85
1020.69,3789.05
1020.96,3790.3
1021.23,3790.1
1021.49,3789.1
1021.76,3788.2
1022.03,3787.4
1022.29,3789.2
1022.56,3787.4
1022.83,3788.65
1023.09,3788.45
1023.36,3788.05
1023.63,3786.0
1023.9,3786.35
1024.16,3785.75
1024.43,3785.4
1024.7,3784.45
1024.96,3785.7
1025.23,3785.75
1025.5,3785.35
1025.76,3783.8
1026.03,3783.5
1026.3,3782.85
1026.56,3784.25
1026.83,3782.5
1027.1,3781.15
1027.37,3782.4
1027.63,3782.2
1027.9,3783.0
1028.17,3783.3
1028.43,3782.75
1028.7,3782.35
1028.97,3783.0
1029.23,3781.35
1029.5,3782.4
1029.77,3782.35
1030.03,3781.9
1030.3,3780.85
1030.57,3782.0
1030.83,3780.4
1031.1,3780.85
1031.37,3781.2
1031.63,3782.3
1031.9,3781.2
1032.17,3780.6
1032.43,3781.35
1032.7,3782.95
1032.97,3783.85
1033.23,3781.8
1033.5,3782.45
1033.77,3780.05
1034.03,3780.95
1034.3,3780.85
1034.57,3781.1
1034.83,3781.75
1035.1,3781.3
1035.36,3780.6
1035.63,3780.25
1035.9,3779.7
1036.16,3780.9
1036.43,3780.25
1036.7,3781.25
1036.96,3782.1
1037.23,3780.4
1037.5,3780.1
1037.76,3780.95
1038.03,3780.85
1038.3,3780.65
1038.56,3781.1
1038.83,3779.15
1039.09,3780.8
1039.36,3779.45
1039.63,3779.8
1039.89,3780.0
1040.16,3780.2
1040.43,3778.6
1040.69,3782.0
1040.96,3781.8
1041.22,3780.75
1041.49,3780.05
1041.76,3780.85
1042.02,3780.55
1042.29,3780.55
1042.55,3778.95
1042.82,3778.0
1043.09,3779.7
1043.35,3778.7
1043.62,3779.7
1043.89,3780.25
1044.15,3778.7
1044.42,3779.85
1044.68,3780.45
1044.95,3779.9
1045.22,3779.3
1045.48,3780.1
1045.75,3780.75
1046.01,3778.45
1046.28,3778.5
1046.55,3779.4
1046.81,3778.1
1047.08,3780.05
1047.34,3780.5
1047.61,3778.9
1047.88,3780.7
1048.14,3779.95
1048.41,3778.95
1048.67,3778.1
1048.94,3778.9
1049.2,3776.8
1049.47,3778.35
1049.74,3778.9
1050.0,3777.85
1050.27,3779.0
1050.53,3778.6
1050.8,3779.3
1051.06,3778.5
1051.33,3777.8
1051.6,3778.65
1051.86,3779.3
1052.13,3779.55
1052.39,3779.0
1052.66,3777.85
1052.92,3779.5
1053.19,3778.2
1053.46,3779.35
1053.72,3779.75
1053.99,3777.75
1054.25,3779.65
1054.52,3778.5
1054.78,3779.7
1055.05,3778.85
1055.32,3778.9
1055.58,3778.65
1055.85,3777.85
1056.11,3779.1
1056.38,3778.55
1056.64,3779.1
1056.91,3778.85
1057.17,3778.1
1057.44,3779.65
1057.7,3779.65
1057.97,3778.75
1058.24,3780.3
1058.5,3778.4
1058.77,3778.5
1059.03,3778.5
1059.3,3778.6
1059.56,3777.7
1059.83,3779.5
1060.09,3779.0
1060.36,3779.0
1060.62,3779.0
1060.89,3778.65
1061.15,3778.05
1061.42,3777.7
1061.68,3777.8
1061.95,3777.9
1062.22,3777.8
1062.48,3777.7
1062.75,3777.45
1063.01,3777.3
1063.28,3777.0
1063.54,3777.55
1063.81,3778.4
1064.07,3778.65
1064.34,3777.15
1064.6,3779.3
1064.87,3778.6
1065.13,3778.35
1065.4,3778.1
1065.66,3778.05
1065.93,3776.65
1066.19,3777.8
1066.46,3778.5
1066.72,3778.55
1066.99,3777.9
1067.25,3778.25
1067.52,3778.45
1067.78,3776.6
1068.05,3777.85
