nm,Intensity
526.553,836.3
526.69,835.96
526.827,835.86
526.963,835.82
527.1,835.78
527.237,836.1
527.373,836.46
527.51,835.84
527.647,836.2
527.784,836.42
527.92,835.82
528.057,836.2
528.194,835.88
528.33,835.62
528.467,835.8
528.603,835.96
528.74,835.82
528.877,835.76
529.013,835.64
529.15,836.24
529.286,835.98
529.423,835.74
529.56,836.16
529.696,835.84
529.833,836.26
529.969,835.38
530.106,836.04
530.242,835.2
530.379,835.94
530.515,835.34
530.652,835.72
530.788,836.08
530.925,835.72
531.061,835.26
531.198,836.0
531.334,836.0
531.47,835.5
531.607,835.6
531.743,835.96
531.88,836.1
532.016,840.58
532.152,856.9
532.289,850.38
532.425,838.12
532.562,836.52
532.698,835.84
532.834,835.56
532.971,835.8
533.107,835.86
533.243,835.72
533.38,835.82
533.516,836.02
533.652,836.86
533.789,849.36
533.925,889.22
534.061,934.72
534.197,951.94
534.334,955.86
534.47,955.28
534.606,956.56
534.742,960.98
534.879,960.78
535.015,959.16
535.151,962.62
535.287,962.1
535.423,963.18
535.56,965.36
535.696,964.7
535.832,965.54
535.968,966.06
536.104,965.04
536.24,965.36
536.376,966.8
536.513,967.44
536.649,969.14
536.785,969.52
536.921,969.34
537.057,973.78
537.193,974.54
537.329,976.42
537.465,975.64
537.601,975.38
537.737,973.66
537.873,975.6
538.009,976.96
538.145,978.42
538.281,975.42
538.417,980.38
538.553,979.88
538.689,979.44
538.825,978.4
538.961,980.88
539.097,978.08
539.233,982.16
539.369,983.0
539.505,983.78
539.641,983.52
539.777,985.98
539.913,984.8
540.049,986.0
540.185,987.02
540.321,986.56
540.457,988.6
540.592,987.52
540.728,988.4
540.864,992.14
541.0,989.62
541.136,992.78
541.272,994.24
541.408,994.76
541.543,996.14
541.679,996.54
541.815,998.34
541.951,996.8
542.087,998.1
542.222,995.28
542.358,998.38
542.494,998.88
542.63,1002.1
542.765,1001.1
542.901,1001.56
543.037,1002.12
543.173,1005.6
543.308,1003.42
543.444,1005.38
543.58,1010.3
543.715,1012.68
543.851,1011.12
543.987,1008.32
544.123,1008.02
544.258,1009.68
544.394,1010.66
544.529,1010.66
544.665,1011.24
544.801,1011.12
544.936,1014.2
545.072,1014.42
545.208,1014.94
545.343,1015.32
545.479,1015.88
545.614,1018.22
545.75,1015.24
545.886,1021.02
546.021,1023.5
546.157,1020.7
546.292,1021.16
546.428,1020.94
546.563,1022.96
546.699,1021.02
546.834,1026.16
546.97,1025.88
547.105,1024.7
547.241,1026.76
547.376,1027.5
547.512,1025.36
547.647,1028.94
547.783,1029.64
547.918,1028.06
548.054,1029.64
548.189,1025.64
548.325,1030.92
548.46,1031.04
548.595,1031.58
548.731,1032.94
548.866,1033.24
549.002,1034.6
549.137,1034.34
549.272,1036.52
549.408,1038.92
549.543,1038.56
549.679,1037.76
549.814,1035.68
549.949,1037.12
550.085,1040.54
550.22,1040.34
550.355,1040.34
550.491,1040.6
550.626,1042.56
550.761,1041.12
550.896,1042.08
551.032,1043.5
551.167,1046.04
551.302,1044.3
551.438,1044.48
551.573,1046.7
551.708,1045.76
551.843,1047.18
551.979,1047.9
552.114,1047.82
552.249,1050.66
552.384,1052.04
552.519,1048.88
552.655,1050.4
552.79,1050.96
552.925,1051.66
553.06,1052.1
553.195,1053.92
553.331,1051.98
553.466,1054.76
553.601,1052.24
553.736,1054.22
553.871,1059.34
554.006,1057.38
554.141,1056.4
554.276,1056.42
554.412,1057.82
554.547,1061.96
554.682,1060.76
554.817,1059.68
554.952,1058.46
555.087,1059.96
555.222,1059.46
555.357,1061.74
555.492,1063.28
555.627,1060.26
555.762,1062.24
555.897,1062.44
556.032,1069.78
556.167,1071.6
556.302,1069.06
556.437,1065.24
556.572,1066.24
556.707,1068.08
556.842,1068.66
556.977,1069.04
557.112,1074.04
557.247,1073.76
557.382,1068.06
557.517,1070.12
557.652,1070.86
557.787,1069.82
557.922,1069.46
558.057,1069.28
558.192,1068.7
558.327,1072.72
558.462,1070.14
558.596,1070.26
558.731,1068.8
558.866,1071.92
559.001,1072.28
559.136,1073.1
559.271,1076.36
559.406,1073.8
559.54,1076.56
559.675,1076.18
559.81,1076.5
559.945,1078.46
560.08,1082.02
560.215,1083.84
560.349,1079.6
560.484,1082.12
560.619,1085.7
560.754,1082.94
560.889,1082.78
561.023,1084.16
561.158,1086.08
561.293,1088.14
561.428,1085.5
561.562,1081.44
561.697,1084.06
561.832,1081.64
561.966,1088.92
562.101,1086.76
562.236,1088.9
562.371,1087.6
562.505,1085.08
562.64,1090.74
562.775,1089.18
562.909,1088.9
563.044,1092.98
563.179,1093.66
563.313,1096.6
563.448,1096.56
563.583,1096.34
563.717,1096.56
563.852,1097.04
563.986,1099.14
564.121,1098.0
564.256,1101.34
564.39,1100.0
564.525,1098.1
564.659,1103.28
564.794,1101.96
564.929,1102.28
565.063,1105.12
565.198,1105.66
565.332,1103.84
565.467,1107.48
565.601,1104.86
565.736,1108.2
565.87,1107.44
566.005,1107.48
566.139,1106.72
566.274,1104.24
566.408,1107.54
566.543,1107.68
566.677,1107.58
566.812,1109.5
566.946,1111.02
567.081,1112.14
567.215,1110.24
567.35,1111.78
567.484,1113.66
567.619,1112.32
567.753,1111.58
567.888,1111.98
568.022,1110.24
568.156,1111.3
568.291,1111.24
568.425,1113.38
568.56,1116.56
568.694,1119.32
568.828,1117.82
568.963,1118.38
569.097,1123.18
569.231,1117.22
569.366,1123.7
569.5,1123.5
569.635,1121.14
569.769,1125.42
569.903,1122.3
570.038,1123.86
570.172,1122.12
570.306,1124.96
570.441,1123.88
570.575,1123.24
570.709,1124.72
570.843,1125.78
570.978,1121.58
571.112,1122.62
571.246,1124.68
571.38,1124.56
571.515,1126.56
571.649,1127.14
571.783,1127.6
571.917,1131.84
572.052,1130.82
572.186,1130.2
572.32,1132.54
572.454,1131.52
572.589,1135.26
572.723,1137.58
572.857,1137.0
572.991,1137.56
573.125,1134.96
573.26,1137.28
573.394,1135.68
573.528,1140.16
573.662,1142.14
573.796,1145.14
573.93,1141.28
574.064,1140.0
574.199,1141.32
574.333,1142.16
574.467,1140.06
574.601,1140.48
574.735,1141.26
574.869,1141.98
575.003,1143.48
575.137,1143.48
575.271,1143.52
575.406,1145.02
575.54,1145.82
575.674,1146.06
575.808,1145.58
575.942,1145.84
576.076,1149.96
576.21,1151.8
576.344,1149.38
576.478,1149.12
576.612,1149.16
576.746,1151.36
576.88,1158.0
577.014,1158.8
577.148,1154.78
577.282,1154.16
577.416,1156.74
577.55,1155.6
577.684,1158.52
577.818,1155.18
577.952,1154.92
578.086,1155.7
578.22,1153.64
578.354,1156.88
578.488,1154.66
578.622,1156.0
578.756,1157.74
578.89,1157.1
579.023,1157.62
579.157,1159.96
579.291,1157.08
579.425,1156.0
579.559,1156.42
579.693,1159.72
579.827,1158.42
579.961,1161.88
580.095,1160.1
580.228,1160.34
580.362,1158.52
580.496,1161.58
580.63,1158.82
580.764,1161.12
580.898,1160.02
581.032,1160.52
581.165,1162.64
581.299,1160.44
581.433,1160.94
581.567,1167.68
581.701,1163.42
581.834,1165.7
581.968,1165.24
582.102,1165.2
582.236,1167.72
582.37,1168.06
582.503,1169.24
582.637,1163.44
582.771,1168.12
582.905,1170.6
583.038,1170.78
583.172,1175.64
583.306,1171.04
583.44,1170.76
583.573,1173.24
583.707,1172.54
583.841,1170.22
583.974,1174.62
584.108,1174.16
584.242,1174.32
584.375,1173.86
584.509,1173.58
584.643,1176.66
584.777,1171.32
584.91,1174.62
585.044,1177.0
585.177,1175.36
585.311,1175.74
585.445,1179.32
585.578,1175.86
585.712,1179.88
585.846,1179.42
585.979,1180.44
586.113,1182.06
586.247,1182.94
586.38,1182.02
586.514,1181.38
586.647,1182.22
586.781,1186.62
586.914,1186.28
587.048,1185.66
587.182,1182.94
587.315,1187.7
587.449,1188.22
587.582,1186.82
587.716,1183.82
587.849,1186.36
587.983,1185.32
588.116,1184.9
588.25,1185.92
588.384,1183.24
588.517,1183.76
588.651,1182.76
588.784,1182.54
588.918,1184.98
589.051,1181.94
589.185,1181.72
589.318,1183.56
589.452,1183.46
589.585,1184.14
589.718,1181.08
589.852,1182.94
589.985,1184.94
590.119,1183.12
590.252,1185.08
590.386,1188.34
590.519,1186.02
590.653,1187.44
590.786,1186.04
590.919,1188.28
591.053,1186.68
591.186,1188.64
591.32,1190.98
591.453,1187.78
591.586,1188.68
591.72,1188.44
591.853,1188.66
591.987,1185.78
592.12,1188.04
592.253,1185.04
592.387,1189.98
592.52,1189.5
592.653,1186.84
592.787,1190.74
592.92,1188.1
593.053,1186.54
593.187,1187.34
593.32,1187.94
593.453,1187.68
593.587,1186.88
593.72,1191.52
593.853,1186.3
593.987,1187.1
594.12,1188.4
594.253,1189.12
594.386,1189.28
594.52,1187.9
594.653,1189.24
594.786,1188.48
594.919,1192.76
595.053,1195.12
595.186,1190.86
595.319,1193.32
595.452,1192.48
595.586,1193.72
595.719,1193.76
595.852,1195.98
595.985,1197.46
596.119,1195.46
596.252,1195.86
596.385,1193.96
596.518,1194.0
596.651,1196.18
596.785,1195.28
596.918,1195.9
597.051,1198.4
597.184,1196.2
597.317,1195.44
597.45,1195.32
597.584,1194.56
597.717,1197.18
597.85,1199.68
597.983,1200.7
598.116,1198.38
598.249,1200.08
598.382,1200.96
598.516,1200.96
598.649,1203.62
598.782,1203.24
598.915,1201.58
599.048,1203.54
599.181,1203.46
599.314,1203.68
599.447,1201.62
599.58,1201.54
599.713,1199.98
599.847,1200.32
599.98,1203.22
600.113,1201.08
600.246,1198.88
600.379,1196.02
600.512,1199.1
600.645,1196.92
600.778,1197.48
600.911,1194.8
601.044,1194.14
601.177,1195.68
601.31,1197.54
601.443,1195.86
601.576,1192.42
601.709,1193.76
601.842,1195.7
601.975,1195.7
602.108,1197.5
602.241,1198.34
602.374,1194.56
602.507,1200.56
602.64,1196.66
602.773,1199.72
602.906,1199.18
603.039,1197.4
603.172,1198.22
603.305,1198.8
603.438,1198.74
603.571,1198.92
603.703,1200.56
603.836,1199.12
603.969,1197.92
604.102,1197.16
604.235,1200.56
604.368,1197.44
604.501,1195.36
604.634,1197.14
604.767,1196.6
604.9,1193.94
605.033,1193.64
605.165,1190.5
605.298,1192.16
605.431,1188.86
605.564,1188.0
605.697,1187.12
605.83,1187.5
605.963,1186.54
606.095,1186.08
606.228,1185.76
606.361,1185.66
606.494,1185.12
606.627,1187.8
606.76,1187.58
606.892,1186.6
607.025,1187.36
607.158,1185.68
607.291,1187.78
607.424,1190.34
607.556,1187.72
607.689,1190.7
607.822,1188.0
607.955,1189.92
608.088,1192.1
608.22,1192.38
608.353,1192.96
608.486,1191.42
608.619,1188.62
608.751,1191.04
608.884,1192.46
609.017,1191.4
609.15,1193.4
609.282,1193.86
609.415,1192.28
609.548,1191.44
609.681,1189.48
609.813,1191.48
609.946,1188.54
610.079,1191.64
610.211,1192.22
610.344,1188.4
610.477,1190.18
610.609,1187.02
610.742,1187.72
610.875,1188.38
611.007,1189.8
611.14,1188.68
611.273,1189.74
611.405,1190.42
611.538,1188.94
611.671,1188.84
611.803,1188.2
611.936,1189.5
612.069,1189.72
612.201,1193.86
612.334,1193.6
612.467,1197.22
612.599,1193.74
612.732,1194.88
612.864,1197.48
612.997,1196.64
613.13,1196.08
613.262,1197.42
613.395,1198.82
613.527,1198.44
613.66,1199.66
613.793,1201.54
613.925,1200.56
614.058,1199.52
614.19,1197.0
614.323,1197.4
614.456,1200.72
614.588,1200.68
614.721,1198.22
614.853,1198.28
614.986,1199.54
615.118,1197.16
615.251,1193.14
615.383,1197.68
615.516,1195.86
615.648,1191.32
615.781,1195.58
615.913,1194.34
616.046,1192.34
616.178,1190.76
616.311,1192.3
616.443,1194.34
616.576,1193.92
616.708,1197.78
616.841,1194.64
616.973,1192.92
617.106,1197.06
617.238,1198.54
617.371,1197.14
617.503,1193.58
617.636,1195.66
617.768,1196.06
617.901,1196.5
618.033,1193.6
618.166,1195.84
618.298,1198.56
618.43,1194.12
618.563,1195.14
618.695,1195.14
618.828,1198.02
618.96,1196.66
619.093,1195.4
619.225,1194.86
619.357,1193.32
619.49,1196.58
619.622,1190.78
619.755,1193.82
619.887,1192.64
620.019,1196.14
620.152,1192.74
620.284,1194.82
620.417,1193.5
620.549,1192.3
620.681,1192.14
620.814,1190.68
620.946,1191.82
621.078,1194.22
621.211,1190.28
621.343,1192.88
621.475,1188.94
621.608,1188.68
621.74,1189.76
621.872,1192.6
622.005,1192.5
622.137,1192.78
622.269,1192.4
622.402,1196.1
622.534,1197.04
622.666,1194.0
622.799,1194.28
622.931,1193.84
623.063,1196.26
623.195,1194.62
623.328,1191.14
623.46,1194.88
623.592,1194.8
623.725,1192.14
623.857,1194.5
623.989,1193.68
624.121,1193.86
624.254,1194.34
624.386,1193.58
624.518,1193.96
624.65,1193.5
624.783,1195.5
624.915,1193.84
625.047,1195.24
625.179,1192.7
625.312,1193.6
625.444,1189.64
625.576,1192.06
625.708,1193.62
625.841,1188.94
625.973,1189.78
626.105,1188.12
626.237,1191.66
626.369,1190.02
626.502,1191.16
626.634,1194.44
626.766,1197.64
626.898,1201.56
627.03,1208.38
627.163,1200.38
627.295,1196.06
627.427,1192.36
627.559,1194.76
627.691,1198.64
627.823,1198.06
627.956,1206.36
628.088,1209.8
628.22,1205.12
628.352,1210.76
628.484,1214.46
628.616,1222.18
628.748,1216.52
628.881,1214.48
629.013,1207.2
629.145,1207.02
629.277,1207.04
629.409,1207.3
629.541,1210.94
629.673,1206.66
629.805,1201.08
629.937,1200.54
630.07,1201.58
630.202,1201.24
630.334,1200.12
630.466,1198.94
630.598,1193.96
630.73,1196.62
630.862,1192.3
630.994,1191.54
631.126,1190.92
631.258,1195.92
631.39,1200.64
631.522,1198.24
631.655,1198.76
631.787,1199.3
631.919,1196.32
632.051,1196.58
632.183,1187.18
632.315,1186.6
632.447,1184.06
632.579,1180.5
632.711,1180.9
632.843,1176.88
632.975,1178.58
633.107,1175.62
633.239,1177.66
633.371,1177.86
633.503,1175.32
633.635,1175.28
633.767,1173.14
633.899,1171.04
634.031,1173.0
634.163,1172.12
634.295,1173.7
634.427,1172.32
634.559,1173.0
634.691,1168.82
634.823,1173.84
634.955,1170.9
635.087,1170.46
635.219,1169.6
635.351,1169.76
635.483,1168.26
635.615,1171.46
635.747,1172.42
635.879,1172.68
636.011,1174.3
636.143,1166.54
636.275,1173.4
636.406,1168.88
636.538,1166.66
636.67,1171.1
636.802,1168.3
636.934,1169.9
637.066,1166.56
637.198,1169.28
637.33,1166.7
637.462,1165.88
637.594,1163.46
637.726,1166.74
637.858,1168.82
637.989,1165.84
638.121,1166.12
638.253,1166.56
638.385,1165.06
638.517,1166.86
638.649,1164.88
638.781,1162.72
638.913,1163.3
639.045,1168.08
639.176,1168.16
639.308,1166.82
639.44,1165.48
639.572,1162.26
639.704,1161.84
639.836,1163.28
639.968,1159.16
640.1,1161.28
640.231,1160.08
640.363,1164.56
640.495,1160.28
640.627,1160.9
640.759,1160.62
640.891,1160.2
641.022,1160.18
641.154,1160.88
641.286,1158.54
641.418,1156.58
641.55,1160.0
641.682,1158.78
641.813,1158.74
641.945,1157.68
642.077,1157.98
642.209,1157.86
642.341,1155.76
642.472,1158.2
642.604,1155.9
642.736,1152.9
642.868,1153.98
643.0,1153.02
643.131,1152.94
643.263,1149.78
643.395,1147.98
643.527,1148.92
643.658,1146.98
643.79,1147.98
643.922,1149.26
644.054,1145.7
644.186,1143.28
644.317,1148.56
644.449,1142.1
644.581,1142.12
644.713,1144.3
644.844,1145.12
644.976,1140.16
645.108,1143.74
645.24,1142.66
645.371,1139.92
645.503,1140.92
645.635,1140.98
645.767,1139.4
645.898,1141.04
646.03,1137.78
646.162,1140.22
646.293,1138.5
646.425,1137.92
646.557,1137.1
646.689,1142.14
646.82,1139.36
646.952,1136.62
647.084,1136.26
647.215,1139.24
647.347,1139.52
647.479,1136.1
647.61,1139.42
647.742,1135.56
647.874,1135.44
648.006,1136.08
648.137,1136.56
648.269,1133.6
648.401,1134.66
648.532,1136.32
648.664,1134.1
648.796,1133.54
648.927,1132.24
649.059,1132.9
649.191,1133.88
649.322,1129.84
649.454,1128.34
649.586,1131.8
649.717,1126.6
649.849,1130.58
649.981,1127.42
650.112,1128.96
650.244,1129.54
650.375,1124.62
650.507,1129.42
650.639,1127.14
650.77,1125.88
650.902,1125.04
651.034,1125.46
651.165,1124.6
651.297,1127.68
651.429,1123.96
651.56,1126.22
651.692,1125.62
651.823,1125.68
651.955,1124.36
652.087,1125.98
652.218,1122.68
652.35,1127.12
652.481,1124.56
652.613,1121.94
652.745,1123.0
652.876,1122.04
653.008,1119.86
653.139,1122.68
653.271,1123.6
653.403,1120.44
653.534,1121.84
653.666,1123.84
653.797,1122.52
653.929,1121.5
654.061,1121.88
654.192,1119.22
654.324,1121.08
654.455,1118.96
654.587,1119.46
654.718,1120.8
654.85,1117.48
654.982,1117.72
655.113,1118.74
655.245,1115.88
655.376,1116.18
655.508,1115.44
655.639,1119.52
655.771,1113.26
655.902,1118.48
656.034,1115.94
656.166,1115.26
656.297,1111.02
656.429,1114.68
656.56,1111.48
656.692,1116.58
656.823,1113.14
656.955,1114.08
657.086,1114.14
657.218,1114.92
657.349,1114.02
657.481,1113.16
657.612,1117.88
657.744,1112.02
657.875,1114.78
658.007,1114.52
658.138,1114.78
658.27,1113.44
658.401,1114.14
658.533,1113.96
658.664,1116.5
658.796,1111.26
658.927,1112.44
659.059,1114.86
659.19,1111.18
659.322,1113.0
659.453,1113.38
659.585,1111.48
659.716,1110.32
659.848,1111.28
659.979,1111.66
660.111,1109.34
660.242,1111.02
660.374,1110.6
660.505,1107.72
660.637,1108.24
660.768,1110.64
660.9,1104.9
661.031,1106.74
661.163,1105.1
661.294,1105.06
661.426,1105.96
661.557,1101.8
661.689,1102.32
661.82,1105.76
661.951,1103.46
662.083,1103.74
662.214,1100.62
662.346,1101.24
662.477,1101.36
662.609,1101.16
662.74,1099.16
662.872,1098.68
663.003,1101.4
663.135,1098.1
