nm,Intensity
526.5,827.8
526.637,828.7
526.774,828.8
526.91,829.9
527.047,830.6
527.184,829.1
527.32,828.9
527.457,828.7
527.594,830.7
527.73,828.9
527.867,829.0
528.004,828.6
528.14,829.1
528.277,829.8
528.414,829.1
528.55,829.9
528.687,828.7
528.823,829.2
528.96,829.2
529.096,829.5
529.233,828.1
529.37,830.0
529.506,828.2
529.643,829.8
529.779,828.1
529.916,828.1
530.052,829.6
530.189,828.9
530.325,828.4
530.462,828.2
530.598,828.3
530.735,828.3
530.871,828.7
531.008,828.5
531.144,828.7
531.28,829.5
531.417,828.9
531.553,829.9
531.69,829.7
531.826,830.7
531.962,835.2
532.099,873.5
532.235,884.1
532.372,840.3
532.508,830.0
532.644,829.0
532.781,828.4
532.917,828.7
533.053,828.0
533.19,829.4
533.326,828.4
533.462,828.0
533.599,829.9
533.735,834.7
533.871,850.6
534.007,869.9
534.144,877.9
534.28,871.4
534.416,871.2
534.552,874.6
534.689,875.7
534.825,882.0
534.961,895.6
535.097,902.0
535.234,902.5
535.37,886.6
535.506,874.6
535.642,862.5
535.778,856.6
535.914,854.2
536.051,849.2
536.187,848.8
536.323,848.2
536.459,846.9
536.595,849.5
536.731,851.6
536.867,857.8
537.003,867.6
537.14,870.2
537.276,869.0
537.412,860.1
537.548,852.3
537.684,848.6
537.82,845.7
537.956,845.2
538.092,846.7
538.228,845.7
538.364,845.0
538.5,844.5
538.636,844.5
538.772,843.4
538.908,843.6
539.044,845.0
539.18,846.5
539.316,848.2
539.452,849.1
539.588,846.3
539.724,846.2
539.86,843.7
539.996,842.0
540.132,843.3
540.268,841.1
540.403,839.3
540.539,839.4
540.675,841.3
540.811,839.8
540.947,841.2
541.083,843.3
541.219,844.5
541.355,848.3
541.49,847.3
541.626,844.8
541.762,841.2
541.898,842.8
542.034,839.1
542.17,840.0
542.305,837.9
542.441,838.8
542.577,839.9
542.713,839.1
542.848,838.9
542.984,839.6
543.12,838.6
543.256,841.8
543.391,849.3
543.527,864.0
543.663,895.0
543.799,888.1
543.934,862.0
544.07,850.5
544.206,846.5
544.341,844.4
544.477,842.9
544.613,840.5
544.748,843.1
544.884,841.8
545.02,841.9
545.155,846.4
545.291,850.5
545.427,853.6
545.562,852.0
545.698,844.7
545.833,841.0
545.969,841.0
546.105,840.3
546.24,837.8
546.376,839.7
546.511,838.1
546.647,838.8
546.782,838.4
546.918,838.8
547.053,840.9
547.189,842.4
547.325,846.9
547.46,850.0
547.596,848.7
547.731,847.5
547.867,843.8
548.002,840.2
548.137,840.7
548.273,837.2
548.408,837.2
548.544,837.8
548.679,837.6
548.815,836.3
548.95,836.8
549.086,834.9
549.221,835.8
549.356,835.4
549.492,837.5
549.627,835.4
549.763,836.4
549.898,836.6
550.033,835.1
550.169,835.7
550.304,836.3
550.439,835.5
550.575,835.9
550.71,836.6
550.845,835.9
550.981,834.7
551.116,834.9
551.251,835.1
551.387,835.6
551.522,834.3
551.657,835.4
551.793,836.5
551.928,837.5
552.063,835.5
552.198,838.6
552.334,836.8
552.469,835.2
552.604,837.5
552.739,835.0
552.874,834.4
553.01,835.3
553.145,835.3
553.28,837.8
553.415,838.0
553.55,836.0
553.686,837.5
553.821,836.2
553.956,835.3
554.091,834.2
554.226,836.6
554.361,835.6
554.497,838.6
554.632,838.1
554.767,840.5
554.902,840.4
555.037,840.4
555.172,839.2
555.307,841.9
555.442,841.1
555.577,842.4
555.712,848.7
555.848,861.4
555.983,889.1
556.118,922.2
556.253,896.5
556.388,864.8
556.523,857.4
556.658,858.3
556.793,866.3
556.928,882.1
557.063,922.7
557.198,919.8
557.333,876.0
557.468,856.4
557.603,850.6
557.738,847.0
557.873,844.7
558.008,844.8
558.142,843.9
558.277,843.2
558.412,843.2
558.547,842.1
558.682,843.7
558.817,849.8
558.952,854.3
559.087,850.4
559.222,843.7
559.357,843.6
559.492,843.0
559.626,841.7
559.761,843.6
559.896,844.8
560.031,848.3
560.166,857.0
560.301,857.7
560.435,848.4
560.57,848.5
560.705,846.9
560.84,849.5
560.975,853.7
561.109,864.9
561.244,878.8
561.379,867.5
561.514,854.1
561.649,849.4
561.783,853.6
561.918,866.5
562.053,878.7
562.188,864.6
562.322,853.5
562.457,850.0
562.592,847.8
562.726,849.3
562.861,851.1
562.996,853.0
563.131,862.8
563.265,869.9
563.4,868.3
563.535,860.2
563.669,855.3
563.804,850.3
563.939,847.7
564.073,847.6
564.208,845.5
564.342,846.3
564.477,847.0
564.612,843.6
564.746,846.8
564.881,846.0
565.015,844.2
565.15,846.8
565.285,850.8
565.419,852.9
565.554,850.0
565.688,848.2
565.823,846.7
565.957,847.4
566.092,844.4
566.227,850.5
566.361,847.4
566.496,853.8
566.63,864.6
566.765,882.5
566.899,909.5
567.034,909.5
567.168,887.5
567.303,881.8
567.437,887.0
567.572,874.1
567.706,857.8
567.84,848.6
567.975,849.8
568.109,847.6
568.244,847.6
568.378,847.3
568.513,850.1
568.647,852.1
568.781,854.7
568.916,862.5
569.05,872.8
569.185,877.2
569.319,862.1
569.453,855.3
569.588,850.3
569.722,851.5
569.857,848.8
569.991,850.9
570.125,851.7
570.26,852.3
570.394,851.7
570.528,850.4
570.663,848.1
570.797,849.1
570.931,850.5
571.065,849.9
571.2,851.0
571.334,855.4
571.468,854.6
571.603,858.7
571.737,857.4
571.871,856.9
572.005,856.6
572.14,855.8
572.274,862.2
572.408,873.7
572.542,900.7
572.677,933.2
572.811,919.4
572.945,885.2
573.079,867.3
573.213,863.7
573.348,861.1
573.482,864.1
573.616,880.0
573.75,884.8
573.884,874.0
574.018,865.0
574.153,862.9
574.287,861.0
574.421,857.3
574.555,849.9
574.689,849.5
574.823,846.5
574.957,848.0
575.092,848.4
575.226,846.7
575.36,846.7
575.494,848.8
575.628,848.9
575.762,848.6
575.896,851.3
576.03,864.6
576.164,888.1
576.298,889.1
576.432,882.1
576.566,888.6
576.7,907.4
576.834,940.0
576.968,962.4
577.103,954.9
577.237,915.2
577.371,879.4
577.505,863.7
577.639,856.2
577.773,853.4
577.907,852.6
578.04,851.2
578.174,848.3
578.308,849.5
578.442,849.7
578.576,850.0
578.71,849.2
578.844,849.6
578.978,849.1
579.112,849.6
579.246,848.8
579.38,848.8
579.514,848.5
579.648,849.7
579.782,849.8
579.916,850.1
580.049,851.5
580.183,851.3
580.317,850.3
580.451,849.9
580.585,851.4
580.719,852.8
580.853,848.9
580.986,850.8
581.12,851.1
581.254,852.9
581.388,852.6
581.522,853.5
581.656,850.5
581.789,850.1
581.923,852.3
582.057,852.7
582.191,854.7
582.325,854.9
582.458,854.7
582.592,856.6
582.726,856.2
582.86,854.9
582.993,856.4
583.127,856.1
583.261,857.6
583.395,856.3
583.528,858.4
583.662,857.6
583.796,857.4
583.93,858.5
584.063,858.7
584.197,859.0
584.331,857.7
584.464,860.3
584.598,858.8
584.732,862.5
584.865,859.8
584.999,860.5
585.133,861.7
585.266,862.6
585.4,862.1
585.534,862.3
585.667,863.7
585.801,861.6
585.935,862.1
586.068,860.7
586.202,864.1
586.336,863.5
586.469,862.0
586.603,862.5
586.736,862.4
586.87,863.6
587.004,866.0
587.137,862.8
587.271,862.1
587.404,864.7
587.538,863.4
587.671,862.9
587.805,862.1
587.938,862.7
588.072,861.8
588.206,865.0
588.339,863.5
588.473,864.1
588.606,865.1
588.74,863.2
588.873,863.1
589.007,864.1
589.14,863.4
589.274,864.6
589.407,863.9
589.541,861.4
589.674,864.6
589.808,863.5
589.941,865.6
590.074,865.6
590.208,866.2
590.341,865.3
590.475,865.9
590.608,864.2
590.742,866.3
590.875,864.7
591.009,867.7
591.142,866.9
591.275,865.5
591.409,865.1
591.542,867.3
591.676,869.1
591.809,865.4
591.942,869.0
592.076,866.4
592.209,865.4
592.342,872.0
592.476,868.6
592.609,866.8
592.743,871.3
592.876,870.0
593.009,868.3
593.143,870.5
593.276,870.0
593.409,873.3
593.543,871.9
593.676,872.2
593.809,874.4
593.942,870.9
594.076,871.3
594.209,875.1
594.342,875.3
594.476,873.4
594.609,875.7
594.742,875.1
594.875,875.1
595.009,875.1
595.142,875.3
595.275,877.9
595.408,875.5
595.542,879.2
595.675,879.2
595.808,877.7
595.941,879.9
596.075,878.2
596.208,877.3
596.341,880.2
596.474,878.4
596.607,878.9
596.741,881.3
596.874,880.2
597.007,879.8
597.14,881.7
597.273,880.7
597.406,878.9
597.54,880.7
597.673,878.7
597.806,882.1
597.939,880.6
598.072,881.8
598.205,879.6
598.338,881.6
598.472,879.3
598.605,877.3
598.738,880.7
598.871,878.4
599.004,878.9
599.137,880.7
599.27,876.8
599.403,877.9
599.536,879.0
599.67,878.2
599.803,875.7
599.936,875.8
600.069,876.5
600.202,878.6
600.335,877.3
600.468,875.3
600.601,877.5
600.734,876.4
600.867,875.9
601.0,874.9
601.133,874.3
601.266,870.5
601.399,873.5
601.532,872.8
601.665,871.5
601.798,871.8
601.931,872.8
602.064,871.9
602.197,873.8
602.33,870.2
602.463,871.1
602.596,868.8
602.729,872.2
602.862,870.1
602.995,868.2
603.128,870.7
603.261,869.4
603.394,867.1
603.527,866.5
603.66,870.8
603.793,867.8
603.925,869.5
604.058,869.0
604.191,864.2
604.324,865.9
604.457,865.2
604.59,868.1
604.723,869.3
604.856,864.8
604.989,867.0
605.122,866.8
605.254,864.9
605.387,864.1
605.52,863.0
605.653,863.5
605.786,860.9
605.919,864.3
606.052,863.4
606.184,863.7
606.317,863.8
606.45,865.5
606.583,862.3
606.716,860.9
606.849,861.7
606.981,860.8
607.114,862.1
607.247,862.5
607.38,863.9
607.513,862.2
607.645,858.8
607.778,862.8
607.911,864.0
608.044,860.5
608.177,859.6
608.309,860.6
608.442,858.8
608.575,863.8
608.708,860.0
608.84,860.1
608.973,858.3
609.106,860.4
609.239,857.3
609.371,861.3
609.504,859.7
609.637,856.8
609.769,858.6
609.902,861.0
610.035,859.3
610.168,858.2
610.3,858.8
610.433,858.8
610.566,857.0
610.698,857.6
610.831,857.7
610.964,856.1
611.096,857.5
611.229,858.0
611.362,857.5
611.494,861.3
611.627,857.0
611.76,854.3
611.892,856.1
612.025,854.8
612.158,857.4
612.29,854.9
612.423,856.0
612.556,856.0
612.688,856.3
612.821,853.5
612.953,854.2
613.086,857.6
613.219,857.6
613.351,854.2
613.484,854.4
613.616,857.0
613.749,858.1
613.882,854.9
614.014,854.1
614.147,855.1
614.279,857.3
614.412,857.4
614.544,855.1
614.677,854.5
614.809,857.9
614.942,855.2
615.075,853.6
615.207,855.9
615.34,854.4
615.472,856.5
615.605,856.5
615.737,855.8
615.87,854.6
616.002,855.1
616.135,854.6
616.267,855.1
616.4,854.1
616.532,856.9
616.665,857.5
616.797,857.3
616.93,855.2
617.062,857.4
617.195,858.2
617.327,858.3
617.46,856.1
617.592,860.8
617.725,856.6
617.857,858.4
617.989,856.1
618.122,856.8
618.254,858.0
618.387,858.1
618.519,854.5
618.652,857.9
618.784,857.6
618.917,860.2
619.049,856.8
619.181,859.7
619.314,860.6
619.446,861.9
619.579,865.0
619.711,866.9
619.843,865.9
619.976,862.5
620.108,862.5
620.241,864.1
620.373,862.9
620.505,861.3
620.638,863.1
620.77,860.9
620.902,863.6
621.035,861.2
621.167,861.5
621.299,862.7
621.432,866.2
621.564,870.1
621.696,872.0
621.829,876.6
621.961,882.0
622.093,883.8
622.226,889.8
622.358,899.5
622.49,892.7
622.623,886.9
622.755,881.1
622.887,878.2
623.02,873.8
623.152,868.1
623.284,868.2
623.416,866.6
623.549,867.2
623.681,864.1
623.813,863.8
623.946,861.8
624.078,859.7
624.21,859.3
624.342,857.6
624.475,858.9
624.607,856.2
624.739,859.0
624.871,860.5
625.004,856.8
625.136,862.6
625.268,862.4
625.4,861.1
625.533,864.1
625.665,864.2
625.797,867.2
625.929,869.2
626.061,874.7
626.194,880.6
626.326,890.0
626.458,907.0
626.59,939.0
626.722,1013.0
626.855,1094.0
626.987,1127.6
627.119,1090.7
627.251,1020.8
627.383,977.7
627.516,963.6
627.648,976.4
627.78,1041.6
627.912,1166.6
628.044,1254.3
628.176,1260.0
628.308,1262.0
628.441,1333.0
628.573,1411.2
628.705,1458.5
628.837,1415.8
628.969,1350.2
629.101,1295.0
629.233,1272.7
629.366,1287.2
629.498,1328.7
629.63,1291.4
629.762,1213.3
629.894,1168.0
630.026,1157.2
630.158,1163.0
630.29,1179.1
630.422,1164.3
630.554,1113.3
630.687,1053.6
630.819,1005.9
630.951,1000.2
631.083,1014.6
631.215,1088.6
631.347,1157.2
631.479,1166.6
631.611,1142.3
631.743,1126.4
631.875,1099.2
632.007,1053.8
632.139,1007.2
632.271,967.3
632.403,933.9
632.535,909.2
632.667,897.4
632.799,886.6
632.931,879.2
633.063,875.0
633.195,872.5
633.328,870.3
633.46,868.7
633.592,867.1
633.724,863.5
633.856,863.9
633.988,861.8
634.12,859.0
634.252,856.9
634.384,858.5
634.516,858.0
634.647,857.8
634.779,856.2
634.911,854.7
635.043,855.4
635.175,853.1
635.307,854.1
635.439,856.8
635.571,854.5
635.703,857.3
635.835,856.1
635.967,857.4
636.099,855.2
636.231,856.9
636.363,855.5
636.495,853.6
636.627,854.3
636.759,856.4
636.891,854.0
637.023,857.5
637.155,850.1
637.286,854.9
637.418,854.9
637.55,852.4
637.682,855.8
637.814,853.8
637.946,855.2
638.078,854.2
638.21,854.7
638.342,854.5
638.474,857.3
638.605,855.8
638.737,855.6
638.869,853.4
639.001,856.6
639.133,857.8
639.265,857.9
639.397,857.6
639.529,855.3
639.66,856.1
639.792,857.2
639.924,856.1
640.056,854.1
640.188,857.1
640.32,857.5
640.452,856.7
640.583,855.8
640.715,855.5
640.847,853.1
640.979,854.0
641.111,854.9
641.243,858.4
641.374,857.6
641.506,856.2
641.638,856.0
641.77,856.5
641.902,855.8
642.033,855.3
642.165,856.7
642.297,854.6
642.429,854.9
642.561,854.1
642.692,854.6
642.824,856.2
642.956,855.1
643.088,853.0
643.22,852.8
643.351,855.3
643.483,852.8
643.615,852.6
643.747,853.6
643.878,853.6
644.01,852.9
644.142,852.6
644.274,852.9
644.405,849.9
644.537,854.4
644.669,853.5
644.801,851.9
644.932,852.9
645.064,853.9
645.196,852.7
645.328,851.4
645.459,852.9
645.591,853.4
645.723,852.7
645.854,852.7
645.986,851.9
646.118,854.8
646.25,850.6
646.381,852.5
646.513,851.7
646.645,852.8
646.776,852.6
646.908,853.5
647.04,852.5
647.172,853.0
647.303,853.4
647.435,851.7
647.567,852.4
647.698,853.2
647.83,854.4
647.962,854.1
648.093,853.8
648.225,852.1
648.357,853.3
648.488,855.3
648.62,851.8
648.752,854.2
648.883,851.5
649.015,851.4
649.147,852.4
649.278,854.6
649.41,853.8
649.542,854.3
649.673,853.7
649.805,853.5
649.937,851.5
650.068,854.9
650.2,853.5
650.331,852.5
650.463,852.4
650.595,854.7
650.726,853.5
650.858,852.5
650.99,851.2
651.121,851.9
651.253,852.8
651.384,852.5
651.516,851.8
651.648,851.2
651.779,852.2
651.911,849.3
652.042,851.7
652.174,850.2
652.306,852.0
652.437,849.9
652.569,853.1
652.7,848.4
652.832,851.8
652.963,852.8
653.095,850.5
653.227,852.8
653.358,849.7
653.49,850.7
653.621,849.4
653.753,846.3
653.884,849.3
654.016,851.3
654.148,850.0
654.279,847.1
654.411,848.9
654.542,849.8
654.674,849.9
654.805,847.8
654.937,848.1
655.068,847.9
655.2,848.6
655.331,846.1
655.463,847.2
655.595,846.9
655.726,847.5
655.858,846.7
655.989,847.8
656.121,849.1
656.252,846.8
656.384,849.4
656.515,845.7
656.647,848.8
656.778,846.7
656.91,848.4
657.041,846.2
657.173,847.5
657.304,846.0
657.436,845.6
657.567,845.8
657.699,844.8
657.83,847.6
657.962,843.6
658.093,849.0
658.225,847.7
658.356,844.6
658.488,846.8
658.619,845.6
658.751,846.9
658.882,844.7
659.013,846.4
659.145,846.0
659.276,844.9
659.408,846.6
659.539,843.9
659.671,844.8
659.802,844.8
659.934,844.1
660.065,842.8
660.197,843.7
660.328,843.8
660.459,843.3
660.591,844.1
660.722,846.4
660.854,843.3
660.985,846.2
661.117,845.4
661.248,843.7
661.38,843.2
661.511,843.2
661.642,844.0
661.774,844.4
661.905,843.5
662.037,843.7
662.168,846.2
662.299,842.1
662.431,843.6
662.562,843.2
662.694,843.0
662.825,843.0
662.957,841.8
663.088,842.5
