nm,Intensity
528.65,1841.3
528.734,1841.25
528.819,1842.45
528.903,1843.0
528.987,1842.4
529.071,1842.35
529.155,1841.85
529.239,1841.6
529.324,1842.4
529.408,1842.4
529.492,1842.9
529.576,1840.9
529.66,1842.25
529.745,1842.05
529.829,1842.05
529.913,1841.2
529.997,1842.3
530.081,1842.8
530.165,1843.35
530.25,1843.65
530.334,1842.55
530.418,1842.75
530.502,1843.75
530.586,1841.8
530.67,1842.5
530.754,1843.2
530.839,1843.5
530.923,1843.4
531.007,1843.55
531.091,1845.1
531.175,1846.15
531.259,1847.3
531.344,1847.55
531.428,1852.9
531.512,1857.0
531.596,1867.05
531.68,1906.2
531.764,2103.75
531.848,2846.65
531.933,4348.15
532.017,6076.25
532.101,6551.75
532.185,5484.45
532.269,3875.15
532.353,2365.35
532.437,1897.2
532.521,1848.35
532.606,1846.8
532.69,1845.35
532.774,1844.5
532.858,1845.4
532.942,1843.9
533.026,1845.2
533.11,1843.8
533.194,1844.65
533.279,1843.6
533.363,1846.3
533.447,1850.25
533.531,1859.6
533.615,1891.0
533.699,1949.75
533.783,2040.05
533.867,2113.7
533.951,2174.55
534.036,2197.15
534.12,2211.8
534.204,2202.0
534.288,2210.75
534.372,2191.35
534.456,2207.25
534.54,2224.05
534.624,2260.25
534.708,2300.1
534.792,2349.55
534.877,2389.0
534.961,2409.4
535.045,2454.45
535.129,2447.5
535.213,2421.25
535.297,2353.4
535.381,2265.3
535.465,2188.95
535.549,2139.6
535.633,2108.9
535.717,2078.7
535.801,2065.0
535.886,2053.85
535.97,2034.25
536.054,2027.45
536.138,2027.45
536.222,2029.85
536.306,2030.6
536.39,2032.7
536.474,2040.2
536.558,2062.3
536.642,2078.9
536.726,2102.95
536.81,2136.2
536.894,2173.7
536.978,2198.55
537.062,2216.6
537.146,2205.3
537.231,2177.1
537.315,2145.05
537.399,2105.45
537.483,2079.55
537.567,2068.65
537.651,2045.85
537.735,2035.4
537.819,2030.4
537.903,2014.75
537.987,2021.05
538.071,2022.15
538.155,2020.45
538.239,2011.9
538.323,2023.35
538.407,2019.5
538.491,2019.5
538.575,2021.15
538.659,2031.0
538.743,2031.75
538.827,2041.35
538.911,2051.35
538.995,2067.9
539.079,2085.85
539.163,2094.1
539.247,2106.25
539.331,2094.9
539.415,2085.5
539.499,2071.2
539.583,2061.8
539.667,2034.2
539.751,2022.2
539.835,2013.65
539.919,2006.0
540.003,1999.2
540.087,1982.9
540.171,1977.3
540.255,1984.5
540.339,1979.75
540.423,1986.55
540.507,1977.85
540.591,1980.95
540.675,1977.65
540.759,1989.15
540.843,1991.5
540.927,1999.25
541.011,2003.5
541.095,2022.4
541.179,2040.4
541.263,2049.95
541.347,2052.95
541.431,2048.65
541.515,2035.65
541.599,2015.1
541.683,2006.95
541.767,1994.6
541.851,1998.1
541.935,1991.35
542.019,1987.75
542.103,1978.0
542.187,1977.8
542.271,1975.55
542.355,1975.05
542.439,1979.75
542.523,1982.55
542.607,1973.6
542.691,1975.25
542.775,1986.5
542.859,1995.8
542.943,2002.1
543.027,2014.3
543.111,2020.65
543.195,2043.0
543.279,2074.3
543.363,2146.7
543.446,2267.6
543.53,2382.95
543.614,2485.25
543.698,2478.9
543.782,2385.3
543.866,2264.25
543.95,2171.45
544.034,2114.75
544.118,2069.4
544.202,2048.65
544.286,2037.1
544.37,2016.75
544.454,2020.0
544.538,2019.6
544.622,2012.5
544.706,2009.65
544.789,2017.95
544.873,2025.55
544.957,2038.75
545.041,2060.95
545.125,2091.4
545.209,2125.25
545.293,2145.6
545.377,2151.9
545.461,2137.45
545.545,2102.7
545.629,2064.55
545.713,2046.45
545.796,2019.8
545.88,2008.55
545.964,1997.9
546.048,1993.55
546.132,1998.0
546.216,1995.35
546.3,1988.75
546.384,1980.7
546.468,1989.05
546.552,1984.9
546.635,1986.85
546.719,1993.75
546.803,1994.2
546.887,1994.2
546.971,2003.45
547.055,2012.75
547.139,2036.8
547.223,2058.5
547.306,2081.25
547.39,2101.2
547.474,2119.45
547.558,2120.55
547.642,2102.4
547.726,2079.3
547.81,2053.35
547.894,2036.75
547.977,2011.8
548.061,2010.05
548.145,2000.7
548.229,1993.95
548.313,1990.4
548.397,1985.45
548.481,1990.2
548.564,1979.25
548.648,1978.4
548.732,1982.0
548.816,1977.75
548.9,1975.8
548.984,1971.5
549.068,1968.6
549.151,1967.9
549.235,1962.9
549.319,1963.6
549.403,1966.55
549.487,1965.3
549.571,1968.8
549.655,1962.95
549.738,1964.85
549.822,1969.1
549.906,1969.65
549.99,1966.15
550.074,1964.55
550.158,1967.65
550.241,1965.6
550.325,1965.3
550.409,1971.75
550.493,1971.95
550.577,1968.4
550.66,1968.6
550.744,1974.25
550.828,1974.2
550.912,1973.55
550.996,1972.7
551.08,1969.95
551.163,1972.55
551.247,1979.15
551.331,1980.65
551.415,1972.65
551.499,1973.9
551.582,1974.6
551.666,1977.35
551.75,1973.95
551.834,1972.5
551.918,1975.85
552.001,1971.15
552.085,1976.35
552.169,1971.7
552.253,1979.0
552.337,1973.05
552.42,1974.05
552.504,1976.75
552.588,1973.95
552.672,1977.35
552.755,1969.8
552.839,1977.2
552.923,1966.1
553.007,1970.3
553.091,1969.2
553.174,1972.0
553.258,1975.8
553.342,1971.65
553.426,1971.35
553.509,1969.75
553.593,1977.5
553.677,1979.15
553.761,1977.95
553.844,1978.8
553.928,1977.0
554.012,1980.45
554.096,1980.1
554.179,1990.9
554.263,1989.55
554.347,1986.3
554.431,1990.4
554.514,2002.9
554.598,2007.35
554.682,2002.25
554.766,2010.25
554.849,2016.45
554.933,2015.4
555.017,2021.1
555.101,2019.1
555.184,2024.25
555.268,2034.15
555.352,2048.7
555.436,2075.35
555.519,2092.45
555.603,2136.2
555.687,2192.6
555.771,2320.95
555.854,2512.65
555.938,2761.55
556.022,2969.0
556.105,3021.35
556.189,2884.55
556.273,2636.45
556.357,2406.45
556.44,2297.55
556.524,2275.7
556.608,2279.7
556.691,2313.2
556.775,2401.35
556.859,2515.1
556.943,2636.7
557.026,2743.25
557.11,2732.65
557.194,2635.4
557.277,2460.05
557.361,2311.85
557.445,2228.9
557.528,2169.6
557.612,2128.15
557.696,2109.25
557.779,2090.35
557.863,2085.5
557.947,2075.5
558.031,2064.35
558.114,2059.3
558.198,2057.25
558.282,2046.85
558.365,2050.9
558.449,2052.35
558.533,2063.45
558.616,2072.1
558.7,2094.1
558.784,2120.75
558.867,2136.2
558.951,2132.45
559.035,2118.4
559.118,2082.95
559.202,2057.55
559.286,2045.35
559.369,2044.9
559.453,2027.4
559.537,2040.1
559.62,2040.9
559.704,2051.0
559.788,2057.45
559.871,2081.1
559.955,2109.1
560.038,2137.3
560.122,2170.55
560.206,2185.85
560.289,2176.6
560.373,2149.95
560.457,2121.15
560.54,2099.85
560.624,2111.2
560.708,2107.75
560.791,2137.6
560.875,2177.4
560.958,2274.85
561.042,2375.95
561.126,2499.8
561.209,2557.6
561.293,2533.05
561.377,2395.75
561.46,2262.35
561.544,2176.95
561.627,2141.0
561.711,2157.6
561.795,2197.65
561.878,2258.1
561.962,2311.0
562.045,2302.95
562.129,2273.4
562.213,2214.85
562.296,2158.8
562.38,2128.7
562.463,2123.65
562.547,2108.95
562.631,2116.55
562.714,2123.95
562.798,2129.35
562.881,2156.3
562.965,2191.25
563.049,2234.5
563.132,2283.6
563.216,2309.05
563.299,2332.1
563.383,2301.45
563.467,2258.75
563.55,2216.65
563.634,2169.5
563.717,2132.55
563.801,2111.45
563.884,2083.45
563.968,2078.85
564.052,2074.5
564.135,2066.7
564.219,2067.85
564.302,2064.75
564.386,2058.05
564.469,2060.9
564.553,2060.2
564.636,2063.6
564.72,2061.15
564.804,2063.05
564.887,2073.1
564.971,2085.75
565.054,2091.35
565.138,2104.2
565.221,2116.05
565.305,2139.0
565.388,2134.95
565.472,2125.9
565.556,2112.35
565.639,2098.0
565.723,2087.15
565.806,2079.3
565.89,2077.55
565.973,2082.1
566.057,2082.35
566.14,2084.35
566.224,2106.85
566.307,2118.1
566.391,2141.7
566.474,2183.0
566.558,2268.75
566.641,2388.85
566.725,2555.65
566.808,2722.3
566.892,2810.25
566.975,2811.6
567.059,2786.9
567.142,2713.85
567.226,2689.05
567.309,2689.2
567.393,2702.7
567.476,2655.1
567.56,2545.05
567.643,2370.15
567.727,2239.65
567.81,2172.45
567.894,2130.5
567.977,2107.65
568.061,2107.25
568.144,2114.1
568.228,2110.7
568.311,2118.25
568.395,2126.1
568.478,2148.4
568.562,2153.95
568.645,2168.05
568.729,2202.15
568.812,2246.1
568.896,2311.9
568.979,2379.15
569.063,2417.35
569.146,2401.9
569.23,2346.9
569.313,2276.25
569.396,2206.45
569.48,2169.65
569.563,2142.95
569.647,2131.05
569.73,2134.3
569.814,2145.15
569.897,2155.25
569.981,2157.85
570.064,2185.0
570.148,2204.25
570.231,2221.65
570.314,2208.9
570.398,2191.3
570.481,2158.65
570.565,2135.65
570.648,2122.9
570.732,2129.9
570.815,2131.95
570.898,2134.85
570.982,2134.75
571.065,2141.05
571.149,2152.95
571.232,2171.05
571.316,2193.95
571.399,2218.4
571.482,2235.9
571.566,2251.15
571.649,2273.55
571.733,2265.6
571.816,2265.75
571.9,2269.4
571.983,2270.8
572.066,2273.95
572.15,2290.85
572.233,2340.45
572.317,2426.25
572.4,2582.8
572.483,2767.35
572.567,2952.95
572.65,3058.8
572.734,3053.75
572.817,2908.25
572.9,2676.2
572.984,2498.55
573.067,2384.85
573.15,2317.55
573.234,2287.7
573.317,2317.35
573.401,2366.75
573.484,2427.55
573.567,2508.9
573.651,2542.6
573.734,2527.1
573.818,2460.7
573.901,2398.2
573.984,2334.8
574.068,2299.35
574.151,2266.0
574.234,2249.2
574.318,2215.35
574.401,2183.75
574.484,2155.3
574.568,2125.7
574.651,2109.4
574.734,2093.0
574.818,2088.05
574.901,2087.75
574.985,2082.65
575.068,2082.1
575.151,2082.55
575.235,2086.1
575.318,2089.8
575.401,2090.25
575.485,2094.85
575.568,2100.35
575.651,2110.95
575.735,2140.35
575.818,2170.3
575.901,2240.55
575.985,2349.35
576.068,2463.3
576.151,2570.2
576.235,2620.45
576.318,2608.7
576.401,2602.45
576.484,2635.3
576.568,2742.9
576.651,2911.7
576.734,3118.15
576.818,3296.4
576.901,3435.45
576.984,3471.2
577.068,3343.3
577.151,3116.65
577.234,2819.8
577.318,2541.8
577.401,2378.15
577.484,2281.85
577.567,2214.1
577.651,2180.1
577.734,2153.35
577.817,2141.85
577.901,2116.45
577.984,2109.55
578.067,2101.65
578.15,2091.0
578.234,2088.3
578.317,2083.75
578.4,2079.6
578.484,2082.9
578.567,2077.55
578.65,2076.2
578.733,2071.85
578.817,2069.85
578.9,2069.25
578.983,2070.15
579.066,2072.55
579.15,2070.2
579.233,2073.2
579.316,2070.8
579.399,2067.25
579.483,2069.2
579.566,2067.15
579.649,2065.7
579.732,2073.25
579.816,2069.5
579.899,2061.5
579.982,2073.2
580.065,2074.05
580.149,2072.25
580.232,2064.3
580.315,2079.85
580.398,2062.55
580.482,2071.85
580.565,2065.95
580.648,2073.9
580.731,2071.55
580.815,2067.55
580.898,2070.1
580.981,2076.0
581.064,2067.8
581.147,2070.55
581.231,2073.25
581.314,2077.15
581.397,2070.95
581.48,2079.2
581.563,2077.6
581.647,2083.75
581.73,2082.55
581.813,2075.55
581.896,2073.35
581.979,2076.2
582.063,2087.55
582.146,2086.85
582.229,2089.4
582.312,2087.8
582.395,2083.4
582.479,2092.7
582.562,2088.8
582.645,2083.3
582.728,2085.65
582.811,2090.95
582.895,2081.7
582.978,2087.6
583.061,2086.55
583.144,2093.05
583.227,2096.9
583.31,2098.0
583.394,2090.3
583.477,2091.45
583.56,2088.15
583.643,2090.0
583.726,2091.8
583.809,2095.15
583.893,2094.0
583.976,2100.35
584.059,2096.05
584.142,2095.9
584.225,2100.85
584.308,2095.2
584.391,2105.75
584.475,2097.3
584.558,2104.95
584.641,2098.25
584.724,2104.4
584.807,2112.7
584.89,2107.85
584.973,2106.6
585.057,2102.2
585.14,2107.5
585.223,2108.4
585.306,2109.25
585.389,2115.0
585.472,2102.25
585.555,2098.95
585.638,2102.35
585.722,2095.75
585.805,2091.6
585.888,2095.9
585.971,2098.4
586.054,2096.8
586.137,2098.2
586.22,2101.55
586.303,2097.55
586.386,2095.7
586.47,2094.2
586.553,2095.5
586.636,2095.8
586.719,2097.95
586.802,2092.15
586.885,2096.9
586.968,2103.0
587.051,2096.6
587.134,2105.55
587.217,2110.6
587.3,2107.55
587.384,2100.65
587.467,2101.15
587.55,2106.35
587.633,2100.2
587.716,2102.8
587.799,2097.5
587.882,2105.0
587.965,2104.5
588.048,2106.35
588.131,2103.5
588.214,2102.0
588.297,2103.65
588.38,2105.55
588.463,2110.25
588.546,2110.45
588.63,2110.4
588.713,2098.75
588.796,2102.2
588.879,2117.1
588.962,2116.5
589.045,2110.8
589.128,2105.15
589.211,2105.4
589.294,2102.6
589.377,2104.3
589.46,2109.15
589.543,2116.85
589.626,2118.95
589.709,2115.75
589.792,2112.6
589.875,2111.9
589.958,2117.65
590.041,2115.25
590.124,2118.05
590.207,2119.2
590.29,2117.75
590.373,2118.65
590.456,2124.3
590.539,2126.1
590.622,2134.8
590.705,2127.6
590.788,2119.0
590.871,2126.7
590.954,2126.9
591.037,2126.3
591.12,2129.75
591.203,2124.6
591.286,2135.3
591.369,2138.15
591.452,2131.95
591.535,2141.75
591.618,2148.0
591.701,2143.65
591.784,2144.2
591.867,2145.85
591.95,2145.5
592.033,2151.2
592.116,2148.65
592.199,2141.75
592.282,2143.05
592.365,2160.2
592.448,2150.1
592.531,2153.35
592.614,2153.45
592.697,2140.75
592.78,2148.05
592.863,2158.35
592.946,2163.3
593.029,2160.5
593.112,2156.35
593.195,2144.5
593.278,2161.9
593.361,2165.65
593.443,2154.8
593.526,2156.35
593.609,2156.4
593.692,2160.4
593.775,2161.95
593.858,2149.25
593.941,2155.15
594.024,2160.05
594.107,2158.9
594.19,2163.15
594.273,2172.15
594.356,2161.6
594.439,2160.85
594.522,2155.35
594.604,2162.55
594.687,2172.0
594.77,2175.55
594.853,2174.9
594.936,2171.65
595.019,2163.05
595.102,2175.55
595.185,2178.25
595.268,2175.8
595.351,2179.15
595.434,2180.75
595.516,2185.5
595.599,2180.45
595.682,2187.65
595.765,2176.05
595.848,2179.55
595.931,2182.05
596.014,2180.65
596.097,2188.05
596.18,2179.75
596.262,2193.55
596.345,2192.8
596.428,2186.25
596.511,2187.7
596.594,2185.2
596.677,2187.6
596.76,2178.65
596.843,2183.15
596.925,2187.45
597.008,2187.65
597.091,2185.5
597.174,2180.4
597.257,2188.6
597.34,2187.1
597.423,2180.2
597.505,2183.85
597.588,2185.7
597.671,2191.35
597.754,2192.95
597.837,2180.3
597.92,2179.95
598.002,2181.95
598.085,2182.85
598.168,2178.4
598.251,2177.6
598.334,2178.75
598.417,2175.7
598.499,2179.65
598.582,2187.8
598.665,2176.65
598.748,2182.85
598.831,2177.2
598.914,2182.25
598.996,2179.7
599.079,2179.65
599.162,2173.65
599.245,2178.35
599.328,2173.25
599.41,2182.35
599.493,2175.9
599.576,2165.2
599.659,2175.0
599.742,2169.75
599.824,2167.7
599.907,2171.1
599.99,2168.1
600.073,2163.85
600.156,2166.2
600.238,2175.05
600.321,2161.75
600.404,2170.8
600.487,2165.05
600.57,2167.55
600.652,2160.05
600.735,2162.95
600.818,2164.3
600.901,2163.45
600.983,2162.25
601.066,2165.85
601.149,2160.0
601.232,2149.65
601.314,2142.45
601.397,2155.15
601.48,2161.4
601.563,2162.95
601.645,2159.7
601.728,2154.3
601.811,2157.25
601.894,2153.2
601.976,2151.3
602.059,2146.85
602.142,2161.1
602.225,2154.3
602.307,2143.85
602.39,2141.5
602.473,2144.35
602.556,2152.0
602.638,2140.1
602.721,2145.65
602.804,2142.2
602.887,2142.65
602.969,2144.25
603.052,2147.7
603.135,2139.6
603.217,2131.15
603.3,2149.1
603.383,2146.2
603.466,2128.95
603.548,2141.55
603.631,2149.35
603.714,2149.6
603.796,2161.95
603.879,2154.35
603.962,2149.95
604.045,2147.15
604.127,2150.3
604.21,2148.55
604.293,2150.0
604.375,2149.55
604.458,2145.45
604.541,2138.5
604.623,2142.0
604.706,2141.6
604.789,2143.6
604.871,2143.45
604.954,2156.15
605.037,2151.55
605.119,2142.1
605.202,2147.25
605.285,2145.6
605.367,2140.8
605.45,2140.4
605.533,2143.9
605.615,2141.0
605.698,2137.45
605.781,2142.1
605.863,2144.9
605.946,2144.0
606.029,2143.3
606.111,2146.8
606.194,2138.4
606.277,2142.55
606.359,2146.3
606.442,2142.2
606.524,2145.45
606.607,2142.0
606.69,2146.0
606.772,2141.45
606.855,2144.0
606.938,2155.6
607.02,2148.4
607.103,2151.7
607.185,2136.8
607.268,2139.95
607.351,2148.15
607.433,2145.1
607.516,2139.4
607.599,2140.7
607.681,2152.0
607.764,2133.95
607.846,2139.65
607.929,2135.5
608.012,2136.05
608.094,2139.0
608.177,2142.35
608.259,2128.7
608.342,2128.05
608.425,2128.1
608.507,2136.95
608.59,2133.15
608.672,2129.95
608.755,2127.9
608.837,2123.0
608.92,2130.4
609.003,2134.85
609.085,2130.9
609.168,2130.95
609.25,2134.05
609.333,2136.35
609.415,2134.0
609.498,2131.5
609.581,2128.7
609.663,2123.9
609.746,2127.0
609.828,2124.9
609.911,2124.55
609.993,2123.75
610.076,2120.1
610.158,2122.0
610.241,2123.8
610.324,2127.9
610.406,2128.5
610.489,2128.65
610.571,2120.4
610.654,2129.3
610.736,2128.8
610.819,2128.75
610.901,2129.6
610.984,2121.75
611.066,2118.15
611.149,2123.85
611.231,2133.0
611.314,2120.45
611.396,2110.9
611.479,2120.05
611.561,2120.35
611.644,2117.8
611.727,2123.4
611.809,2127.5
611.892,2115.0
611.974,2113.1
612.057,2111.4
612.139,2126.5
612.222,2127.25
612.304,2120.25
612.386,2132.0
612.469,2112.2
612.551,2113.35
612.634,2114.95
612.716,2114.0
612.799,2112.3
612.881,2106.7
612.964,2115.1
613.046,2109.5
613.129,2106.65
613.211,2105.95
613.294,2105.95
613.376,2110.15
613.459,2110.75
613.541,2108.25
613.624,2118.5
613.706,2114.35
613.789,2117.05
613.871,2109.85
613.953,2113.4
614.036,2114.55
614.118,2120.7
614.201,2121.65
614.283,2121.2
614.366,2119.65
614.448,2116.05
614.531,2118.4
614.613,2126.25
614.695,2128.65
614.778,2130.3
614.86,2118.5
614.943,2124.25
615.025,2132.15
615.108,2123.2
615.19,2131.0
615.272,2126.75
615.355,2123.45
615.437,2112.8
615.52,2111.75
615.602,2120.75
615.684,2123.4
615.767,2127.65
615.849,2121.7
615.932,2126.5
616.014,2121.55
616.097,2114.65
616.179,2124.0
616.261,2128.9
616.344,2125.7
616.426,2131.8
616.508,2125.9
616.591,2116.1
616.673,2138.0
616.756,2141.95
616.838,2146.4
616.92,2149.35
617.003,2154.25
617.085,2144.55
617.168,2149.0
617.25,2147.0
617.332,2157.3
617.415,2163.0
617.497,2161.1
617.579,2154.9
617.662,2157.35
617.744,2160.45
617.826,2152.1
617.909,2162.85
617.991,2153.45
618.073,2151.8
618.156,2164.85
618.238,2168.35
618.32,2160.95
618.403,2155.35
618.485,2152.35
618.567,2153.1
618.65,2156.35
618.732,2159.2
618.814,2155.4
618.897,2167.25
618.979,2171.85
619.061,2184.95
619.144,2190.75
619.226,2198.2
619.308,2215.7
619.391,2225.55
619.473,2247.5
619.555,2263.4
619.638,2263.05
619.72,2255.1
619.802,2254.8
619.885,2250.55
619.967,2236.45
620.049,2235.45
620.131,2243.4
620.214,2226.7
620.296,2232.0
620.378,2229.55
620.461,2231.05
620.543,2237.0
620.625,2243.0
620.707,2243.95
620.79,2233.3
620.872,2237.25
620.954,2238.25
621.037,2237.0
621.119,2242.75
621.201,2255.6
621.283,2279.0
621.366,2282.55
621.448,2298.05
621.53,2330.2
621.612,2364.85
621.695,2407.8
621.777,2442.0
621.859,2477.05
621.941,2510.2
622.024,2553.6
622.106,2596.85
622.188,2675.85
622.27,2702.7
622.353,2713.1
622.435,2680.5
622.517,2628.4
622.599,2582.8
622.682,2518.2
622.764,2468.65
622.846,2430.7
622.928,2411.15
623.01,2387.75
623.093,2377.1
623.175,2355.0
623.257,2342.6
623.339,2309.7
623.422,2289.95
623.504,2272.2
623.586,2271.15
623.668,2265.75
623.75,2242.25
623.833,2232.65
623.915,2227.25
623.997,2207.65
624.079,2194.55
624.161,2188.05
624.244,2188.4
624.326,2194.2
624.408,2198.25
624.49,2198.3
624.572,2204.05
624.654,2203.25
624.737,2195.65
624.819,2204.5
624.901,2209.45
624.983,2210.75
625.065,2223.5
625.147,2231.8
625.23,2246.05
625.312,2250.1
625.394,2260.65
625.476,2269.15
625.558,2280.25
625.64,2294.25
625.723,2332.0
625.805,2362.65
625.887,2367.55
625.969,2412.0
626.051,2458.0
626.133,2499.15
626.215,2588.3
626.298,2708.95
626.38,2898.2
626.462,3166.1
626.544,3535.35
626.626,4005.9
626.708,4617.35
626.79,5187.9
626.872,5497.85
626.955,5453.45
627.037,5134.2
627.119,4784.55
627.201,4370.35
627.283,4036.5
627.365,3849.15
627.447,3756.25
627.529,3844.45
627.611,4174.15
627.693,4743.7
627.776,5493.05
627.858,6241.5
627.94,6975.85
628.022,7471.2
628.104,7801.55
628.186,7938.6
628.268,8071.6
628.35,8370.8
628.432,8891.25
628.514,9397.7
628.596,9647.5
628.678,9627.0
628.761,9520.55
628.843,8992.85
628.925,8456.0
629.007,8052.65
629.089,7816.85
629.171,7654.3
629.253,7630.65
629.335,7751.3
629.417,7805.55
629.499,7774.15
629.581,7580.55
629.663,7276.6
629.745,6833.8
629.827,6469.15
629.909,6300.05
629.991,6251.45
630.073,6262.55
630.155,6230.35
630.237,6169.35
630.319,6081.35
630.401,5889.2
630.483,5585.85
630.565,5206.25
630.647,4771.2
630.73,4420.15
630.812,4285.0
630.894,4254.05
630.976,4341.2
631.058,4630.3
631.14,5071.7
631.222,5543.0
631.304,5963.0
631.386,6215.65
631.468,6267.95
631.55,6272.3
631.632,6250.05
631.714,6095.75
631.796,5944.2
631.877,5681.05
631.959,5257.15
632.041,4805.1
632.123,4394.4
632.205,3956.65
632.287,3630.95
632.369,3329.05
632.451,3073.25
632.533,2884.5
632.615,2757.55
632.697,2660.8
632.779,2603.2
632.861,2534.25
632.943,2475.95
633.025,2421.05
633.107,2382.85
633.189,2372.45
633.271,2341.4
633.353,2323.7
633.435,2301.55
633.517,2285.7
633.599,2266.5
633.681,2246.05
633.763,2235.0
633.844,2220.05
633.926,2216.0
634.008,2199.3
634.09,2190.55
634.172,2192.8
634.254,2183.65
634.336,2165.05
634.418,2168.45
634.5,2156.15
634.582,2141.55
634.664,2145.05
634.746,2142.05
634.827,2144.85
634.909,2139.2
634.991,2139.15
635.073,2143.4
635.155,2135.0
635.237,2121.5
635.319,2123.4
635.401,2118.3
635.483,2120.1
635.564,2112.75
635.646,2119.15
635.728,2109.9
635.81,2108.15
635.892,2106.95
635.974,2107.6
636.056,2103.35
636.138,2110.75
636.219,2111.0
636.301,2105.6
636.383,2096.85
636.465,2101.4
636.547,2093.95
636.629,2100.3
636.711,2100.55
636.792,2098.8
636.874,2101.3
636.956,2102.05
637.038,2098.05
637.12,2090.3
637.202,2093.15
637.283,2087.95
637.365,2086.0
637.447,2096.75
637.529,2094.85
637.611,2093.85
637.693,2094.7
637.774,2093.0
637.856,2095.8
637.938,2093.85
638.02,2103.65
638.102,2097.75
638.184,2101.65
638.265,2092.65
638.347,2101.0
638.429,2104.8
638.511,2100.85
638.593,2104.75
638.674,2107.3
638.756,2102.9
638.838,2099.45
638.92,2105.1
639.002,2110.05
639.083,2106.4
639.165,2104.9
639.247,2118.7
639.329,2102.85
639.41,2111.7
639.492,2106.95
639.574,2110.0
639.656,2106.5
639.737,2099.3
639.819,2099.6
639.901,2096.1
639.983,2102.25
640.065,2101.75
640.146,2095.9
640.228,2102.05
640.31,2099.9
640.392,2095.2
640.473,2095.25
640.555,2097.5
640.637,2098.55
640.719,2101.6
640.8,2100.6
640.882,2096.95
640.964,2105.8
641.045,2100.95
641.127,2107.2
641.209,2101.05
641.291,2103.15
641.372,2106.6
641.454,2106.45
641.536,2111.6
641.618,2101.25
641.699,2096.95
641.781,2085.5
641.863,2102.05
641.944,2093.3
642.026,2091.95
642.108,2085.8
642.189,2079.45
642.271,2088.85
642.353,2079.8
642.435,2079.85
642.516,2073.9
642.598,2078.45
642.68,2077.7
642.761,2065.15
642.843,2072.65
642.925,2066.55
643.006,2060.2
643.088,2062.9
643.17,2059.25
643.251,2056.75
643.333,2060.3
643.415,2054.95
643.496,2056.35
643.578,2057.0
643.66,2056.0
643.741,2058.45
643.823,2063.1
643.905,2064.45
643.986,2064.7
644.068,2064.75
644.149,2060.3
644.231,2059.95
644.313,2059.1
644.394,2058.45
644.476,2055.45
644.558,2051.5
644.639,2056.9
644.721,2050.2
644.803,2044.95
644.884,2047.4
644.966,2048.85
645.047,2059.0
645.129,2061.65
645.211,2055.3
645.292,2055.7
645.374,2065.0
645.455,2059.25
645.537,2050.25
645.619,2055.0
645.7,2045.3
645.782,2047.7
645.863,2047.2
645.945,2044.05
646.027,2042.8
646.108,2049.0
646.19,2045.6
646.271,2057.45
646.353,2051.55
646.435,2045.25
646.516,2045.65
646.598,2051.8
646.679,2053.8
646.761,2050.1
646.842,2046.5
646.924,2047.05
647.005,2043.4
647.087,2044.75
647.169,2047.85
647.25,2044.55
647.332,2049.75
647.413,2051.4
647.495,2052.4
647.576,2052.2
647.658,2049.25
647.739,2052.3
647.821,2047.1
647.902,2042.0
647.984,2036.45
648.066,2037.6
648.147,2039.75
648.229,2038.65
648.31,2048.05
648.392,2045.1
648.473,2039.75
648.555,2040.65
648.636,2045.55
648.718,2033.9
648.799,2046.7
648.881,2046.85
648.962,2042.05
649.044,2035.9
649.125,2038.95
649.207,2043.6
649.288,2041.05
649.37,2033.0
649.451,2040.2
649.533,2040.75
649.614,2041.25
649.696,2036.5
649.777,2038.7
649.859,2032.0
649.94,2033.0
650.022,2025.5
650.103,2031.45
650.184,2031.35
650.266,2027.5
650.347,2021.25
650.429,2026.05
650.51,2028.9
650.592,2028.15
650.673,2025.85
650.755,2029.05
650.836,2035.55
650.918,2027.75
650.999,2024.55
651.08,2021.65
651.162,2034.65
651.243,2022.75
651.325,2030.1
651.406,2029.35
651.488,2026.55
651.569,2030.5
651.651,2018.85
651.732,2019.0
651.813,2026.65
651.895,2017.8
651.976,2018.5
652.058,2016.9
652.139,2018.9
652.22,2024.3
652.302,2019.75
652.383,2020.75
652.465,2019.55
652.546,2027.05
652.627,2019.75
652.709,2021.0
652.79,2011.0
652.872,2010.05
652.953,2011.8
653.034,2006.8
653.116,2005.9
653.197,2006.55
653.278,2001.6
653.36,2011.5
653.441,2010.3
653.523,2010.4
653.604,2005.45
653.685,2003.7
653.767,2002.6
653.848,2000.65
653.929,2005.25
654.011,2004.95
654.092,1998.9
654.173,2005.5
654.255,2007.2
654.336,2005.3
654.418,2003.3
654.499,2000.05
654.58,2001.4
654.662,1994.75
654.743,2003.15
654.824,2000.25
654.906,2000.45
654.987,1998.25
655.068,1995.2
655.149,1992.7
655.231,1993.7
655.312,1999.95
655.393,1996.1
655.475,1997.35
655.556,1991.0
655.637,1994.35
655.719,1996.75
655.8,1994.95
655.881,1992.05
655.963,1996.85
656.044,1994.05
656.125,1989.95
656.206,1993.6
656.288,1993.1
656.369,1989.3
656.45,1988.4
656.532,1988.3
656.613,1982.75
656.694,1989.8
656.775,1986.05
656.857,1989.9
656.938,1981.3
657.019,1985.55
657.1,1982.5
657.182,1975.9
657.263,1981.35
657.344,1976.6
657.425,1981.25
657.507,1971.35
657.588,1971.85
657.669,1984.5
657.75,1979.75
657.832,1977.7
657.913,1975.25
657.994,1977.75
658.075,1975.6
658.157,1973.05
658.238,1975.0
658.319,1982.6
658.4,1971.75
658.482,1970.8
658.563,1970.15
658.644,1972.95
658.725,1968.4
658.806,1982.15
658.888,1969.85
658.969,1975.1
659.05,1968.2
659.131,1964.85
659.212,1967.8
659.294,1969.65
659.375,1968.9
659.456,1965.1
659.537,1967.4
659.618,1969.95
659.7,1972.45
659.781,1969.25
659.862,1967.1
659.943,1964.35
660.024,1968.2
660.105,1967.05
660.187,1973.7
660.268,1961.15
660.349,1962.75
660.43,1962.15
660.511,1966.55
660.592,1964.75
660.674,1960.55
660.755,1960.7
660.836,1961.2
660.917,1958.15
660.998,1956.75
661.079,1963.0
