nm,Intensity
791.588,5183.8
791.862,5154.4
792.136,5123.8
792.411,5028.3
792.685,4989.0
792.959,4974.3
793.233,4944.4
793.507,4921.4
793.781,4896.9
794.056,4898.9
794.33,4880.8
794.604,4855.9
794.878,4878.6
795.152,4891.3
795.426,4918.7
795.701,4948.9
795.975,4918.7
796.249,4903.4
796.523,4887.7
796.797,4872.9
797.071,4868.1
797.345,4865.8
797.619,4867.2
797.894,4854.4
798.168,4815.3
798.442,4799.6
798.716,4820.6
798.99,4819.9
799.264,4816.2
799.538,4822.6
799.812,4815.5
800.086,4816.7
800.36,4820.5
800.634,4814.0
800.908,4802.5
801.182,4803.4
801.456,4801.7
801.73,4784.5
802.004,4767.4
802.278,4740.4
802.552,4769.3
802.826,4756.8
803.1,4751.2
803.374,4745.4
803.648,4736.5
803.922,4733.4
804.196,4742.7
804.47,4729.4
804.744,4748.5
805.018,4736.3
805.292,4738.8
805.566,4748.9
805.84,4718.8
806.114,4720.7
806.388,4722.9
806.662,4703.0
806.936,4685.5
807.209,4671.2
807.483,4677.1
807.757,4694.2
808.031,4687.6
808.305,4672.5
808.579,4659.8
808.853,4678.4
809.127,4647.9
809.4,4658.7
809.674,4691.8
809.948,4739.6
810.222,4781.4
810.496,4777.4
810.77,4743.1
811.043,4692.8
811.317,4646.0
811.591,4657.1
811.865,4642.5
812.139,4631.9
812.412,4629.9
812.686,4629.2
812.96,4625.2
813.234,4633.6
813.507,4643.3
813.781,4635.7
814.055,4619.7
814.329,4620.7
814.602,4594.0
814.876,4588.6
815.15,4591.8
815.424,4559.2
815.697,4551.3
815.971,4568.9
816.245,4559.3
816.518,4559.3
816.792,4538.2
817.066,4542.9
817.34,4536.4
817.613,4540.7
817.887,4530.8
818.161,4534.5
818.434,4527.8
818.708,4540.9
818.981,4541.3
819.255,4531.5
819.529,4531.6
819.802,4511.6
820.076,4506.1
820.35,4496.8
820.623,4492.6
820.897,4474.5
821.17,4486.9
821.444,4484.7
821.718,4477.8
821.991,4461.5
822.265,4476.6
822.538,4459.7
822.812,4445.1
823.085,4438.4
823.359,4467.8
823.632,4463.5
823.906,4460.1
824.18,4473.6
824.453,4458.4
824.727,4434.5
825.0,4458.5
825.274,4447.2
825.547,4428.2
825.821,4438.1
826.094,4422.9
826.367,4416.7
826.641,4428.3
826.914,4415.8
827.188,4422.0
827.461,4428.8
827.735,4401.1
828.008,4425.0
828.282,4403.3
828.555,4404.6
828.828,4411.2
829.102,4423.5
829.375,4407.3
829.649,4409.2
829.922,4393.5
830.195,4401.9
830.469,4394.5
830.742,4378.3
831.016,4367.3
831.289,4380.3
831.562,4389.9
831.836,4366.4
832.109,4375.9
832.382,4379.7
832.656,4375.5
832.929,4359.0
833.202,4376.4
833.476,4390.4
833.749,4386.2
834.022,4376.1
834.295,4368.6
834.569,4359.1
834.842,4343.2
835.115,4362.1
835.388,4369.2
835.662,4359.7
835.935,4361.6
836.208,4367.8
836.481,4356.2
836.755,4355.8
837.028,4368.5
837.301,4401.1
837.574,4442.7
837.848,4480.9
838.121,4519.4
838.394,4498.7
838.667,4442.9
838.94,4401.1
839.213,4369.1
839.487,4390.1
839.76,4427.1
840.033,4457.9
840.306,4465.1
840.579,4451.1
840.852,4418.2
841.125,4388.1
841.399,4350.7
841.672,4345.1
841.945,4339.2
842.218,4316.9
842.491,4327.1
842.764,4327.8
843.037,4314.9
843.31,4325.8
843.583,4311.4
843.856,4324.1
844.129,4312.5
844.402,4308.8
844.675,4330.1
844.948,4311.7
845.221,4311.6
845.495,4299.8
845.768,4277.7
846.041,4290.8
846.314,4308.7
846.586,4305.9
846.859,4290.9
847.132,4308.6
847.405,4299.0
847.678,4305.6
847.951,4303.6
848.224,4293.0
848.497,4300.3
848.77,4307.1
849.043,4313.4
849.316,4312.0
849.589,4324.7
849.862,4323.9
850.135,4317.4
850.408,4311.2
850.681,4286.6
850.953,4295.4
851.226,4312.0
851.499,4335.6
851.772,4326.6
852.045,4315.6
852.318,4304.5
852.591,4280.3
852.863,4265.9
853.136,4273.2
853.409,4268.7
853.682,4277.0
853.955,4289.5
854.227,4299.4
854.5,4299.3
854.773,4283.4
855.046,4274.7
855.318,4268.0
855.591,4266.4
855.864,4252.4
856.137,4255.6
856.409,4261.7
856.682,4264.9
856.955,4255.9
857.228,4239.7
857.5,4237.5
857.773,4247.8
858.046,4248.0
858.318,4242.6
858.591,4230.2
858.864,4230.8
859.137,4239.6
859.409,4233.4
859.682,4237.9
859.954,4243.9
860.227,4232.8
860.5,4234.2
860.772,4236.2
861.045,4240.4
861.318,4232.1
861.59,4250.3
861.863,4270.4
862.135,4273.4
862.408,4283.2
862.681,4288.5
862.953,4294.3
863.226,4286.7
863.498,4291.1
863.771,4302.0
864.043,4287.6
864.316,4270.4
864.588,4247.8
864.861,4240.2
865.133,4224.7
865.406,4226.9
865.678,4228.0
865.951,4222.2
866.223,4221.5
866.496,4203.4
866.768,4213.6
867.041,4212.3
867.313,4229.4
867.586,4223.5
867.858,4223.4
868.131,4222.2
868.403,4214.2
868.675,4201.5
868.948,4204.7
869.22,4205.2
869.493,4196.6
869.765,4194.3
870.037,4182.2
870.31,4182.4
870.582,4197.6
870.854,4185.3
871.127,4187.3
871.399,4185.1
871.672,4192.8
871.944,4187.7
872.216,4172.7
872.488,4171.7
872.761,4189.3
873.033,4184.5
873.305,4198.5
873.578,4215.6
873.85,4224.0
874.122,4203.2
874.394,4205.4
874.667,4195.4
874.939,4198.4
875.211,4211.5
875.483,4232.9
875.756,4240.7
876.028,4263.6
876.3,4260.8
876.572,4253.0
876.845,4227.9
877.117,4215.9
877.389,4221.1
877.661,4202.8
877.933,4192.6
878.205,4192.2
878.478,4187.5
878.75,4178.6
879.022,4176.7
879.294,4165.8
879.566,4170.9
879.838,4160.6
880.11,4159.5
880.382,4151.6
880.654,4137.7
880.927,4133.8
881.199,4139.8
881.471,4130.5
881.743,4118.4
882.015,4126.2
882.287,4128.7
882.559,4118.6
882.831,4123.1
883.103,4133.8
883.375,4134.2
883.647,4142.6
883.919,4151.9
884.191,4158.2
884.463,4172.9
884.735,4179.8
885.007,4186.5
885.279,4186.8
885.551,4210.3
885.823,4227.5
886.095,4217.8
886.367,4215.8
886.639,4196.4
886.91,4184.0
887.182,4162.3
887.454,4147.4
887.726,4116.9
887.998,4115.1
888.27,4107.9
888.542,4096.4
888.814,4085.2
889.085,4079.3
889.357,4074.5
889.629,4082.9
889.901,4081.1
890.173,4078.3
890.445,4083.3
890.716,4081.1
890.988,4090.6
891.26,4090.9
891.532,4097.9
891.804,4085.2
892.075,4087.5
892.347,4082.4
892.619,4075.0
892.891,4075.4
893.162,4060.0
893.434,4063.3
893.706,4060.5
893.978,4051.4
894.249,4054.3
894.521,4051.4
894.793,4050.7
895.064,4047.9
895.336,4042.1
895.608,4042.4
895.879,4034.2
896.151,4037.8
896.423,4054.1
896.694,4039.5
896.966,4039.3
897.237,4035.8
897.509,4035.9
897.781,4033.2
898.052,4038.3
898.324,4023.5
898.595,4028.5
898.867,4021.8
899.139,4021.8
899.41,4022.9
899.682,4017.0
899.953,4012.8
900.225,4012.3
900.496,4011.7
900.768,4011.3
901.039,4010.8
901.311,4009.5
901.582,4003.5
901.854,4006.0
902.125,3999.7
902.397,4000.5
902.668,4006.1
902.94,3999.5
903.211,3999.8
903.482,3999.2
903.754,3988.7
904.025,3991.7
904.297,3986.0
904.568,3992.0
904.839,3989.9
905.111,3990.8
905.382,3987.3
905.654,3981.2
905.925,3977.5
906.196,3975.3
906.468,3968.8
906.739,3978.9
907.01,3977.1
907.282,3980.6
907.553,3965.0
907.824,3970.9
908.096,3962.9
908.367,3969.3
908.638,3964.2
908.909,3964.2
909.181,3957.9
909.452,3965.0
909.723,3958.0
909.994,3958.9
910.266,3960.2
910.537,3957.0
910.808,3952.2
911.079,3954.9
911.35,3949.6
911.622,3948.2
911.893,3953.5
912.164,3945.6
912.435,3941.9
912.706,3941.7
912.977,3944.9
913.249,3947.2
913.52,3936.6
913.791,3938.6
914.062,3940.8
914.333,3937.3
914.604,3934.4
914.875,3926.2
915.146,3936.8
915.417,3929.2
915.688,3935.4
915.959,3930.9
916.231,3927.3
916.502,3924.8
916.773,3926.8
917.044,3928.7
917.315,3925.0
917.586,3925.4
917.857,3918.2
918.128,3919.3
918.399,3914.3
918.67,3910.3
918.941,3913.1
919.211,3914.2
919.482,3909.2
919.753,3912.4
920.024,3916.5
920.295,3911.0
920.566,3910.8
920.837,3911.5
921.108,3905.2
921.379,3906.6
921.65,3902.9
921.921,3900.9
922.191,3906.4
922.462,3907.9
922.733,3896.2
923.004,3900.9
923.275,3896.2
923.546,3897.3
923.816,3896.2
924.087,3892.6
924.358,3889.8
924.629,3892.4
924.9,3892.8
925.17,3894.0
925.441,3888.1
925.712,3890.2
925.983,3885.9
926.253,3889.0
926.524,3887.9
926.795,3888.6
927.065,3879.5
927.336,3883.5
927.607,3879.6
927.877,3878.6
928.148,3881.8
928.419,3876.1
928.689,3879.1
928.96,3877.4
929.231,3869.1
929.501,3875.5
929.772,3869.1
930.043,3874.5
930.313,3876.2
930.584,3872.7
930.854,3867.4
931.125,3865.5
931.396,3869.7
931.666,3862.7
931.937,3865.3
932.207,3863.6
932.478,3861.6
932.748,3862.7
933.019,3864.1
933.289,3862.2
933.56,3860.2
933.83,3857.7
934.101,3854.7
934.371,3853.3
934.642,3857.5
934.912,3856.2
935.183,3857.6
935.453,3850.3
935.723,3852.4
935.994,3856.0
936.264,3853.6
936.535,3850.5
936.805,3848.9
937.075,3848.9
937.346,3845.8
937.616,3847.3
937.886,3849.0
938.157,3845.8
938.427,3847.1
938.697,3838.4
938.968,3846.9
939.238,3844.9
939.508,3844.4
939.779,3843.2
940.049,3841.1
940.319,3843.0
940.59,3842.1
940.86,3843.5
941.13,3838.5
941.4,3840.7
941.671,3839.8
941.941,3836.4
942.211,3834.9
942.481,3833.8
942.751,3831.5
943.022,3831.3
943.292,3832.0
943.562,3832.9
943.832,3827.6
944.102,3831.6
944.372,3827.9
944.642,3827.9
944.913,3829.2
945.183,3831.9
945.453,3830.3
945.723,3830.1
945.993,3825.6
946.263,3828.2
946.533,3826.8
946.803,3824.9
947.073,3823.7
947.343,3821.5
947.613,3821.3
947.883,3825.8
948.153,3820.9
948.423,3824.1
948.693,3823.7
948.963,3823.2
949.233,3819.1
949.503,3820.5
949.773,3823.7
950.043,3820.5
950.313,3821.5
950.583,3822.5
950.853,3820.8
951.123,3819.7
951.393,3815.2
951.663,3816.6
951.933,3817.4
952.202,3816.4
952.472,3817.2
952.742,3813.1
953.012,3811.8
953.282,3811.8
953.552,3814.7
953.822,3809.9
954.091,3810.5
954.361,3810.3
954.631,3810.5
954.901,3808.3
955.17,3811.3
955.44,3805.4
955.71,3806.5
955.98,3808.2
956.25,3807.7
956.519,3809.1
956.789,3806.3
957.059,3806.0
957.328,3808.7
957.598,3805.8
957.868,3805.2
958.137,3806.5
958.407,3803.2
958.677,3805.6
958.946,3809.1
959.216,3805.0
959.486,3803.1
959.755,3802.3
960.025,3804.1
960.294,3802.0
960.564,3802.8
960.834,3803.2
961.103,3799.1
961.373,3799.1
961.642,3801.6
961.912,3802.6
962.181,3799.4
962.451,3801.6
962.72,3800.7
962.99,3799.7
963.259,3799.0
963.529,3799.5
963.798,3797.3
964.068,3795.3
964.337,3795.0
964.607,3795.7
964.876,3793.3
965.146,3795.0
965.415,3799.5
965.684,3796.2
965.954,3795.8
966.223,3797.4
966.493,3795.5
966.762,3797.0
967.031,3795.2
967.301,3793.5
967.57,3793.9
967.839,3795.2
968.109,3790.8
968.378,3792.2
968.647,3792.4
968.917,3790.7
969.186,3791.6
969.455,3789.7
969.724,3792.3
969.994,3792.1
970.263,3790.4
970.532,3788.9
970.801,3792.1
971.071,3790.3
971.34,3793.3
971.609,3789.8
971.878,3788.9
972.147,3787.4
972.417,3790.0
972.686,3788.9
972.955,3789.4
973.224,3787.1
973.493,3790.0
973.762,3787.2
974.031,3790.5
974.3,3785.9
974.57,3785.7
974.839,3785.4
975.108,3782.3
975.377,3783.9
975.646,3785.2
975.915,3784.0
976.184,3787.8
976.453,3783.4
976.722,3785.0
976.991,3783.0
977.26,3785.8
977.529,3785.6
977.798,3785.3
978.067,3783.6
978.336,3784.1
978.605,3781.5
978.874,3785.2
979.143,3781.8
979.412,3780.9
979.68,3783.6
979.949,3781.9
980.218,3782.8
980.487,3785.2
980.756,3785.1
981.025,3781.7
981.294,3782.7
981.563,3781.0
981.831,3779.5
982.1,3780.4
982.369,3782.6
982.638,3780.0
982.907,3780.5
983.175,3781.2
983.444,3778.4
983.713,3779.7
983.982,3781.6
984.25,3780.3
984.519,3778.5
984.788,3781.2
985.057,3778.4
985.325,3780.8
985.594,3779.6
985.863,3778.9
986.131,3780.7
986.4,3776.8
986.669,3781.5
986.937,3780.4
987.206,3780.9
987.475,3777.0
987.743,3776.0
988.012,3778.8
988.28,3776.3
988.549,3777.5
988.817,3778.1
989.086,3778.7
989.355,3777.6
989.623,3777.9
989.892,3776.5
990.16,3776.3
990.429,3776.5
990.697,3776.3
990.966,3778.6
991.234,3777.4
991.503,3775.8
991.771,3777.0
992.04,3777.3
992.308,3774.0
992.576,3775.9
992.845,3776.2
993.113,3775.1
993.382,3775.9
993.65,3777.5
993.918,3775.4
994.187,3774.0
994.455,3774.9
994.723,3774.9
994.992,3774.2
995.26,3775.7
995.528,3774.5
995.797,3774.1
996.065,3775.3
996.333,3775.3
996.602,3777.4
996.87,3776.7
997.138,3774.3
997.406,3776.2
997.675,3774.7
997.943,3776.4
998.211,3777.6
998.479,3774.4
998.747,3775.5
999.016,3773.8
999.284,3773.9
999.552,3775.7
999.82,3772.6
1000.09,3774.6
1000.36,3772.8
1000.62,3769.9
1000.89,3770.8
1001.16,3771.6
1001.43,3770.4
1001.7,3771.5
1001.97,3771.4
1002.23,3771.7
1002.5,3767.6
1002.77,3770.8
1003.04,3769.0
1003.31,3770.8
1003.57,3768.0
1003.84,3767.6
1004.11,3768.4
1004.38,3770.3
1004.65,3769.5
1004.91,3768.9
1005.18,3768.5
1005.45,3768.0
1005.72,3769.7
1005.98,3769.3
1006.25,3769.0
1006.52,3767.9
1006.79,3768.6
1007.06,3769.5
1007.32,3767.9
1007.59,3768.5
1007.86,3769.7
1008.13,3772.3
1008.4,3773.2
1008.66,3774.2
1008.93,3773.5
1009.2,3776.5
1009.47,3779.2
1009.73,3780.7
1010.0,3784.2
1010.27,3782.5
1010.54,3786.4
1010.81,3783.7
1011.07,3785.5
1011.34,3787.6
1011.61,3790.7
1011.88,3792.0
1012.14,3792.3
1012.41,3791.7
1012.68,3793.0
1012.95,3793.4
1013.21,3794.7
1013.48,3794.8
1013.75,3795.0
1014.02,3800.1
1014.29,3801.1
1014.55,3799.7
1014.82,3804.4
1015.09,3804.2
1015.36,3796.9
1015.62,3802.3
1015.89,3798.2
1016.16,3798.5
1016.43,3796.3
1016.69,3795.7
1016.96,3798.3
1017.23,3792.2
1017.5,3788.8
1017.76,3790.4
1018.03,3787.4
1018.3,3789.6
1018.57,3785.7
1018.83,3785.6
1019.1,3781.5
1019.37,3782.6
1019.63,3778.3
1019.9,3777.8
1020.17,3776.5
1020.44,3778.8
1020.7,3775.7
1020.97,3779.2
1021.24,3776.6
1021.51,3776.3
1021.77,3773.8
1022.04,3773.6
1022.31,3773.8
1022.58,3773.7
1022.84,3771.3
1023.11,3771.0
1023.38,3773.0
1023.64,3769.2
1023.91,3770.4
1024.18,3767.1
1024.45,3767.5
1024.71,3765.1
1024.98,3763.4
1025.25,3766.5
1025.51,3765.4
1025.78,3764.6
1026.05,3761.4
1026.32,3761.7
1026.58,3761.3
1026.85,3762.0
1027.12,3760.6
1027.38,3760.2
1027.65,3761.2
1027.92,3761.6
1028.19,3760.9
1028.45,3758.9
1028.72,3761.9
1028.99,3761.8
1029.25,3761.5
1029.52,3760.9
1029.79,3757.8
1030.05,3759.3
1030.32,3760.1
1030.59,3760.0
1030.85,3758.7
1031.12,3760.0
1031.39,3759.8
1031.66,3762.8
1031.92,3760.2
1032.19,3759.4
1032.46,3759.1
1032.72,3761.8
1032.99,3760.9
1033.26,3759.7
1033.52,3760.7
1033.79,3759.1
1034.06,3758.9
1034.32,3759.6
1034.59,3761.0
1034.86,3760.7
1035.12,3758.8
1035.39,3759.3
1035.66,3759.3
1035.92,3759.9
1036.19,3760.0
1036.46,3760.8
1036.72,3759.1
1036.99,3759.9
1037.26,3759.5
1037.52,3756.4
1037.79,3758.1
1038.06,3758.0
1038.32,3758.6
1038.59,3758.8
1038.86,3760.1
1039.12,3760.6
1039.39,3757.4
1039.66,3759.8
1039.92,3758.1
1040.19,3759.0
1040.46,3759.1
1040.72,3758.7
1040.99,3758.1
1041.26,3757.4
1041.52,3759.1
1041.79,3759.1
1042.06,3757.1
1042.32,3759.9
1042.59,3757.7
1042.86,3756.9
1043.12,3757.6
1043.39,3758.1
1043.65,3757.7
1043.92,3757.5
1044.19,3756.6
1044.45,3757.9
1044.72,3759.5
1044.99,3757.5
1045.25,3757.5
1045.52,3756.9
1045.79,3755.8
1046.05,3757.1
1046.32,3756.0
1046.58,3756.6
1046.85,3757.6
1047.12,3756.7
1047.38,3758.3
1047.65,3758.0
1047.92,3757.0
1048.18,3757.8
1048.45,3758.9
1048.71,3757.6
1048.98,3757.4
1049.25,3757.2
1049.51,3758.6
1049.78,3756.3
1050.04,3757.4
1050.31,3756.5
1050.58,3756.4
1050.84,3756.3
1051.11,3758.3
1051.37,3756.7
1051.64,3757.0
1051.91,3757.1
1052.17,3757.6
1052.44,3756.4
1052.7,3758.6
1052.97,3756.2
1053.24,3756.8
1053.5,3756.3
1053.77,3756.5
1054.03,3758.0
1054.3,3756.2
1054.57,3754.5
1054.83,3758.3
1055.1,3758.2
1055.36,3757.0
1055.63,3759.5
1055.9,3756.0
1056.16,3757.9
1056.43,3757.3
1056.69,3757.0
1056.96,3756.6
1057.23,3756.1
1057.49,3754.8
1057.76,3756.2
1058.02,3757.5
1058.29,3756.9
1058.55,3758.3
1058.82,3757.2
1059.09,3758.0
1059.35,3757.6
1059.62,3757.0
1059.88,3758.2
1060.15,3756.7
1060.41,3756.3
1060.68,3757.4
1060.95,3757.4
1061.21,3756.3
1061.48,3759.3
1061.74,3755.2
1062.01,3758.6
1062.27,3755.7
1062.54,3757.3
1062.8,3756.7
1063.07,3759.2
1063.34,3756.1
1063.6,3757.2
1063.87,3755.4
1064.13,3756.0
1064.4,3754.7
1064.66,3756.6
1064.93,3757.4
1065.19,3755.3
1065.46,3756.3
1065.73,3756.1
1065.99,3757.2
1066.26,3757.2
1066.52,3754.1
1066.79,3758.0
1067.05,3755.2
1067.32,3756.4
1067.58,3754.6
1067.85,3757.2
1068.11,3755.3
