cm-1,A
4000.0,-0.0022
3999.0,-0.0022
3998.0,-0.0021
3997.0,-0.0021
3996.0,-0.002
3995.0,-0.0021
3994.0,-0.0022
3993.0,-0.0023
3992.0,-0.0023
3991.0,-0.0023
3990.0,-0.0022
3989.0,-0.0022
3988.0,-0.0022
3987.0,-0.0022
3986.0,-0.0023
3985.0,-0.0023
3984.0,-0.0023
3983.0,-0.0023
3982.0,-0.0023
3981.0,-0.0022
3980.0,-0.0021
3979.0,-0.0021
3978.0,-0.0021
3977.0,-0.0021
3976.0,-0.0021
3975.0,-0.0021
3974.0,-0.0021
3973.0,-0.002
3972.0,-0.002
3971.0,-0.0021
3970.0,-0.0021
3969.0,-0.0022
3968.0,-0.0022
3967.0,-0.0021
3966.0,-0.0021
3965.0,-0.0021
3964.0,-0.0021
3963.0,-0.0022
3962.0,-0.0022
3961.0,-0.0023
3960.0,-0.0023
3959.0,-0.0023
3958.0,-0.0022
3957.0,-0.0022
3956.0,-0.0021
3955.0,-0.0021
3954.0,-0.0022
3953.0,-0.0022
3952.0,-0.0023
3951.0,-0.0024
3950.0,-0.0023
3949.0,-0.0023
3948.0,-0.0023
3947.0,-0.0023
3946.0,-0.0023
3945.0,-0.0023
3944.0,-0.0022
3943.0,-0.0022
3942.0,-0.0022
3941.0,-0.0022
3940.0,-0.0022
3939.0,-0.0022
3938.0,-0.0022
3937.0,-0.0022
3936.0,-0.0022
3935.0,-0.0022
3934.0,-0.0022
3933.0,-0.0023
3932.0,-0.0022
3931.0,-0.0023
3930.0,-0.0023
3929.0,-0.0023
3928.0,-0.0023
3927.0,-0.0022
3926.0,-0.0022
3925.0,-0.0021
3924.0,-0.0021
3923.0,-0.0021
3922.0,-0.0021
3921.0,-0.0022
3920.0,-0.0023
3919.0,-0.0024
3918.0,-0.0025
3917.0,-0.0025
3916.0,-0.0024
3915.0,-0.0023
3914.0,-0.0022
3913.0,-0.0021
3912.0,-0.0021
3911.0,-0.002
3910.0,-0.002
3909.0,-0.0021
3908.0,-0.0021
3907.0,-0.0021
3906.0,-0.0021
3905.0,-0.0021
3904.0,-0.0022
3903.0,-0.0023
3902.0,-0.0024
3901.0,-0.0024
3900.0,-0.0024
3899.0,-0.0024
3898.0,-0.0023
3897.0,-0.0021
3896.0,-0.002
3895.0,-0.002
3894.0,-0.0019
3893.0,-0.002
3892.0,-0.002
3891.0,-0.0021
3890.0,-0.0021
3889.0,-0.002
3888.0,-0.002
3887.0,-0.0021
3886.0,-0.0022
3885.0,-0.0023
3884.0,-0.0022
3883.0,-0.0021
3882.0,-0.0021
3881.0,-0.002
3880.0,-0.002
3879.0,-0.0019
3878.0,-0.0018
3877.0,-0.0018
3876.0,-0.0018
3875.0,-0.0019
3874.0,-0.002
3873.0,-0.0019
3872.0,-0.0019
3871.0,-0.002
3870.0,-0.002
3869.0,-0.002
3868.0,-0.0019
3867.0,-0.0018
3866.0,-0.0018
3865.0,-0.0019
3864.0,-0.002
3863.0,-0.002
3862.0,-0.002
3861.0,-0.002
3860.0,-0.0019
3859.0,-0.0019
3858.0,-0.0019
3857.0,-0.002
3856.0,-0.002
3855.0,-0.0019
3854.0,-0.0018
3853.0,-0.002
3852.0,-0.0021
3851.0,-0.002
3850.0,-0.0019
3849.0,-0.002
3848.0,-0.002
3847.0,-0.002
3846.0,-0.002
3845.0,-0.0019
3844.0,-0.0019
3843.0,-0.0019
3842.0,-0.0019
3841.0,-0.0019
3840.0,-0.0019
3839.0,-0.0018
3838.0,-0.0018
3837.0,-0.0018
3836.0,-0.0018
3835.0,-0.0018
3834.0,-0.0017
3833.0,-0.0017
3832.0,-0.0017
3831.0,-0.0017
3830.0,-0.0016
3829.0,-0.0016
3828.0,-0.0017
3827.0,-0.0018
3826.0,-0.0019
3825.0,-0.0019
3824.0,-0.0019
3823.0,-0.0018
3822.0,-0.0017
3821.0,-0.0016
3820.0,-0.0016
3819.0,-0.0015
3818.0,-0.0015
3817.0,-0.0016
3816.0,-0.0018
3815.0,-0.0019
3814.0,-0.0018
3813.0,-0.0018
3812.0,-0.0018
3811.0,-0.0017
3810.0,-0.0017
3809.0,-0.0016
3808.0,-0.0015
3807.0,-0.0016
3806.0,-0.0017
3805.0,-0.0016
3804.0,-0.0016
3803.0,-0.0016
3802.0,-0.0017
3801.0,-0.0018
3800.0,-0.0018
3799.0,-0.0017
3798.0,-0.0017
3797.0,-0.0018
3796.0,-0.0018
3795.0,-0.0017
3794.0,-0.0017
3793.0,-0.0016
3792.0,-0.0017
3791.0,-0.0017
3790.0,-0.0018
3789.0,-0.0018
3788.0,-0.0019
3787.0,-0.0019
3786.0,-0.0019
3785.0,-0.0019
3784.0,-0.0018
3783.0,-0.0018
3782.0,-0.0018
3781.0,-0.0018
3780.0,-0.0018
3779.0,-0.0018
3778.0,-0.0019
3777.0,-0.0018
3776.0,-0.0018
3775.0,-0.0018
3774.0,-0.0017
3773.0,-0.0016
3772.0,-0.0016
3771.0,-0.0016
3770.0,-0.0017
3769.0,-0.0018
3768.0,-0.0018
3767.0,-0.0017
3766.0,-0.0017
3765.0,-0.0017
3764.0,-0.0017
3763.0,-0.0016
3762.0,-0.0016
3761.0,-0.0015
3760.0,-0.0015
3759.0,-0.0015
3758.0,-0.0015
3757.0,-0.0015
3756.0,-0.0015
3755.0,-0.0015
3754.0,-0.0014
3753.0,-0.0013
3752.0,-0.0011
3751.0,-0.0012
3750.0,-0.0014
3749.0,-0.0016
3748.0,-0.0017
3747.0,-0.0017
3746.0,-0.0018
3745.0,-0.002
3744.0,-0.0021
3743.0,-0.0021
3742.0,-0.002
3741.0,-0.002
3740.0,-0.0023
3739.0,-0.0025
3738.0,-0.0027
3737.0,-0.0028
3736.0,-0.0028
3735.0,-0.0028
3734.0,-0.0028
3733.0,-0.0028
3732.0,-0.0028
3731.0,-0.0028
3730.0,-0.0029
3729.0,-0.0029
3728.0,-0.003
3727.0,-0.003
3726.0,-0.003
3725.0,-0.003
3724.0,-0.0028
3723.0,-0.0027
3722.0,-0.0025
3721.0,-0.0023
3720.0,-0.0022
3719.0,-0.002
3718.0,-0.0018
3717.0,-0.0015
3716.0,-0.0011
3715.0,-0.0009
3714.0,-0.0009
3713.0,-0.001
3712.0,-0.0013
3711.0,-0.0016
3710.0,-0.002
3709.0,-0.0023
3708.0,-0.0025
3707.0,-0.0026
3706.0,-0.0025
3705.0,-0.0025
3704.0,-0.0024
3703.0,-0.0024
3702.0,-0.0024
3701.0,-0.0025
3700.0,-0.0025
3699.0,-0.0024
3698.0,-0.0023
3697.0,-0.0023
3696.0,-0.0023
3695.0,-0.0022
3694.0,-0.0022
3693.0,-0.0021
3692.0,-0.0019
3691.0,-0.0016
3690.0,-0.0014
3689.0,-0.0014
3688.0,-0.0015
3687.0,-0.0015
3686.0,-0.0015
3685.0,-0.0014
3684.0,-0.0014
3683.0,-0.0013
3682.0,-0.0012
3681.0,-0.0011
3680.0,-0.001
3679.0,-0.001
3678.0,-0.0009
3677.0,-0.0007
3676.0,-0.0007
3675.0,-0.0007
3674.0,-0.0006
3673.0,-0.0004
3672.0,-0.0003
3671.0,-0.0003
3670.0,-0.0003
3669.0,-0.0003
3668.0,-0.0003
3667.0,-0.0002
3666.0,-0.0001
3665.0,-0.0
3664.0,0.0001
3663.0,0.0002
3662.0,0.0002
3661.0,0.0002
3660.0,0.0001
3659.0,0.0001
3658.0,0.0001
3657.0,0.0001
3656.0,0.0002
3655.0,0.0002
3654.0,0.0002
3653.0,0.0002
3652.0,0.0001
3651.0,0.0001
3650.0,0.0003
3649.0,0.0003
3648.0,0.0002
3647.0,0.0001
3646.0,0.0002
3645.0,0.0002
3644.0,0.0002
3643.0,0.0001
3642.0,-0.0
3641.0,-0.0001
3640.0,-0.0002
3639.0,-0.0003
3638.0,-0.0005
3637.0,-0.0006
3636.0,-0.0008
3635.0,-0.001
3634.0,-0.0011
3633.0,-0.0011
3632.0,-0.0012
3631.0,-0.0012
3630.0,-0.0011
3629.0,-0.0011
3628.0,-0.0011
3627.0,-0.001
3626.0,-0.0009
3625.0,-0.0008
3624.0,-0.0008
3623.0,-0.0008
3622.0,-0.0007
3621.0,-0.0006
3620.0,-0.0006
3619.0,-0.0007
3618.0,-0.0007
3617.0,-0.0006
3616.0,-0.0004
3615.0,-0.0002
3614.0,0.0
3613.0,0.0001
3612.0,-0.0001
3611.0,-0.0004
3610.0,-0.0007
3609.0,-0.0009
3608.0,-0.001
3607.0,-0.001
3606.0,-0.0009
3605.0,-0.0009
3604.0,-0.0008
3603.0,-0.0007
3602.0,-0.0006
3601.0,-0.0005
3600.0,-0.0006
3599.0,-0.0007
3598.0,-0.0008
3597.0,-0.0008
3596.0,-0.0007
3595.0,-0.0007
3594.0,-0.0007
3593.0,-0.0007
3592.0,-0.0008
3591.0,-0.0008
3590.0,-0.0008
3589.0,-0.0006
3588.0,-0.0004
3587.0,-0.0003
3586.0,-0.0002
3585.0,-0.0001
3584.0,0.0
3583.0,0.0002
3582.0,0.0003
3581.0,0.0003
3580.0,0.0004
3579.0,0.0004
3578.0,0.0004
3577.0,0.0004
3576.0,0.0004
3575.0,0.0003
3574.0,0.0003
3573.0,0.0004
3572.0,0.0005
3571.0,0.0006
3570.0,0.0007
3569.0,0.0008
3568.0,0.0009
3567.0,0.0009
3566.0,0.0008
3565.0,0.0007
3564.0,0.0007
3563.0,0.0007
3562.0,0.0007
3561.0,0.0007
3560.0,0.0008
3559.0,0.0008
3558.0,0.0007
3557.0,0.0007
3556.0,0.0008
3555.0,0.0009
3554.0,0.0009
3553.0,0.001
3552.0,0.001
3551.0,0.001
3550.0,0.001
3549.0,0.0009
3548.0,0.0009
3547.0,0.0009
3546.0,0.0009
3545.0,0.0009
3544.0,0.0009
3543.0,0.001
3542.0,0.0011
3541.0,0.0012
3540.0,0.0013
3539.0,0.0013
3538.0,0.0014
3537.0,0.0014
3536.0,0.0014
3535.0,0.0015
3534.0,0.0016
3533.0,0.0017
3532.0,0.0018
3531.0,0.0019
3530.0,0.002
3529.0,0.0022
3528.0,0.0022
3527.0,0.0022
3526.0,0.0021
3525.0,0.002
3524.0,0.0019
3523.0,0.002
3522.0,0.0022
3521.0,0.0025
3520.0,0.0027
3519.0,0.0028
3518.0,0.0029
3517.0,0.003
3516.0,0.0031
3515.0,0.0031
3514.0,0.0032
3513.0,0.0032
3512.0,0.0033
3511.0,0.0033
3510.0,0.0033
3509.0,0.0033
3508.0,0.0033
3507.0,0.0034
3506.0,0.0034
3505.0,0.0035
3504.0,0.0035
3503.0,0.0034
3502.0,0.0033
3501.0,0.0033
3500.0,0.0033
3499.0,0.0033
3498.0,0.0034
3497.0,0.0034
3496.0,0.0034
3495.0,0.0033
3494.0,0.0032
3493.0,0.0031
3492.0,0.003
3491.0,0.0029
3490.0,0.0028
3489.0,0.0027
3488.0,0.0027
3487.0,0.0027
3486.0,0.0026
3485.0,0.0025
3484.0,0.0025
3483.0,0.0024
3482.0,0.0023
3481.0,0.0022
3480.0,0.0021
3479.0,0.002
3478.0,0.002
3477.0,0.002
3476.0,0.0021
3475.0,0.002
3474.0,0.002
3473.0,0.0018
3472.0,0.0017
3471.0,0.0017
3470.0,0.0017
3469.0,0.0017
3468.0,0.0017
3467.0,0.0016
3466.0,0.0016
3465.0,0.0016
3464.0,0.0016
3463.0,0.0015
3462.0,0.0014
3461.0,0.0014
3460.0,0.0013
3459.0,0.0012
3458.0,0.0011
3457.0,0.0011
3456.0,0.0011
3455.0,0.0011
3454.0,0.0011
3453.0,0.001
3452.0,0.001
3451.0,0.001
3450.0,0.001
3449.0,0.0011
3448.0,0.0011
3447.0,0.001
3446.0,0.001
3445.0,0.001
3444.0,0.001
3443.0,0.001
3442.0,0.001
3441.0,0.001
3440.0,0.001
3439.0,0.0009
3438.0,0.001
3437.0,0.001
3436.0,0.0011
3435.0,0.0012
3434.0,0.0012
3433.0,0.0012
3432.0,0.0012
3431.0,0.0011
3430.0,0.0011
3429.0,0.0011
3428.0,0.001
3427.0,0.0009
3426.0,0.0009
3425.0,0.001
3424.0,0.0011
3423.0,0.0011
3422.0,0.0012
3421.0,0.0012
3420.0,0.0012
3419.0,0.0012
3418.0,0.0011
3417.0,0.0011
3416.0,0.001
3415.0,0.0009
3414.0,0.0008
3413.0,0.0008
3412.0,0.0009
3411.0,0.001
3410.0,0.0012
3409.0,0.0012
3408.0,0.0012
3407.0,0.0011
3406.0,0.0011
3405.0,0.0011
3404.0,0.001
3403.0,0.001
3402.0,0.0009
3401.0,0.0009
3400.0,0.0009
3399.0,0.0009
3398.0,0.0009
3397.0,0.0009
3396.0,0.0009
3395.0,0.0009
3394.0,0.0009
3393.0,0.0009
3392.0,0.0009
3391.0,0.0008
3390.0,0.0008
3389.0,0.0009
3388.0,0.001
3387.0,0.0011
3386.0,0.0011
3385.0,0.0011
3384.0,0.001
3383.0,0.0009
3382.0,0.0009
3381.0,0.0009
3380.0,0.0009
3379.0,0.0008
3378.0,0.0008
3377.0,0.0008
3376.0,0.0009
3375.0,0.0008
3374.0,0.0008
3373.0,0.0008
3372.0,0.0008
3371.0,0.0008
3370.0,0.0008
3369.0,0.0009
3368.0,0.0008
3367.0,0.0008
3366.0,0.0007
3365.0,0.0007
3364.0,0.0007
3363.0,0.0007
3362.0,0.0006
3361.0,0.0005
3360.0,0.0006
3359.0,0.0007
3358.0,0.0008
3357.0,0.0009
3356.0,0.0009
3355.0,0.0009
3354.0,0.0008
3353.0,0.0008
3352.0,0.0008
3351.0,0.0009
3350.0,0.001
3349.0,0.0011
3348.0,0.001
3347.0,0.001
3346.0,0.0009
3345.0,0.0009
3344.0,0.0009
3343.0,0.0009
3342.0,0.0009
3341.0,0.0009
3340.0,0.0009
3339.0,0.0009
3338.0,0.0009
3337.0,0.001
3336.0,0.001
3335.0,0.001
3334.0,0.001
3333.0,0.001
3332.0,0.001
3331.0,0.0011
3330.0,0.0011
3329.0,0.0012
3328.0,0.0012
3327.0,0.0011
3326.0,0.0009
3325.0,0.0008
3324.0,0.0007
3323.0,0.0006
3322.0,0.0006
3321.0,0.0005
3320.0,0.0005
3319.0,0.0005
3318.0,0.0005
3317.0,0.0005
3316.0,0.0005
3315.0,0.0005
3314.0,0.0005
3313.0,0.0006
3312.0,0.0005
3311.0,0.0004
3310.0,0.0004
3309.0,0.0005
3308.0,0.0006
3307.0,0.0006
3306.0,0.0006
3305.0,0.0006
3304.0,0.0006
3303.0,0.0007
3302.0,0.0008
3301.0,0.0009
3300.0,0.001
3299.0,0.001
3298.0,0.0009
3297.0,0.0008
3296.0,0.0007
3295.0,0.0007
3294.0,0.0007
3293.0,0.0007
3292.0,0.0008
3291.0,0.0008
3290.0,0.0009
3289.0,0.0008
3288.0,0.0008
3287.0,0.0007
3286.0,0.0006
3285.0,0.0006
3284.0,0.0006
3283.0,0.0006
3282.0,0.0006
3281.0,0.0007
3280.0,0.0008
3279.0,0.0008
3278.0,0.0008
3277.0,0.0007
3276.0,0.0006
3275.0,0.0006
3274.0,0.0005
3273.0,0.0004
3272.0,0.0004
3271.0,0.0004
3270.0,0.0005
3269.0,0.0006
3268.0,0.0006
3267.0,0.0005
3266.0,0.0005
3265.0,0.0004
3264.0,0.0005
3263.0,0.0005
3262.0,0.0007
3261.0,0.0007
3260.0,0.0008
3259.0,0.0007
3258.0,0.0006
3257.0,0.0005
3256.0,0.0005
3255.0,0.0004
3254.0,0.0003
3253.0,0.0003
3252.0,0.0003
3251.0,0.0003
3250.0,0.0003
3249.0,0.0004
3248.0,0.0005
3247.0,0.0006
3246.0,0.0006
3245.0,0.0006
3244.0,0.0006
3243.0,0.0006
3242.0,0.0006
3241.0,0.0007
3240.0,0.0007
3239.0,0.0006
3238.0,0.0005
3237.0,0.0004
3236.0,0.0003
3235.0,0.0003
3234.0,0.0002
3233.0,0.0002
3232.0,0.0003
3231.0,0.0003
3230.0,0.0003
3229.0,0.0004
3228.0,0.0004
3227.0,0.0005
3226.0,0.0005
3225.0,0.0004
3224.0,0.0004
3223.0,0.0004
3222.0,0.0004
3221.0,0.0005
3220.0,0.0006
3219.0,0.0007
3218.0,0.0007
3217.0,0.0007
3216.0,0.0006
3215.0,0.0006
3214.0,0.0005
3213.0,0.0005
3212.0,0.0006
3211.0,0.0007
3210.0,0.0007
3209.0,0.0008
3208.0,0.0007
3207.0,0.0005
3206.0,0.0003
3205.0,0.0002
3204.0,0.0002
3203.0,0.0003
3202.0,0.0003
3201.0,0.0003
3200.0,0.0004
3199.0,0.0004
3198.0,0.0004
3197.0,0.0004
3196.0,0.0004
3195.0,0.0004
3194.0,0.0003
3193.0,0.0002
3192.0,0.0003
3191.0,0.0003
3190.0,0.0003
3189.0,0.0003
3188.0,0.0002
3187.0,0.0002
3186.0,0.0002
3185.0,0.0002
3184.0,0.0003
3183.0,0.0004
3182.0,0.0003
3181.0,0.0002
3180.0,0.0001
3179.0,0.0001
3178.0,0.0002
3177.0,0.0002
3176.0,0.0002
3175.0,0.0002
3174.0,0.0002
3173.0,0.0002
3172.0,0.0002
3171.0,0.0001
3170.0,0.0001
3169.0,0.0
3168.0,-0.0001
3167.0,-0.0001
3166.0,-0.0002
3165.0,-0.0003
3164.0,-0.0003
3163.0,-0.0003
3162.0,-0.0002
3161.0,-0.0
3160.0,0.0001
3159.0,0.0002
3158.0,0.0001
3157.0,0.0
3156.0,-0.0001
3155.0,-0.0001
3154.0,-0.0002
3153.0,-0.0002
3152.0,-0.0002
3151.0,-0.0001
3150.0,-0.0
3149.0,0.0
3148.0,-0.0
3147.0,-0.0001
3146.0,-0.0001
3145.0,-0.0001
3144.0,-0.0001
3143.0,-0.0001
3142.0,-0.0001
3141.0,-0.0001
3140.0,-0.0001
3139.0,-0.0001
3138.0,-0.0001
3137.0,-0.0002
3136.0,-0.0002
3135.0,-0.0003
3134.0,-0.0003
3133.0,-0.0003
3132.0,-0.0002
3131.0,-0.0002
3130.0,-0.0002
3129.0,-0.0003
3128.0,-0.0004
3127.0,-0.0005
3126.0,-0.0005
3125.0,-0.0004
3124.0,-0.0004
3123.0,-0.0004
3122.0,-0.0005
3121.0,-0.0005
3120.0,-0.0005
3119.0,-0.0004
3118.0,-0.0005
3117.0,-0.0005
3116.0,-0.0005
3115.0,-0.0005
3114.0,-0.0005
3113.0,-0.0005
3112.0,-0.0005
3111.0,-0.0005
3110.0,-0.0005
3109.0,-0.0004
3108.0,-0.0004
3107.0,-0.0004
3106.0,-0.0003
3105.0,-0.0003
3104.0,-0.0003
3103.0,-0.0004
3102.0,-0.0005
3101.0,-0.0006
3100.0,-0.0006
3099.0,-0.0006
3098.0,-0.0005
3097.0,-0.0005
3096.0,-0.0004
3095.0,-0.0004
3094.0,-0.0004
3093.0,-0.0004
3092.0,-0.0004
3091.0,-0.0005
3090.0,-0.0006
3089.0,-0.0007
3088.0,-0.0007
3087.0,-0.0007
3086.0,-0.0006
3085.0,-0.0006
3084.0,-0.0006
3083.0,-0.0006
3082.0,-0.0006
3081.0,-0.0006
3080.0,-0.0006
3079.0,-0.0005
3078.0,-0.0005
3077.0,-0.0005
3076.0,-0.0006
3075.0,-0.0006
3074.0,-0.0006
3073.0,-0.0006
3072.0,-0.0005
3071.0,-0.0005
3070.0,-0.0005
3069.0,-0.0005
3068.0,-0.0006
3067.0,-0.0006
3066.0,-0.0007
3065.0,-0.0007
3064.0,-0.0007
3063.0,-0.0006
3062.0,-0.0006
3061.0,-0.0006
3060.0,-0.0006
3059.0,-0.0006
3058.0,-0.0006
3057.0,-0.0006
3056.0,-0.0005
3055.0,-0.0005
3054.0,-0.0005
3053.0,-0.0005
3052.0,-0.0005
3051.0,-0.0005
3050.0,-0.0005
3049.0,-0.0005
3048.0,-0.0005
3047.0,-0.0006
3046.0,-0.0006
3045.0,-0.0007
3044.0,-0.0007
3043.0,-0.0007
3042.0,-0.0006
3041.0,-0.0006
3040.0,-0.0006
3039.0,-0.0006
3038.0,-0.0006
3037.0,-0.0005
3036.0,-0.0004
3035.0,-0.0003
3034.0,-0.0002
3033.0,-0.0001
3032.0,-0.0
3031.0,0.0
3030.0,0.0002
3029.0,0.0003
3028.0,0.0005
3027.0,0.0006
3026.0,0.0008
3025.0,0.001
3024.0,0.0013
3023.0,0.0016
3022.0,0.0019
3021.0,0.0022
3020.0,0.0026
3019.0,0.0032
3018.0,0.0037
3017.0,0.0043
3016.0,0.0049
3015.0,0.0057
3014.0,0.0065
3013.0,0.0073
3012.0,0.0083
3011.0,0.0092
3010.0,0.0102
3009.0,0.0112
3008.0,0.0122
3007.0,0.0133
3006.0,0.0145
3005.0,0.0156
3004.0,0.0168
3003.0,0.018
3002.0,0.0192
3001.0,0.0203
3000.0,0.0213
2999.0,0.0222
2998.0,0.0228
2997.0,0.0233
2996.0,0.0235
2995.0,0.0234
2994.0,0.023
2993.0,0.0222
2992.0,0.0212
2991.0,0.0199
2990.0,0.0185
2989.0,0.0171
2988.0,0.0158
2987.0,0.0145
2986.0,0.0133
2985.0,0.0123
2984.0,0.0115
2983.0,0.0108
2982.0,0.0102
2981.0,0.0097
2980.0,0.0093
2979.0,0.0089
2978.0,0.0086
2977.0,0.0084
2976.0,0.0083
2975.0,0.0082
2974.0,0.0082
2973.0,0.0082
2972.0,0.0083
2971.0,0.0084
2970.0,0.0085
2969.0,0.0085
2968.0,0.0086
2967.0,0.0087
2966.0,0.0088
2965.0,0.0089
2964.0,0.0092
2963.0,0.0095
2962.0,0.0097
2961.0,0.01
2960.0,0.0103
2959.0,0.0106
2958.0,0.0111
2957.0,0.0115
2956.0,0.0121
2955.0,0.0127
2954.0,0.0134
2953.0,0.0142
2952.0,0.015
2951.0,0.0159
2950.0,0.0168
2949.0,0.0176
2948.0,0.0183
2947.0,0.0188
2946.0,0.0191
2945.0,0.0191
2944.0,0.0187
2943.0,0.0181
2942.0,0.0172
2941.0,0.0162
2940.0,0.0151
2939.0,0.014
2938.0,0.013
2937.0,0.0121
2936.0,0.0112
2935.0,0.0105
2934.0,0.0099
2933.0,0.0094
2932.0,0.009
2931.0,0.0086
2930.0,0.0083
2929.0,0.008
2928.0,0.0077
2927.0,0.0074
2926.0,0.0071
2925.0,0.0068
2924.0,0.0066
2923.0,0.0064
2922.0,0.0062
2921.0,0.0059
2920.0,0.0057
2919.0,0.0055
2918.0,0.0053
2917.0,0.0052
2916.0,0.005
2915.0,0.0048
2914.0,0.0047
2913.0,0.0046
2912.0,0.0045
2911.0,0.0045
2910.0,0.0045
2909.0,0.0044
2908.0,0.0043
2907.0,0.0043
2906.0,0.0043
2905.0,0.0044
2904.0,0.0044
2903.0,0.0043
2902.0,0.0043
2901.0,0.0042
2900.0,0.0042
2899.0,0.0041
2898.0,0.004
2897.0,0.004
2896.0,0.004
2895.0,0.0039
2894.0,0.004
2893.0,0.004
2892.0,0.0041
2891.0,0.0041
2890.0,0.0041
2889.0,0.0042
2888.0,0.0043
2887.0,0.0045
2886.0,0.0047
2885.0,0.0049
2884.0,0.0051
2883.0,0.0052
2882.0,0.0053
2881.0,0.0053
2880.0,0.0053
2879.0,0.0052
2878.0,0.0051
2877.0,0.0049
2876.0,0.0046
2875.0,0.0042
2874.0,0.0038
2873.0,0.0034
2872.0,0.0031
2871.0,0.0029
2870.0,0.0026
2869.0,0.0025
2868.0,0.0023
2867.0,0.0022
2866.0,0.0021
2865.0,0.002
2864.0,0.0019
2863.0,0.0018
2862.0,0.0018
2861.0,0.0017
2860.0,0.0017
2859.0,0.0017
2858.0,0.0017
2857.0,0.0017
2856.0,0.0018
2855.0,0.0018
2854.0,0.0018
2853.0,0.0018
2852.0,0.0018
2851.0,0.0017
2850.0,0.0016
2849.0,0.0014
2848.0,0.0013
2847.0,0.0012
2846.0,0.0011
2845.0,0.001
2844.0,0.001
2843.0,0.0009
2842.0,0.0009
2841.0,0.0009
2840.0,0.0009
2839.0,0.0009
2838.0,0.0008
2837.0,0.0008
2836.0,0.0008
2835.0,0.0007
2834.0,0.0008
2833.0,0.0008
2832.0,0.0009
2831.0,0.0009
2830.0,0.0009
2829.0,0.0008
2828.0,0.0008
2827.0,0.0007
2826.0,0.0007
2825.0,0.0007
2824.0,0.0007
2823.0,0.0007
2822.0,0.0006
2821.0,0.0005
2820.0,0.0004
2819.0,0.0004
2818.0,0.0003
2817.0,0.0003
2816.0,0.0002
2815.0,0.0002
2814.0,0.0002
2813.0,0.0002
2812.0,0.0002
2811.0,0.0001
2810.0,0.0001
2809.0,0.0
2808.0,0.0001
2807.0,0.0001
2806.0,0.0002
2805.0,0.0001
2804.0,0.0001
2803.0,-0.0
2802.0,-0.0001
2801.0,-0.0001
2800.0,-0.0001
2799.0,-0.0
2798.0,0.0
2797.0,-0.0
2796.0,-0.0001
2795.0,-0.0002
2794.0,-0.0002
2793.0,-0.0003
2792.0,-0.0003
2791.0,-0.0004
2790.0,-0.0004
2789.0,-0.0004
2788.0,-0.0003
2787.0,-0.0003
2786.0,-0.0004
2785.0,-0.0004
2784.0,-0.0004
2783.0,-0.0005
2782.0,-0.0005
2781.0,-0.0006
2780.0,-0.0006
2779.0,-0.0006
2778.0,-0.0007
2777.0,-0.0007
2776.0,-0.0007
2775.0,-0.0007
2774.0,-0.0007
2773.0,-0.0007
2772.0,-0.0007
2771.0,-0.0007
2770.0,-0.0007
2769.0,-0.0006
2768.0,-0.0006
2767.0,-0.0006
2766.0,-0.0006
2765.0,-0.0006
2764.0,-0.0006
2763.0,-0.0006
2762.0,-0.0006
2761.0,-0.0006
2760.0,-0.0006
2759.0,-0.0006
2758.0,-0.0006
2757.0,-0.0006
2756.0,-0.0006
2755.0,-0.0006
2754.0,-0.0006
2753.0,-0.0006
2752.0,-0.0007
2751.0,-0.0007
2750.0,-0.0007
2749.0,-0.0007
2748.0,-0.0007
2747.0,-0.0007
2746.0,-0.0008
2745.0,-0.0007
2744.0,-0.0007
2743.0,-0.0007
2742.0,-0.0007
2741.0,-0.0007
2740.0,-0.0007
2739.0,-0.0007
2738.0,-0.0007
2737.0,-0.0007
2736.0,-0.0008
2735.0,-0.0008
2734.0,-0.0008
2733.0,-0.0007
2732.0,-0.0007
2731.0,-0.0007
2730.0,-0.0007
2729.0,-0.0008
2728.0,-0.0008
2727.0,-0.0009
2726.0,-0.0008
2725.0,-0.0008
2724.0,-0.0007
2723.0,-0.0007
2722.0,-0.0007
2721.0,-0.0007
2720.0,-0.0007
2719.0,-0.0007
2718.0,-0.0007
2717.0,-0.0008
2716.0,-0.0008
2715.0,-0.0008
2714.0,-0.0008
2713.0,-0.0008
2712.0,-0.0008
2711.0,-0.0008
2710.0,-0.0008
2709.0,-0.0008
2708.0,-0.0008
2707.0,-0.0008
2706.0,-0.0007
2705.0,-0.0007
2704.0,-0.0007
2703.0,-0.0007
2702.0,-0.0008
2701.0,-0.0008
2700.0,-0.0008
2699.0,-0.0008
2698.0,-0.0007
2697.0,-0.0007
2696.0,-0.0007
2695.0,-0.0007
2694.0,-0.0007
2693.0,-0.0007
2692.0,-0.0007
2691.0,-0.0007
2690.0,-0.0007
2689.0,-0.0007
2688.0,-0.0007
2687.0,-0.0007
2686.0,-0.0007
2685.0,-0.0007
2684.0,-0.0007
2683.0,-0.0007
2682.0,-0.0007
2681.0,-0.0007
2680.0,-0.0007
2679.0,-0.0007
2678.0,-0.0007
2677.0,-0.0007
2676.0,-0.0007
2675.0,-0.0007
2674.0,-0.0007
2673.0,-0.0007
2672.0,-0.0007
2671.0,-0.0006
2670.0,-0.0007
2669.0,-0.0007
2668.0,-0.0007
2667.0,-0.0006
2666.0,-0.0006
2665.0,-0.0006
2664.0,-0.0006
2663.0,-0.0006
2662.0,-0.0006
2661.0,-0.0006
2660.0,-0.0006
2659.0,-0.0007
2658.0,-0.0008
2657.0,-0.0008
2656.0,-0.0007
2655.0,-0.0007
2654.0,-0.0007
2653.0,-0.0007
2652.0,-0.0007
2651.0,-0.0006
2650.0,-0.0006
2649.0,-0.0006
2648.0,-0.0005
2647.0,-0.0005
2646.0,-0.0005
2645.0,-0.0005
2644.0,-0.0005
2643.0,-0.0006
2642.0,-0.0007
2641.0,-0.0007
2640.0,-0.0007
2639.0,-0.0007
2638.0,-0.0007
2637.0,-0.0008
2636.0,-0.0007
2635.0,-0.0008
2634.0,-0.0008
2633.0,-0.0008
2632.0,-0.0008
2631.0,-0.0007
2630.0,-0.0007
2629.0,-0.0007
2628.0,-0.0007
2627.0,-0.0007
2626.0,-0.0008
2625.0,-0.0008
2624.0,-0.0008
2623.0,-0.0008
2622.0,-0.0008
2621.0,-0.0009
2620.0,-0.0009
2619.0,-0.001
2618.0,-0.001
2617.0,-0.001
2616.0,-0.001
2615.0,-0.001
2614.0,-0.001
2613.0,-0.001
2612.0,-0.001
2611.0,-0.001
2610.0,-0.0011
2609.0,-0.0011
2608.0,-0.0011
2607.0,-0.0011
2606.0,-0.0011
2605.0,-0.0011
2604.0,-0.0011
2603.0,-0.0011
2602.0,-0.0011
2601.0,-0.0011
2600.0,-0.001
2599.0,-0.001
2598.0,-0.001
2597.0,-0.001
2596.0,-0.0009
2595.0,-0.0009
2594.0,-0.0009
2593.0,-0.0009
2592.0,-0.0009
2591.0,-0.0008
2590.0,-0.0008
2589.0,-0.0009
2588.0,-0.0009
2587.0,-0.0009
2586.0,-0.001
2585.0,-0.0009
2584.0,-0.0008
2583.0,-0.0008
2582.0,-0.0009
2581.0,-0.0009
2580.0,-0.001
2579.0,-0.001
2578.0,-0.001
2577.0,-0.001
2576.0,-0.001
2575.0,-0.0011
2574.0,-0.0011
2573.0,-0.0012
2572.0,-0.0012
2571.0,-0.0012
2570.0,-0.0012
2569.0,-0.0012
2568.0,-0.0012
2567.0,-0.0012
2566.0,-0.0013
2565.0,-0.0013
2564.0,-0.0013
2563.0,-0.0013
2562.0,-0.0013
2561.0,-0.0013
2560.0,-0.0013
2559.0,-0.0013
2558.0,-0.0014
2557.0,-0.0014
2556.0,-0.0013
2555.0,-0.0013
2554.0,-0.0014
2553.0,-0.0014
2552.0,-0.0014
2551.0,-0.0014
2550.0,-0.0014
2549.0,-0.0014
2548.0,-0.0013
2547.0,-0.0013
2546.0,-0.0012
2545.0,-0.0012
2544.0,-0.0012
2543.0,-0.0012
2542.0,-0.0012
2541.0,-0.0012
2540.0,-0.0012
2539.0,-0.0013
2538.0,-0.0014
2537.0,-0.0014
2536.0,-0.0014
2535.0,-0.0014
2534.0,-0.0014
2533.0,-0.0014
2532.0,-0.0014
2531.0,-0.0014
2530.0,-0.0014
2529.0,-0.0014
2528.0,-0.0014
2527.0,-0.0014
2526.0,-0.0014
2525.0,-0.0014
2524.0,-0.0014
2523.0,-0.0014
2522.0,-0.0015
2521.0,-0.0015
2520.0,-0.0014
2519.0,-0.0014
2518.0,-0.0015
2517.0,-0.0015
2516.0,-0.0015
2515.0,-0.0015
2514.0,-0.0015
2513.0,-0.0014
2512.0,-0.0014
2511.0,-0.0015
2510.0,-0.0015
2509.0,-0.0015
2508.0,-0.0015
2507.0,-0.0015
2506.0,-0.0015
2505.0,-0.0015
2504.0,-0.0015
2503.0,-0.0015
2502.0,-0.0015
2501.0,-0.0015
2500.0,-0.0015
2499.0,-0.0015
2498.0,-0.0016
2497.0,-0.0016
2496.0,-0.0016
2495.0,-0.0016
2494.0,-0.0016
2493.0,-0.0016
2492.0,-0.0016
2491.0,-0.0016
2490.0,-0.0016
2489.0,-0.0016
2488.0,-0.0017
2487.0,-0.0017
2486.0,-0.0018
2485.0,-0.0018
2484.0,-0.0018
2483.0,-0.0018
2482.0,-0.0018
2481.0,-0.0018
2480.0,-0.0017
2479.0,-0.0018
2478.0,-0.0018
2477.0,-0.0018
2476.0,-0.0018
2475.0,-0.0018
2474.0,-0.0019
2473.0,-0.0019
2472.0,-0.002
2471.0,-0.002
2470.0,-0.0019
2469.0,-0.0019
2468.0,-0.0019
2467.0,-0.0019
2466.0,-0.0019
2465.0,-0.002
2464.0,-0.002
2463.0,-0.0019
2462.0,-0.0019
2461.0,-0.0019
2460.0,-0.0019
2459.0,-0.0019
2458.0,-0.0019
2457.0,-0.0019
2456.0,-0.0019
2455.0,-0.002
2454.0,-0.0021
2453.0,-0.0021
2452.0,-0.0021
2451.0,-0.002
2450.0,-0.0019
2449.0,-0.0019
2448.0,-0.0019
2447.0,-0.0019
2446.0,-0.0019
2445.0,-0.0019
2444.0,-0.0019
2443.0,-0.0018
2442.0,-0.0018
2441.0,-0.0018
2440.0,-0.0018
2439.0,-0.0018
2438.0,-0.0018
2437.0,-0.0018
2436.0,-0.0018
2435.0,-0.0018
2434.0,-0.0017
2433.0,-0.0017
2432.0,-0.0016
2431.0,-0.0016
2430.0,-0.0016
2429.0,-0.0015
2428.0,-0.0015
2427.0,-0.0015
2426.0,-0.0015
2425.0,-0.0015
2424.0,-0.0014
2423.0,-0.0014
2422.0,-0.0013
2421.0,-0.0013
2420.0,-0.0013
2419.0,-0.0014
2418.0,-0.0014
2417.0,-0.0014
2416.0,-0.0014
2415.0,-0.0013
2414.0,-0.0013
2413.0,-0.0013
2412.0,-0.0013
2411.0,-0.0013
2410.0,-0.0013
2409.0,-0.0012
2408.0,-0.0012
2407.0,-0.0011
2406.0,-0.0011
2405.0,-0.0011
2404.0,-0.001
2403.0,-0.001
2402.0,-0.001
2401.0,-0.001
2400.0,-0.001
2399.0,-0.001
2398.0,-0.001
2397.0,-0.001
2396.0,-0.001
2395.0,-0.001
2394.0,-0.001
2393.0,-0.001
2392.0,-0.0011
2391.0,-0.0012
2390.0,-0.0012
2389.0,-0.0013
2388.0,-0.002
2387.0,-0.0025
2386.0,-0.0032
2385.0,-0.0041
2384.0,-0.0053
2383.0,-0.0069
2382.0,-0.0087
2381.0,-0.0108
2380.0,-0.0129
2379.0,-0.0149
2378.0,-0.0169
2377.0,-0.0188
2376.0,-0.0206
2375.0,-0.0223
2374.0,-0.0238
2373.0,-0.0251
2372.0,-0.0259
2371.0,-0.0266
2370.0,-0.0271
2369.0,-0.0272
2368.0,-0.0264
2367.0,-0.025
2366.0,-0.0236
2365.0,-0.0222
2364.0,-0.0202
2363.0,-0.0181
2362.0,-0.0169
2361.0,-0.0163
2360.0,-0.0168
2359.0,-0.0189
2358.0,-0.0214
2357.0,-0.0224
2356.0,-0.0215
2355.0,-0.0207
2354.0,0.007
2353.0,0.0044
2352.0,0.0022
2351.0,0.0004
2350.0,-0.0008
2349.0,-0.0015
2348.0,-0.0017
2347.0,-0.0014
2346.0,-0.0004
2345.0,0.0011
2344.0,0.0025
2343.0,0.0032
2342.0,0.0031
2341.0,0.003
2340.0,0.0034
2339.0,0.004
2338.0,0.0044
2337.0,-0.0213
2336.0,-0.0219
2335.0,-0.0229
2334.0,-0.0247
2333.0,-0.0263
2332.0,-0.0279
2331.0,-0.0284
2330.0,-0.0287
2329.0,-0.0279
2328.0,-0.0268
2327.0,-0.0258
2326.0,-0.0254
2325.0,-0.0258
2324.0,-0.0263
2323.0,-0.0269
2322.0,-0.0269
2321.0,-0.0261
2320.0,-0.025
2319.0,-0.0237
2318.0,-0.0226
2317.0,-0.0213
2316.0,-0.0026
2315.0,-0.0025
2314.0,-0.0025
2313.0,-0.0027
2312.0,-0.0028
2311.0,-0.0028
2310.0,-0.0028
2309.0,-0.0027
2308.0,-0.0027
2307.0,-0.0028
2306.0,-0.0028
2305.0,-0.0029
2304.0,-0.0029
2303.0,-0.0029
2302.0,-0.003
2301.0,-0.003
2300.0,-0.003
2299.0,-0.003
2298.0,-0.0029
2297.0,-0.0029
2296.0,-0.0029
2295.0,-0.0029
2294.0,-0.0071
2293.0,-0.0066
2292.0,-0.0062
2291.0,-0.0058
2290.0,-0.0054
2289.0,-0.0051
2288.0,-0.0048
2287.0,-0.0045
2286.0,-0.0042
2285.0,-0.004
2284.0,-0.0037
2283.0,-0.0036
2282.0,-0.0036
2281.0,-0.0037
2280.0,-0.0037
2279.0,-0.0037
2278.0,-0.0037
2277.0,-0.0037
2276.0,-0.0037
2275.0,-0.0037
2274.0,-0.0037
2273.0,-0.0037
2272.0,-0.0037
2271.0,-0.0037
2270.0,-0.0037
2269.0,-0.0038
2268.0,-0.0038
2267.0,-0.0038
2266.0,-0.0038
2265.0,-0.0038
2264.0,-0.0038
2263.0,-0.0038
2262.0,-0.0037
2261.0,-0.0037
2260.0,-0.0036
2259.0,-0.0037
2258.0,-0.0037
2257.0,-0.0037
2256.0,-0.0037
2255.0,-0.0036
2254.0,-0.0037
2253.0,-0.0037
2252.0,-0.0037
2251.0,-0.0037
2250.0,-0.0036
2249.0,-0.0036
2248.0,-0.0036
2247.0,-0.0036
2246.0,-0.0036
2245.0,-0.0037
2244.0,-0.0037
2243.0,-0.0036
2242.0,-0.0036
2241.0,-0.0036
2240.0,-0.0036
2239.0,-0.0036
2238.0,-0.0037
2237.0,-0.0037
2236.0,-0.0037
2235.0,-0.0038
2234.0,-0.0038
2233.0,-0.0038
2232.0,-0.0037
2231.0,-0.0037
2230.0,-0.0037
2229.0,-0.0037
2228.0,-0.0037
2227.0,-0.0038
2226.0,-0.0038
2225.0,-0.0038
2224.0,-0.0039
2223.0,-0.0039
2222.0,-0.004
2221.0,-0.0041
2220.0,-0.0042
2219.0,-0.0042
2218.0,-0.0042
2217.0,-0.0042
2216.0,-0.0041
2215.0,-0.0041
2214.0,-0.0041
2213.0,-0.0042
2212.0,-0.0042
2211.0,-0.0042
2210.0,-0.0043
2209.0,-0.0043
2208.0,-0.0043
2207.0,-0.0044
2206.0,-0.0044
2205.0,-0.0045
2204.0,-0.0044
2203.0,-0.0044
2202.0,-0.0044
2201.0,-0.0044
2200.0,-0.0044
2199.0,-0.0043
2198.0,-0.0043
2197.0,-0.0044
2196.0,-0.0043
2195.0,-0.0044
2194.0,-0.0044
2193.0,-0.0044
2192.0,-0.0045
2191.0,-0.0045
2190.0,-0.0045
2189.0,-0.0044
2188.0,-0.0044
2187.0,-0.0044
2186.0,-0.0044
2185.0,-0.0044
2184.0,-0.0044
2183.0,-0.0043
2182.0,-0.0042
2181.0,-0.0042
2180.0,-0.0042
2179.0,-0.0043
2178.0,-0.0043
2177.0,-0.0044
2176.0,-0.0044
2175.0,-0.0044
2174.0,-0.0044
2173.0,-0.0044
2172.0,-0.0043
2171.0,-0.0043
2170.0,-0.0044
2169.0,-0.0044
2168.0,-0.0044
2167.0,-0.0045
2166.0,-0.0045
2165.0,-0.0045
2164.0,-0.0045
2163.0,-0.0045
2162.0,-0.0046
2161.0,-0.0046
2160.0,-0.0045
2159.0,-0.0045
2158.0,-0.0045
2157.0,-0.0045
2156.0,-0.0045
2155.0,-0.0045
2154.0,-0.0045
2153.0,-0.0045
2152.0,-0.0045
2151.0,-0.0045
2150.0,-0.0045
2149.0,-0.0045
2148.0,-0.0045
2147.0,-0.0045
2146.0,-0.0045
2145.0,-0.0045
2144.0,-0.0045
2143.0,-0.0045
2142.0,-0.0045
2141.0,-0.0045
2140.0,-0.0044
2139.0,-0.0043
2138.0,-0.0043
2137.0,-0.0043
2136.0,-0.0043
2135.0,-0.0044
2134.0,-0.0044
2133.0,-0.0043
2132.0,-0.0043
2131.0,-0.0042
2130.0,-0.0042
2129.0,-0.0042
2128.0,-0.0041
2127.0,-0.004
2126.0,-0.004
2125.0,-0.004
2124.0,-0.0041
2123.0,-0.0041
2122.0,-0.0041
2121.0,-0.0042
2120.0,-0.0042
2119.0,-0.0042
2118.0,-0.0042
2117.0,-0.0042
2116.0,-0.0042
2115.0,-0.0042
2114.0,-0.0041
2113.0,-0.0041
2112.0,-0.0041
2111.0,-0.0041
2110.0,-0.0041
2109.0,-0.0041
2108.0,-0.0042
2107.0,-0.0042
2106.0,-0.0042
2105.0,-0.0042
2104.0,-0.0042
2103.0,-0.0041
2102.0,-0.0041
2101.0,-0.0041
2100.0,-0.0041
2099.0,-0.0041
2098.0,-0.0041
2097.0,-0.004
2096.0,-0.004
2095.0,-0.0039
2094.0,-0.0039
2093.0,-0.0039
2092.0,-0.0038
2091.0,-0.0038
2090.0,-0.0038
2089.0,-0.0038
2088.0,-0.0038
2087.0,-0.0038
2086.0,-0.0038
2085.0,-0.0038
2084.0,-0.0038
2083.0,-0.0038
2082.0,-0.0039
2081.0,-0.004
2080.0,-0.004
2079.0,-0.0041
2078.0,-0.0041
2077.0,-0.0042
2076.0,-0.0042
2075.0,-0.0041
2074.0,-0.0042
2073.0,-0.0043
2072.0,-0.0043
2071.0,-0.0044
2070.0,-0.0045
2069.0,-0.0045
2068.0,-0.0045
2067.0,-0.0045
2066.0,-0.0046
2065.0,-0.0046
2064.0,-0.0046
2063.0,-0.0046
2062.0,-0.0047
2061.0,-0.0048
2060.0,-0.0049
2059.0,-0.0049
2058.0,-0.0049
2057.0,-0.005
2056.0,-0.005
2055.0,-0.0051
2054.0,-0.0052
2053.0,-0.0053
2052.0,-0.0053
2051.0,-0.0054
2050.0,-0.0055
2049.0,-0.0056
2048.0,-0.0057
2047.0,-0.0057
2046.0,-0.0058
2045.0,-0.0059
2044.0,-0.0059
2043.0,-0.006
2042.0,-0.006
2041.0,-0.0061
2040.0,-0.0061
2039.0,-0.0061
2038.0,-0.0062
2037.0,-0.0062
2036.0,-0.0062
2035.0,-0.0062
2034.0,-0.0063
2033.0,-0.0063
2032.0,-0.0064
2031.0,-0.0064
2030.0,-0.0065
2029.0,-0.0065
2028.0,-0.0065
2027.0,-0.0065
2026.0,-0.0065
2025.0,-0.0065
2024.0,-0.0065
2023.0,-0.0064
2022.0,-0.0064
2021.0,-0.0064
2020.0,-0.0064
2019.0,-0.0065
2018.0,-0.0065
2017.0,-0.0065
2016.0,-0.0064
2015.0,-0.0064
2014.0,-0.0064
2013.0,-0.0063
2012.0,-0.0063
2011.0,-0.0062
2010.0,-0.0062
2009.0,-0.0062
2008.0,-0.0062
2007.0,-0.0062
2006.0,-0.0062
2005.0,-0.0062
2004.0,-0.0061
2003.0,-0.0061
2002.0,-0.0062
2001.0,-0.0062
2000.0,-0.0062
1999.0,-0.0062
1998.0,-0.0063
1997.0,-0.0064
1996.0,-0.0064
1995.0,-0.0064
1994.0,-0.0065
1993.0,-0.0065
1992.0,-0.0065
1991.0,-0.0065
1990.0,-0.0066
1989.0,-0.0065
1988.0,-0.0065
1987.0,-0.0064
1986.0,-0.0064
1985.0,-0.0064
1984.0,-0.0064
1983.0,-0.0064
1982.0,-0.0064
1981.0,-0.0063
1980.0,-0.0063
1979.0,-0.0063
1978.0,-0.0063
1977.0,-0.0063
1976.0,-0.0062
1975.0,-0.0063
1974.0,-0.0063
1973.0,-0.0063
1972.0,-0.0063
1971.0,-0.0062
1970.0,-0.0062
1969.0,-0.0062
1968.0,-0.0062
1967.0,-0.0062
1966.0,-0.0062
1965.0,-0.0062
1964.0,-0.0062
1963.0,-0.0061
1962.0,-0.0062
1961.0,-0.0063
1960.0,-0.0064
1959.0,-0.0065
1958.0,-0.0066
1957.0,-0.0067
1956.0,-0.0067
1955.0,-0.0067
1954.0,-0.0068
1953.0,-0.0069
1952.0,-0.007
1951.0,-0.007
1950.0,-0.0071
1949.0,-0.0071
1948.0,-0.0071
1947.0,-0.0072
1946.0,-0.0073
1945.0,-0.0074
1944.0,-0.0075
1943.0,-0.0075
1942.0,-0.0076
1941.0,-0.0076
1940.0,-0.0076
1939.0,-0.0075
1938.0,-0.0076
1937.0,-0.0076
1936.0,-0.0077
1935.0,-0.0077
1934.0,-0.0079
1933.0,-0.0079
1932.0,-0.008
1931.0,-0.008
1930.0,-0.008
1929.0,-0.008
1928.0,-0.0079
1927.0,-0.0079
1926.0,-0.008
1925.0,-0.008
1924.0,-0.008
1923.0,-0.008
1922.0,-0.008
1921.0,-0.008
1920.0,-0.0079
1919.0,-0.0078
1918.0,-0.0079
1917.0,-0.0079
1916.0,-0.0079
1915.0,-0.0079
1914.0,-0.0079
1913.0,-0.008
1912.0,-0.008
1911.0,-0.008
1910.0,-0.0081
1909.0,-0.008
1908.0,-0.008
1907.0,-0.008
1906.0,-0.008
1905.0,-0.008
1904.0,-0.0079
1903.0,-0.008
1902.0,-0.008
1901.0,-0.0081
1900.0,-0.008
1899.0,-0.008
1898.0,-0.008
1897.0,-0.008
1896.0,-0.008
1895.0,-0.008
1894.0,-0.0081
1893.0,-0.0081
1892.0,-0.0081
1891.0,-0.0081
1890.0,-0.0082
1889.0,-0.0083
1888.0,-0.0083
1887.0,-0.0082
1886.0,-0.0083
1885.0,-0.0082
1884.0,-0.0082
1883.0,-0.0082
1882.0,-0.0082
1881.0,-0.0083
1880.0,-0.0083
1879.0,-0.0082
1878.0,-0.0083
1877.0,-0.0083
1876.0,-0.0083
1875.0,-0.0083
1874.0,-0.0083
1873.0,-0.0082
1872.0,-0.0081
1871.0,-0.0081
1870.0,-0.0082
1869.0,-0.0083
1868.0,-0.0083
1867.0,-0.0083
1866.0,-0.0083
1865.0,-0.0082
1864.0,-0.008
1863.0,-0.008
1862.0,-0.008
1861.0,-0.008
1860.0,-0.0079
1859.0,-0.0079
1858.0,-0.0079
1857.0,-0.0079
1856.0,-0.0077
1855.0,-0.0077
1854.0,-0.0076
1853.0,-0.0076
1852.0,-0.0074
1851.0,-0.0073
1850.0,-0.0073
1849.0,-0.0072
1848.0,-0.007
1847.0,-0.0068
1846.0,-0.0068
1845.0,-0.0067
1844.0,-0.0065
1843.0,-0.0064
1842.0,-0.0063
1841.0,-0.0061
1840.0,-0.0058
1839.0,-0.0056
1838.0,-0.0055
1837.0,-0.0053
1836.0,-0.005
1835.0,-0.0047
1834.0,-0.0045
1833.0,-0.0043
1832.0,-0.0039
1831.0,-0.0037
1830.0,-0.0035
1829.0,-0.0033
1828.0,-0.0029
1827.0,-0.0026
1826.0,-0.0024
1825.0,-0.0023
1824.0,-0.0019
1823.0,-0.0017
1822.0,-0.0015
1821.0,-0.0012
1820.0,-0.0009
1819.0,-0.0007
1818.0,-0.0006
1817.0,-0.0004
1816.0,-0.0001
1815.0,0.0002
1814.0,0.0004
1813.0,0.0006
1812.0,0.001
1811.0,0.0012
1810.0,0.0014
1809.0,0.0017
1808.0,0.0022
1807.0,0.0025
1806.0,0.0028
1805.0,0.0032
1804.0,0.0037
1803.0,0.0041
1802.0,0.0045
1801.0,0.005
1800.0,0.0058
1799.0,0.0065
1798.0,0.0071
1797.0,0.008
1796.0,0.0091
1795.0,0.0101
1794.0,0.0112
1793.0,0.0129
1792.0,0.0153
1791.0,0.0177
1790.0,0.0199
1789.0,0.0223
1788.0,0.0253
1787.0,0.0287
1786.0,0.0328
1785.0,0.0376
1784.0,0.0428
1783.0,0.0479
1782.0,0.0534
1781.0,0.06
1780.0,0.0671
1779.0,0.0735
1778.0,0.0793
1777.0,0.085
1776.0,0.0907
1775.0,0.096
1774.0,0.1018
1773.0,0.1099
1772.0,0.1197
1771.0,0.1283
1770.0,0.1359
1769.0,0.1451
1768.0,0.1566
1767.0,0.169
1766.0,0.1809
1765.0,0.1931
1764.0,0.208
1763.0,0.228
1762.0,0.2536
1761.0,0.28
1760.0,0.3026
1759.0,0.3216
1758.0,0.3409
1757.0,0.3615
1756.0,0.3784
1755.0,0.3877
1754.0,0.392
1753.0,0.3951
1752.0,0.398
1751.0,0.3992
1750.0,0.3983
1749.0,0.3952
1748.0,0.3883
1747.0,0.3773
1746.0,0.3634
1745.0,0.347
1744.0,0.328
1743.0,0.3078
1742.0,0.288
1741.0,0.2671
1740.0,0.2441
1739.0,0.2227
1738.0,0.2067
1737.0,0.1944
1736.0,0.1813
1735.0,0.1644
1734.0,0.1468
1733.0,0.1345
1732.0,0.1264
1731.0,0.1195
1730.0,0.1131
1729.0,0.1072
1728.0,0.1021
1727.0,0.0979
1726.0,0.0944
1725.0,0.091
1724.0,0.0876
1723.0,0.0846
1722.0,0.0821
1721.0,0.0798
1720.0,0.0772
1719.0,0.0741
1718.0,0.0713
1717.0,0.0688
1716.0,0.0661
1715.0,0.0634
1714.0,0.0611
1713.0,0.0587
1712.0,0.0562
1711.0,0.0535
1710.0,0.0512
1709.0,0.0491
1708.0,0.047
1707.0,0.0449
1706.0,0.043
1705.0,0.0415
1704.0,0.0401
1703.0,0.0388
1702.0,0.0376
1701.0,0.0363
1700.0,0.0348
1699.0,0.0336
1698.0,0.0328
1697.0,0.0318
1696.0,0.0307
1695.0,0.0297
1694.0,0.0292
1693.0,0.0286
1692.0,0.0279
1691.0,0.0271
1690.0,0.0264
1689.0,0.0259
1688.0,0.0252
1687.0,0.0245
1686.0,0.0239
1685.0,0.0235
1684.0,0.0231
1683.0,0.0227
1682.0,0.0223
1681.0,0.0219
1680.0,0.0213
1679.0,0.0209
1678.0,0.0206
1677.0,0.0203
1676.0,0.0199
1675.0,0.0196
1674.0,0.0193
1673.0,0.019
1672.0,0.0186
1671.0,0.0182
1670.0,0.018
1669.0,0.0178
1668.0,0.0175
1667.0,0.0172
1666.0,0.0169
1665.0,0.0166
1664.0,0.0163
1663.0,0.016
1662.0,0.0158
1661.0,0.0156
1660.0,0.0153
1659.0,0.015
1658.0,0.0148
1657.0,0.0144
1656.0,0.014
1655.0,0.0136
1654.0,0.0136
1653.0,0.0138
1652.0,0.0136
1651.0,0.0134
1650.0,0.0132
1649.0,0.013
1648.0,0.0127
1647.0,0.0125
1646.0,0.0124
1645.0,0.0123
1644.0,0.0121
1643.0,0.0119
1642.0,0.0118
1641.0,0.0117
1640.0,0.0115
1639.0,0.0113
1638.0,0.0111
1637.0,0.0111
1636.0,0.0111
1635.0,0.0111
1634.0,0.0111
1633.0,0.011
1632.0,0.0108
1631.0,0.0106
1630.0,0.0105
1629.0,0.0105
1628.0,0.0104
1627.0,0.0103
1626.0,0.0102
1625.0,0.01
1624.0,0.0099
1623.0,0.0098
1622.0,0.0097
1621.0,0.0097
1620.0,0.0095
1619.0,0.0092
1618.0,0.009
1617.0,0.0088
1616.0,0.0086
1615.0,0.0085
1614.0,0.0084
1613.0,0.0083
1612.0,0.0081
1611.0,0.0079
1610.0,0.0077
1609.0,0.0075
1608.0,0.0073
1607.0,0.0071
1606.0,0.007
1605.0,0.0069
1604.0,0.0067
1603.0,0.0065
1602.0,0.0063
1601.0,0.0061
1600.0,0.0058
1599.0,0.0056
1598.0,0.0054
1597.0,0.0053
1596.0,0.0052
1595.0,0.005
1594.0,0.0049
1593.0,0.0048
1592.0,0.0046
1591.0,0.0045
1590.0,0.0045
1589.0,0.0044
1588.0,0.0043
1587.0,0.0041
1586.0,0.004
1585.0,0.0038
1584.0,0.0037
1583.0,0.0035
1582.0,0.0034
1581.0,0.0032
1580.0,0.0031
1579.0,0.0029
1578.0,0.0027
1577.0,0.0026
1576.0,0.0025
1575.0,0.0025
1574.0,0.0025
1573.0,0.0025
1572.0,0.0024
1571.0,0.0022
1570.0,0.0021
1569.0,0.0021
1568.0,0.0021
1567.0,0.002
1566.0,0.0019
1565.0,0.0018
1564.0,0.0017
1563.0,0.0016
1562.0,0.0015
1561.0,0.0014
1560.0,0.0015
1559.0,0.0015
1558.0,0.0013
1557.0,0.0013
1556.0,0.0012
1555.0,0.0011
1554.0,0.0011
1553.0,0.0011
1552.0,0.0011
1551.0,0.001
1550.0,0.0009
1549.0,0.0008
1548.0,0.0008
1547.0,0.0008
1546.0,0.0007
1545.0,0.0008
1544.0,0.0008
1543.0,0.0007
1542.0,0.0006
1541.0,0.0006
1540.0,0.0004
1539.0,0.0003
1538.0,0.0004
1537.0,0.0006
1536.0,0.0006
1535.0,0.0005
1534.0,0.0005
1533.0,0.0004
1532.0,0.0004
1531.0,0.0004
1530.0,0.0004
1529.0,0.0004
1528.0,0.0004
1527.0,0.0003
1526.0,0.0004
1525.0,0.0004
1524.0,0.0005
1523.0,0.0005
1522.0,0.0005
1521.0,0.0005
1520.0,0.0004
1519.0,0.0003
1518.0,0.0002
1517.0,0.0001
1516.0,-0.0
1515.0,-0.0001
1514.0,-0.0001
1513.0,-0.0001
1512.0,-0.0002
1511.0,-0.0003
1510.0,-0.0004
1509.0,-0.0005
1508.0,-0.0004
1507.0,-0.0005
1506.0,-0.0008
1505.0,-0.0007
1504.0,-0.0006
1503.0,-0.0006
1502.0,-0.0006
1501.0,-0.0006
1500.0,-0.0005
1499.0,-0.0006
1498.0,-0.0007
1497.0,-0.0007
1496.0,-0.0008
1495.0,-0.0008
1494.0,-0.0008
1493.0,-0.0007
1492.0,-0.0007
1491.0,-0.0008
1490.0,-0.0008
1489.0,-0.0008
1488.0,-0.0007
1487.0,-0.0006
1486.0,-0.0005
1485.0,-0.0003
1484.0,-0.0002
1483.0,0.0
1482.0,0.0002
1481.0,0.0005
1480.0,0.0009
1479.0,0.0013
1478.0,0.0018
1477.0,0.0025
1476.0,0.0034
1475.0,0.0044
1474.0,0.0058
1473.0,0.0082
1472.0,0.0111
1471.0,0.0138
1470.0,0.0165
1469.0,0.0196
1468.0,0.0231
1467.0,0.0275
1466.0,0.0337
1465.0,0.0418
1464.0,0.0502
1463.0,0.0572
1462.0,0.0632
1461.0,0.0689
1460.0,0.0747
1459.0,0.0811
1458.0,0.0893
1457.0,0.0981
1456.0,0.1029
1455.0,0.1045
1454.0,0.105
1453.0,0.1052
1452.0,0.1047
1451.0,0.1036
1450.0,0.1021
1449.0,0.0998
1448.0,0.0964
1447.0,0.0921
1446.0,0.0874
1445.0,0.0821
1444.0,0.0758
1443.0,0.0688
1442.0,0.0617
1441.0,0.0549
1440.0,0.0488
1439.0,0.0433
1438.0,0.0378
1437.0,0.0318
1436.0,0.0265
1435.0,0.0231
1434.0,0.021
1433.0,0.019
1432.0,0.017
1431.0,0.0152
1430.0,0.0136
1429.0,0.0123
1428.0,0.0111
1427.0,0.0103
1426.0,0.0096
1425.0,0.0088
1424.0,0.008
1423.0,0.0075
1422.0,0.0071
1421.0,0.0066
1420.0,0.006
1419.0,0.0056
1418.0,0.0054
1417.0,0.0051
1416.0,0.0049
1415.0,0.0048
1414.0,0.0047
1413.0,0.0045
1412.0,0.0044
1411.0,0.0044
1410.0,0.0045
1409.0,0.0046
1408.0,0.0047
1407.0,0.005
1406.0,0.0053
1405.0,0.0057
1404.0,0.0063
1403.0,0.007
1402.0,0.0079
1401.0,0.009
1400.0,0.0105
1399.0,0.0128
1398.0,0.0154
1397.0,0.0182
1396.0,0.0219
1395.0,0.0269
1394.0,0.0324
1393.0,0.0377
1392.0,0.0429
1391.0,0.0483
1390.0,0.0542
1389.0,0.0608
1388.0,0.0684
1387.0,0.0758
1386.0,0.0815
1385.0,0.0851
1384.0,0.0872
1383.0,0.0879
1382.0,0.087
1381.0,0.0845
1380.0,0.0804
1379.0,0.0754
1378.0,0.0702
1377.0,0.0657
1376.0,0.0627
1375.0,0.0618
1374.0,0.0632
1373.0,0.0664
1372.0,0.0701
1371.0,0.0738
1370.0,0.0771
1369.0,0.0799
1368.0,0.0821
1367.0,0.0837
1366.0,0.0851
1365.0,0.0867
1364.0,0.0889
1363.0,0.0918
1362.0,0.0947
1361.0,0.0971
1360.0,0.0986
1359.0,0.0993
1358.0,0.099
1357.0,0.0977
1356.0,0.0953
1355.0,0.0921
1354.0,0.0883
1353.0,0.0843
1352.0,0.0801
1351.0,0.0758
1350.0,0.0716
1349.0,0.0676
1348.0,0.0638
1347.0,0.0604
1346.0,0.0572
1345.0,0.0543
1344.0,0.0517
1343.0,0.0493
1342.0,0.0471
1341.0,0.045
1340.0,0.043
1339.0,0.0411
1338.0,0.0396
1337.0,0.0384
1336.0,0.0372
1335.0,0.0361
1334.0,0.0351
1333.0,0.0342
1332.0,0.0333
1331.0,0.0326
1330.0,0.032
1329.0,0.0316
1328.0,0.0312
1327.0,0.0309
1326.0,0.0307
1325.0,0.0306
1324.0,0.0305
1323.0,0.0304
1322.0,0.0303
1321.0,0.0303
1320.0,0.0303
1319.0,0.0303
1318.0,0.0303
1317.0,0.0303
1316.0,0.0304
1315.0,0.0305
1314.0,0.0308
1313.0,0.0312
1312.0,0.0316
1311.0,0.032
1310.0,0.0325
1309.0,0.033
1308.0,0.0336
1307.0,0.034
1306.0,0.0344
1305.0,0.0345
1304.0,0.0345
1303.0,0.0344
1302.0,0.0341
1301.0,0.0339
1300.0,0.0336
1299.0,0.0332
1298.0,0.0327
1297.0,0.0323
1296.0,0.0317
1295.0,0.031
1294.0,0.0302
1293.0,0.0293
1292.0,0.0282
1291.0,0.0272
1290.0,0.0264
1289.0,0.026
1288.0,0.0262
1287.0,0.027
1286.0,0.0284
1285.0,0.0302
1284.0,0.0324
1283.0,0.035
1282.0,0.0377
1281.0,0.0406
1280.0,0.0436
1279.0,0.0465
1278.0,0.0493
1277.0,0.052
1276.0,0.0545
1275.0,0.0567
1274.0,0.0587
1273.0,0.0605
1272.0,0.0619
1271.0,0.0631
1270.0,0.064
1269.0,0.0647
1268.0,0.065
1267.0,0.0651
1266.0,0.0648
1265.0,0.0644
1264.0,0.0637
1263.0,0.0628
1262.0,0.0618
1261.0,0.0608
1260.0,0.0597
1259.0,0.0586
1258.0,0.0574
1257.0,0.0563
1256.0,0.0552
1255.0,0.0541
1254.0,0.0532
1253.0,0.0524
1252.0,0.0518
1251.0,0.0513
1250.0,0.0508
1249.0,0.0506
1248.0,0.0504
1247.0,0.0504
1246.0,0.0505
1245.0,0.0507
1244.0,0.0511
1243.0,0.0515
1242.0,0.052
1241.0,0.0527
1240.0,0.0535
1239.0,0.0543
1238.0,0.0554
1237.0,0.0565
1236.0,0.0579
1235.0,0.0595
1234.0,0.0615
1233.0,0.0637
1232.0,0.0663
1231.0,0.0692
1230.0,0.0726
1229.0,0.0764
1228.0,0.0808
1227.0,0.0857
1226.0,0.0911
1225.0,0.0971
1224.0,0.1036
1223.0,0.1104
1222.0,0.1176
1221.0,0.1251
1220.0,0.133
1219.0,0.1411
1218.0,0.1495
1217.0,0.1581
1216.0,0.1667
1215.0,0.1749
1214.0,0.1824
1213.0,0.1889
1212.0,0.1941
1211.0,0.1978
1210.0,0.1998
1209.0,0.2006
1208.0,0.2006
1207.0,0.2
1206.0,0.1994
1205.0,0.1992
1204.0,0.1995
1203.0,0.2005
1202.0,0.2022
1201.0,0.2047
1200.0,0.2081
1199.0,0.2122
1198.0,0.217
1197.0,0.2228
1196.0,0.2296
1195.0,0.2373
1194.0,0.246
1193.0,0.2561
1192.0,0.2676
1191.0,0.2805
1190.0,0.2948
1189.0,0.311
1188.0,0.3292
1187.0,0.349
1186.0,0.3699
1185.0,0.3914
1184.0,0.4122
1183.0,0.4299
1182.0,0.4422
1181.0,0.4468
1180.0,0.4418
1179.0,0.4262
1178.0,0.4013
1177.0,0.3703
1176.0,0.3362
1175.0,0.3016
1174.0,0.2687
1173.0,0.239
1172.0,0.2127
1171.0,0.1898
1170.0,0.1699
1169.0,0.153
1168.0,0.1386
1167.0,0.1264
1166.0,0.1161
1165.0,0.1073
1164.0,0.0999
1163.0,0.0935
1162.0,0.0879
1161.0,0.0832
1160.0,0.0791
1159.0,0.0755
1158.0,0.0723
1157.0,0.0698
1156.0,0.0677
1155.0,0.0663
1154.0,0.0654
1153.0,0.0652
1152.0,0.0657
1151.0,0.067
1150.0,0.0692
1149.0,0.0726
1148.0,0.0772
1147.0,0.0833
1146.0,0.0909
1145.0,0.1
1144.0,0.1107
1143.0,0.1227
1142.0,0.1358
1141.0,0.15
1140.0,0.1651
1139.0,0.1809
1138.0,0.1971
1137.0,0.2134
1136.0,0.2294
1135.0,0.2444
1134.0,0.2578
1133.0,0.2695
1132.0,0.2791
1131.0,0.2864
1130.0,0.291
1129.0,0.2929
1128.0,0.2919
1127.0,0.2877
1126.0,0.2805
1125.0,0.2711
1124.0,0.2605
1123.0,0.2494
1122.0,0.2385
1121.0,0.2287
1120.0,0.2202
1119.0,0.213
1118.0,0.2074
1117.0,0.2035
1116.0,0.2013
1115.0,0.2007
1114.0,0.2019
1113.0,0.2051
1112.0,0.2101
1111.0,0.2168
1110.0,0.2248
1109.0,0.2341
1108.0,0.2445
1107.0,0.2556
1106.0,0.2673
1105.0,0.2796
1104.0,0.2924
1103.0,0.3056
1102.0,0.3189
1101.0,0.3328
1100.0,0.3472
1099.0,0.3618
1098.0,0.3765
1097.0,0.3916
1096.0,0.4073
1095.0,0.4232
1094.0,0.439
1093.0,0.4553
1092.0,0.4722
1091.0,0.489
1090.0,0.5055
1089.0,0.5219
1088.0,0.5375
1087.0,0.5512
1086.0,0.5619
1085.0,0.57
1084.0,0.575
1083.0,0.5758
1082.0,0.5721
1081.0,0.5647
1080.0,0.5541
1079.0,0.5401
1078.0,0.5232
1077.0,0.5045
1076.0,0.4845
1075.0,0.4629
1074.0,0.4403
1073.0,0.4176
1072.0,0.3951
1071.0,0.3729
1070.0,0.3513
1069.0,0.3309
1068.0,0.312
1067.0,0.2944
1066.0,0.2785
1065.0,0.2648
1064.0,0.2535
1063.0,0.2443
1062.0,0.2374
1061.0,0.2328
1060.0,0.2304
1059.0,0.2296
1058.0,0.2302
1057.0,0.2321
1056.0,0.2351
1055.0,0.2387
1054.0,0.2428
1053.0,0.2475
1052.0,0.2527
1051.0,0.2582
1050.0,0.2641
1049.0,0.2705
1048.0,0.2771
1047.0,0.2833
1046.0,0.2884
1045.0,0.2921
1044.0,0.2939
1043.0,0.2935
1042.0,0.291
1041.0,0.2866
1040.0,0.2804
1039.0,0.2723
1038.0,0.2627
1037.0,0.2524
1036.0,0.2418
1035.0,0.2313
1034.0,0.2213
1033.0,0.2122
1032.0,0.2041
1031.0,0.1968
1030.0,0.1904
1029.0,0.1848
1028.0,0.1799
1027.0,0.1753
1026.0,0.1709
1025.0,0.1666
1024.0,0.1622
1023.0,0.1575
1022.0,0.1525
1021.0,0.1473
1020.0,0.1422
1019.0,0.1371
1018.0,0.1321
1017.0,0.1273
1016.0,0.1227
1015.0,0.1184
1014.0,0.1142
1013.0,0.1104
1012.0,0.1068
1011.0,0.1035
1010.0,0.1004
1009.0,0.0977
1008.0,0.0952
1007.0,0.0929
1006.0,0.0908
1005.0,0.0889
1004.0,0.0871
1003.0,0.0854
1002.0,0.0838
1001.0,0.0823
1000.0,0.0809
999.0,0.0796
998.0,0.0784
997.0,0.0772
996.0,0.0761
995.0,0.075
994.0,0.0739
993.0,0.073
992.0,0.072
991.0,0.0711
990.0,0.0702
989.0,0.0694
988.0,0.0685
987.0,0.0677
986.0,0.0669
985.0,0.0661
984.0,0.0654
983.0,0.0646
982.0,0.0639
981.0,0.0631
980.0,0.0624
979.0,0.0616
978.0,0.061
977.0,0.0603
976.0,0.0597
975.0,0.059
974.0,0.0584
973.0,0.0578
972.0,0.0572
971.0,0.0567
970.0,0.0563
969.0,0.0559
968.0,0.0556
967.0,0.0554
966.0,0.0554
965.0,0.0555
964.0,0.056
963.0,0.0567
962.0,0.0578
961.0,0.0593
960.0,0.0608
959.0,0.0622
958.0,0.0633
957.0,0.064
956.0,0.0641
955.0,0.0638
954.0,0.0631
953.0,0.0623
952.0,0.0613
951.0,0.0604
950.0,0.0595
949.0,0.0586
948.0,0.0578
947.0,0.057
946.0,0.0562
945.0,0.0555
944.0,0.0549
943.0,0.0543
942.0,0.0538
941.0,0.0534
940.0,0.053
939.0,0.0528
938.0,0.0525
937.0,0.0523
936.0,0.0521
935.0,0.0519
934.0,0.0519
933.0,0.0519
932.0,0.0521
931.0,0.0524
930.0,0.0527
929.0,0.0532
928.0,0.0537
927.0,0.0543
926.0,0.0548
925.0,0.0553
924.0,0.0557
923.0,0.0561
922.0,0.0563
921.0,0.0564
920.0,0.0564
919.0,0.0562
918.0,0.056
917.0,0.0556
916.0,0.0552
915.0,0.0548
914.0,0.0543
913.0,0.0538
912.0,0.0534
911.0,0.053
910.0,0.0525
909.0,0.0522
908.0,0.0518
907.0,0.0514
906.0,0.051
905.0,0.0508
904.0,0.0506
903.0,0.0504
902.0,0.0502
901.0,0.0501
900.0,0.0499
899.0,0.0498
898.0,0.0498
897.0,0.0498
896.0,0.0498
895.0,0.0496
894.0,0.0493
893.0,0.0489
892.0,0.0483
891.0,0.0478
890.0,0.0472
889.0,0.0466
888.0,0.0461
887.0,0.0457
886.0,0.0456
885.0,0.0459
884.0,0.0467
883.0,0.048
882.0,0.05
881.0,0.0528
880.0,0.0564
879.0,0.0607
878.0,0.0658
877.0,0.0713
876.0,0.0771
875.0,0.0828
874.0,0.088
873.0,0.0924
872.0,0.0957
871.0,0.0976
870.0,0.0982
869.0,0.0976
868.0,0.0962
867.0,0.0944
866.0,0.0923
865.0,0.09
864.0,0.0874
863.0,0.0847
862.0,0.0818
861.0,0.0788
860.0,0.0755
859.0,0.072
858.0,0.0684
857.0,0.0648
856.0,0.0614
855.0,0.0583
854.0,0.0557
853.0,0.0538
852.0,0.0523
851.0,0.0513
850.0,0.0505
849.0,0.05
848.0,0.0495
847.0,0.0488
846.0,0.0479
845.0,0.0469
844.0,0.0457
843.0,0.0444
842.0,0.0432
841.0,0.042
840.0,0.0409
839.0,0.0398
838.0,0.0389
837.0,0.0381
836.0,0.0373
835.0,0.0367
834.0,0.0362
833.0,0.0358
832.0,0.0354
831.0,0.035
830.0,0.0347
829.0,0.0344
828.0,0.0341
827.0,0.0339
826.0,0.0338
825.0,0.0335
824.0,0.0332
823.0,0.0329
822.0,0.0326
821.0,0.0324
820.0,0.0321
819.0,0.0319
818.0,0.0316
817.0,0.0313
816.0,0.031
815.0,0.0308
814.0,0.0307
813.0,0.0306
812.0,0.0304
811.0,0.0303
810.0,0.0302
809.0,0.0301
808.0,0.0301
807.0,0.03
806.0,0.0299
805.0,0.0298
804.0,0.0298
803.0,0.0297
802.0,0.0296
801.0,0.0294
800.0,0.029
799.0,0.0287
798.0,0.0285
797.0,0.0285
796.0,0.0285
795.0,0.0286
794.0,0.0287
793.0,0.0288
792.0,0.0291
791.0,0.0296
790.0,0.0302
789.0,0.0308
788.0,0.0314
787.0,0.0318
786.0,0.0324
785.0,0.033
784.0,0.0338
783.0,0.0345
782.0,0.0353
781.0,0.0361
780.0,0.0369
779.0,0.0379
778.0,0.0389
777.0,0.04
776.0,0.0411
775.0,0.0422
774.0,0.0435
773.0,0.045
772.0,0.0465
771.0,0.0482
770.0,0.0501
769.0,0.0522
768.0,0.0545
767.0,0.057
766.0,0.0597
765.0,0.0628
764.0,0.0665
763.0,0.0707
762.0,0.0754
761.0,0.0807
760.0,0.0862
759.0,0.0916
758.0,0.0965
757.0,0.1003
756.0,0.1026
755.0,0.103
754.0,0.1016
753.0,0.099
752.0,0.0957
751.0,0.0921
750.0,0.0888
749.0,0.0859
748.0,0.0836
747.0,0.0815
746.0,0.0799
745.0,0.0785
744.0,0.0774
743.0,0.0763
742.0,0.0752
741.0,0.0742
740.0,0.0733
739.0,0.0723
738.0,0.0711
737.0,0.0694
736.0,0.0672
735.0,0.0644
734.0,0.0611
733.0,0.0577
732.0,0.0544
731.0,0.0516
730.0,0.0493
729.0,0.0477
728.0,0.0467
727.0,0.0462
726.0,0.0462
725.0,0.0467
724.0,0.0474
723.0,0.0482
722.0,0.0492
721.0,0.0508
720.0,0.0532
719.0,0.0561
718.0,0.059
717.0,0.0616
716.0,0.0639
715.0,0.0659
714.0,0.0677
713.0,0.0693
712.0,0.0705
711.0,0.0714
710.0,0.072
709.0,0.0726
708.0,0.0732
707.0,0.0736
706.0,0.0738
705.0,0.074
704.0,0.0741
703.0,0.0742
702.0,0.0747
701.0,0.0754
700.0,0.0762
699.0,0.0765
698.0,0.0764
697.0,0.0761
696.0,0.0758
695.0,0.0755
694.0,0.0754
693.0,0.0753
692.0,0.0753
691.0,0.0753
690.0,0.0752
689.0,0.0755
688.0,0.0759
687.0,0.0755
686.0,0.0741
685.0,0.072
684.0,0.0701
683.0,0.0691
682.0,0.0688
681.0,0.0689
680.0,0.069
679.0,0.0705
678.0,0.0696
677.0,0.0687
676.0,0.0681
675.0,0.0677
674.0,0.0674
673.0,0.067
672.0,0.0665
671.0,0.0654
670.0,0.0638
669.0,0.0626
668.0,0.0632
667.0,0.0641
666.0,0.064
665.0,0.0634
664.0,0.0626
663.0,0.0619
662.0,0.0614
661.0,0.061
660.0,0.0603
659.0,0.0591
658.0,0.0579
657.0,0.057
656.0,0.0551
655.0,0.0547
654.0,0.0543
653.0,0.0535
652.0,0.0525
651.0,0.0515
650.0,0.0509
649.0,0.0509
648.0,0.0513
647.0,0.0514
646.0,0.0511
645.0,0.0504
644.0,0.05
643.0,0.0499
642.0,0.05
641.0,0.05
640.0,0.0498
639.0,0.0498
638.0,0.0502
637.0,0.0512
636.0,0.0525
635.0,0.0536
634.0,0.0537
633.0,0.0525
632.0,0.0506
631.0,0.049
630.0,0.0481
629.0,0.0476
628.0,0.0473
627.0,0.0468
626.0,0.0464
625.0,0.0458
624.0,0.0451
623.0,0.0444
622.0,0.044
621.0,0.0439
620.0,0.0436
619.0,0.0431
618.0,0.0426
617.0,0.0423
616.0,0.0421
615.0,0.0419
614.0,0.0415
613.0,0.0409
612.0,0.0405
611.0,0.0405
610.0,0.0412
609.0,0.0422
608.0,0.0429
607.0,0.0431
606.0,0.043
605.0,0.0426
604.0,0.042
603.0,0.0416
602.0,0.042
601.0,0.0435
600.0,0.0451
