cm-1,A
4000.0,-0.0071
3999.0,-0.0071
3998.0,-0.0072
3997.0,-0.0073
3996.0,-0.0074
3995.0,-0.0074
3994.0,-0.0074
3993.0,-0.0073
3992.0,-0.0073
3991.0,-0.0073
3990.0,-0.0073
3989.0,-0.0073
3988.0,-0.0073
3987.0,-0.0073
3986.0,-0.0073
3985.0,-0.0073
3984.0,-0.0073
3983.0,-0.0073
3982.0,-0.0072
3981.0,-0.0071
3980.0,-0.0071
3979.0,-0.0071
3978.0,-0.0072
3977.0,-0.0072
3976.0,-0.0072
3975.0,-0.0072
3974.0,-0.0072
3973.0,-0.0072
3972.0,-0.0072
3971.0,-0.0071
3970.0,-0.0071
3969.0,-0.0071
3968.0,-0.0072
3967.0,-0.0072
3966.0,-0.0073
3965.0,-0.0073
3964.0,-0.0073
3963.0,-0.0072
3962.0,-0.0072
3961.0,-0.0072
3960.0,-0.0072
3959.0,-0.0072
3958.0,-0.0073
3957.0,-0.0073
3956.0,-0.0073
3955.0,-0.0073
3954.0,-0.0073
3953.0,-0.0073
3952.0,-0.0073
3951.0,-0.0073
3950.0,-0.0072
3949.0,-0.0072
3948.0,-0.0071
3947.0,-0.007
3946.0,-0.007
3945.0,-0.007
3944.0,-0.0071
3943.0,-0.0071
3942.0,-0.0071
3941.0,-0.0072
3940.0,-0.0072
3939.0,-0.0072
3938.0,-0.0072
3937.0,-0.0072
3936.0,-0.0072
3935.0,-0.0072
3934.0,-0.0071
3933.0,-0.007
3932.0,-0.0069
3931.0,-0.0069
3930.0,-0.0069
3929.0,-0.007
3928.0,-0.0071
3927.0,-0.0072
3926.0,-0.0072
3925.0,-0.0071
3924.0,-0.007
3923.0,-0.007
3922.0,-0.007
3921.0,-0.0071
3920.0,-0.0071
3919.0,-0.0072
3918.0,-0.0072
3917.0,-0.0072
3916.0,-0.0072
3915.0,-0.0071
3914.0,-0.0071
3913.0,-0.0071
3912.0,-0.0071
3911.0,-0.0072
3910.0,-0.0073
3909.0,-0.0074
3908.0,-0.0074
3907.0,-0.0073
3906.0,-0.0073
3905.0,-0.0073
3904.0,-0.0073
3903.0,-0.0073
3902.0,-0.0072
3901.0,-0.0071
3900.0,-0.0069
3899.0,-0.0069
3898.0,-0.007
3897.0,-0.0071
3896.0,-0.0072
3895.0,-0.0073
3894.0,-0.0073
3893.0,-0.0072
3892.0,-0.0072
3891.0,-0.0073
3890.0,-0.0072
3889.0,-0.0072
3888.0,-0.0072
3887.0,-0.0072
3886.0,-0.0072
3885.0,-0.0072
3884.0,-0.0072
3883.0,-0.0072
3882.0,-0.0072
3881.0,-0.0073
3880.0,-0.0074
3879.0,-0.0074
3878.0,-0.0075
3877.0,-0.0075
3876.0,-0.0076
3875.0,-0.0077
3874.0,-0.0077
3873.0,-0.0076
3872.0,-0.0076
3871.0,-0.0075
3870.0,-0.0075
3869.0,-0.0074
3868.0,-0.0074
3867.0,-0.0073
3866.0,-0.0073
3865.0,-0.0073
3864.0,-0.0073
3863.0,-0.0074
3862.0,-0.0074
3861.0,-0.0075
3860.0,-0.0075
3859.0,-0.0074
3858.0,-0.0074
3857.0,-0.0073
3856.0,-0.0073
3855.0,-0.0073
3854.0,-0.0073
3853.0,-0.0072
3852.0,-0.0071
3851.0,-0.007
3850.0,-0.0071
3849.0,-0.0072
3848.0,-0.0073
3847.0,-0.0074
3846.0,-0.0075
3845.0,-0.0075
3844.0,-0.0075
3843.0,-0.0076
3842.0,-0.0076
3841.0,-0.0076
3840.0,-0.0076
3839.0,-0.0076
3838.0,-0.0075
3837.0,-0.0075
3836.0,-0.0074
3835.0,-0.0074
3834.0,-0.0075
3833.0,-0.0075
3832.0,-0.0075
3831.0,-0.0074
3830.0,-0.0073
3829.0,-0.0073
3828.0,-0.0073
3827.0,-0.0074
3826.0,-0.0075
3825.0,-0.0075
3824.0,-0.0075
3823.0,-0.0075
3822.0,-0.0074
3821.0,-0.0075
3820.0,-0.0075
3819.0,-0.0074
3818.0,-0.0074
3817.0,-0.0073
3816.0,-0.0073
3815.0,-0.0073
3814.0,-0.0073
3813.0,-0.0073
3812.0,-0.0074
3811.0,-0.0075
3810.0,-0.0076
3809.0,-0.0076
3808.0,-0.0077
3807.0,-0.0076
3806.0,-0.0074
3805.0,-0.0072
3804.0,-0.0072
3803.0,-0.0072
3802.0,-0.0072
3801.0,-0.0073
3800.0,-0.0073
3799.0,-0.0073
3798.0,-0.0074
3797.0,-0.0075
3796.0,-0.0075
3795.0,-0.0076
3794.0,-0.0076
3793.0,-0.0075
3792.0,-0.0075
3791.0,-0.0075
3790.0,-0.0075
3789.0,-0.0075
3788.0,-0.0076
3787.0,-0.0075
3786.0,-0.0075
3785.0,-0.0075
3784.0,-0.0075
3783.0,-0.0076
3782.0,-0.0076
3781.0,-0.0076
3780.0,-0.0077
3779.0,-0.0078
3778.0,-0.0078
3777.0,-0.0078
3776.0,-0.0078
3775.0,-0.0078
3774.0,-0.0078
3773.0,-0.0077
3772.0,-0.0077
3771.0,-0.0077
3770.0,-0.0078
3769.0,-0.0078
3768.0,-0.0079
3767.0,-0.008
3766.0,-0.008
3765.0,-0.0079
3764.0,-0.0078
3763.0,-0.0077
3762.0,-0.0076
3761.0,-0.0076
3760.0,-0.0076
3759.0,-0.0077
3758.0,-0.0078
3757.0,-0.0078
3756.0,-0.0077
3755.0,-0.0076
3754.0,-0.0075
3753.0,-0.0074
3752.0,-0.0076
3751.0,-0.0077
3750.0,-0.0078
3749.0,-0.0078
3748.0,-0.0076
3747.0,-0.0075
3746.0,-0.0075
3745.0,-0.0076
3744.0,-0.0075
3743.0,-0.0073
3742.0,-0.0072
3741.0,-0.0071
3740.0,-0.0071
3739.0,-0.007
3738.0,-0.0069
3737.0,-0.0068
3736.0,-0.0069
3735.0,-0.0071
3734.0,-0.0074
3733.0,-0.0076
3732.0,-0.0077
3731.0,-0.0077
3730.0,-0.0076
3729.0,-0.0075
3728.0,-0.0074
3727.0,-0.0074
3726.0,-0.0075
3725.0,-0.0075
3724.0,-0.0076
3723.0,-0.0077
3722.0,-0.0077
3721.0,-0.0078
3720.0,-0.0078
3719.0,-0.0079
3718.0,-0.0079
3717.0,-0.008
3716.0,-0.0079
3715.0,-0.0079
3714.0,-0.0078
3713.0,-0.0077
3712.0,-0.0075
3711.0,-0.0075
3710.0,-0.0075
3709.0,-0.0075
3708.0,-0.0077
3707.0,-0.0078
3706.0,-0.0079
3705.0,-0.0079
3704.0,-0.0079
3703.0,-0.0078
3702.0,-0.0078
3701.0,-0.0078
3700.0,-0.0078
3699.0,-0.0078
3698.0,-0.0078
3697.0,-0.0079
3696.0,-0.0079
3695.0,-0.0079
3694.0,-0.0079
3693.0,-0.0078
3692.0,-0.0078
3691.0,-0.0078
3690.0,-0.0079
3689.0,-0.0081
3688.0,-0.0081
3687.0,-0.008
3686.0,-0.008
3685.0,-0.0079
3684.0,-0.008
3683.0,-0.008
3682.0,-0.008
3681.0,-0.008
3680.0,-0.008
3679.0,-0.008
3678.0,-0.008
3677.0,-0.0082
3676.0,-0.0084
3675.0,-0.0086
3674.0,-0.0087
3673.0,-0.0087
3672.0,-0.0086
3671.0,-0.0086
3670.0,-0.0085
3669.0,-0.0085
3668.0,-0.0084
3667.0,-0.0083
3666.0,-0.0083
3665.0,-0.0083
3664.0,-0.0083
3663.0,-0.0084
3662.0,-0.0085
3661.0,-0.0086
3660.0,-0.0087
3659.0,-0.0087
3658.0,-0.0086
3657.0,-0.0086
3656.0,-0.0086
3655.0,-0.0086
3654.0,-0.0086
3653.0,-0.0086
3652.0,-0.0086
3651.0,-0.0084
3650.0,-0.0083
3649.0,-0.0083
3648.0,-0.0086
3647.0,-0.0087
3646.0,-0.0088
3645.0,-0.0088
3644.0,-0.0087
3643.0,-0.0087
3642.0,-0.0086
3641.0,-0.0087
3640.0,-0.0087
3639.0,-0.0088
3638.0,-0.0089
3637.0,-0.0088
3636.0,-0.0087
3635.0,-0.0086
3634.0,-0.0085
3633.0,-0.0086
3632.0,-0.0086
3631.0,-0.0087
3630.0,-0.0088
3629.0,-0.0088
3628.0,-0.0088
3627.0,-0.0088
3626.0,-0.0087
3625.0,-0.0086
3624.0,-0.0086
3623.0,-0.0086
3622.0,-0.0087
3621.0,-0.0088
3620.0,-0.0089
3619.0,-0.0088
3618.0,-0.0087
3617.0,-0.0087
3616.0,-0.0086
3615.0,-0.0086
3614.0,-0.0085
3613.0,-0.0083
3612.0,-0.0082
3611.0,-0.0082
3610.0,-0.0082
3609.0,-0.0082
3608.0,-0.0083
3607.0,-0.0083
3606.0,-0.0083
3605.0,-0.0083
3604.0,-0.0082
3603.0,-0.0082
3602.0,-0.0082
3601.0,-0.0084
3600.0,-0.0086
3599.0,-0.0087
3598.0,-0.0087
3597.0,-0.0086
3596.0,-0.0085
3595.0,-0.0084
3594.0,-0.0084
3593.0,-0.0084
3592.0,-0.0085
3591.0,-0.0085
3590.0,-0.0085
3589.0,-0.0084
3588.0,-0.0083
3587.0,-0.0082
3586.0,-0.0082
3585.0,-0.0082
3584.0,-0.0082
3583.0,-0.0083
3582.0,-0.0083
3581.0,-0.0084
3580.0,-0.0084
3579.0,-0.0083
3578.0,-0.0082
3577.0,-0.0081
3576.0,-0.008
3575.0,-0.0078
3574.0,-0.0077
3573.0,-0.0077
3572.0,-0.0078
3571.0,-0.0079
3570.0,-0.0081
3569.0,-0.0082
3568.0,-0.0082
3567.0,-0.008
3566.0,-0.0077
3565.0,-0.0076
3564.0,-0.0075
3563.0,-0.0075
3562.0,-0.0074
3561.0,-0.0073
3560.0,-0.0071
3559.0,-0.007
3558.0,-0.007
3557.0,-0.0069
3556.0,-0.0069
3555.0,-0.0067
3554.0,-0.0065
3553.0,-0.0063
3552.0,-0.0062
3551.0,-0.0061
3550.0,-0.0061
3549.0,-0.0061
3548.0,-0.006
3547.0,-0.0059
3546.0,-0.0058
3545.0,-0.0056
3544.0,-0.0055
3543.0,-0.0053
3542.0,-0.0052
3541.0,-0.005
3540.0,-0.0049
3539.0,-0.0047
3538.0,-0.0046
3537.0,-0.0045
3536.0,-0.0044
3535.0,-0.0043
3534.0,-0.0041
3533.0,-0.0038
3532.0,-0.0035
3531.0,-0.0033
3530.0,-0.0031
3529.0,-0.0031
3528.0,-0.0031
3527.0,-0.003
3526.0,-0.0028
3525.0,-0.0026
3524.0,-0.0023
3523.0,-0.0021
3522.0,-0.0019
3521.0,-0.0017
3520.0,-0.0016
3519.0,-0.0014
3518.0,-0.0013
3517.0,-0.0011
3516.0,-0.0009
3515.0,-0.0007
3514.0,-0.0004
3513.0,-0.0001
3512.0,0.0002
3511.0,0.0005
3510.0,0.0007
3509.0,0.0008
3508.0,0.001
3507.0,0.0012
3506.0,0.0015
3505.0,0.0019
3504.0,0.0025
3503.0,0.003
3502.0,0.0033
3501.0,0.0036
3500.0,0.0039
3499.0,0.0042
3498.0,0.0046
3497.0,0.005
3496.0,0.0054
3495.0,0.0057
3494.0,0.0059
3493.0,0.0061
3492.0,0.0064
3491.0,0.0068
3490.0,0.0073
3489.0,0.0079
3488.0,0.0084
3487.0,0.0089
3486.0,0.0093
3485.0,0.0096
3484.0,0.01
3483.0,0.0105
3482.0,0.0111
3481.0,0.0117
3480.0,0.0123
3479.0,0.0129
3478.0,0.0134
3477.0,0.0139
3476.0,0.0146
3475.0,0.0153
3474.0,0.016
3473.0,0.0166
3472.0,0.0172
3471.0,0.0176
3470.0,0.0181
3469.0,0.0187
3468.0,0.0193
3467.0,0.02
3466.0,0.0207
3465.0,0.0213
3464.0,0.022
3463.0,0.0226
3462.0,0.0233
3461.0,0.024
3460.0,0.0246
3459.0,0.0252
3458.0,0.0258
3457.0,0.0265
3456.0,0.0272
3455.0,0.0279
3454.0,0.0286
3453.0,0.0292
3452.0,0.0298
3451.0,0.0305
3450.0,0.0312
3449.0,0.032
3448.0,0.033
3447.0,0.034
3446.0,0.035
3445.0,0.0358
3444.0,0.0366
3443.0,0.0373
3442.0,0.0382
3441.0,0.0391
3440.0,0.0401
3439.0,0.041
3438.0,0.042
3437.0,0.043
3436.0,0.0441
3435.0,0.0453
3434.0,0.0465
3433.0,0.0478
3432.0,0.0491
3431.0,0.0505
3430.0,0.052
3429.0,0.0536
3428.0,0.0551
3427.0,0.0565
3426.0,0.0579
3425.0,0.0592
3424.0,0.0606
3423.0,0.0621
3422.0,0.0639
3421.0,0.0658
3420.0,0.0678
3419.0,0.0698
3418.0,0.0717
3417.0,0.0736
3416.0,0.0754
3415.0,0.0771
3414.0,0.0789
3413.0,0.0808
3412.0,0.0828
3411.0,0.0847
3410.0,0.0865
3409.0,0.0882
3408.0,0.0898
3407.0,0.0916
3406.0,0.0935
3405.0,0.0955
3404.0,0.0974
3403.0,0.0992
3402.0,0.101
3401.0,0.1029
3400.0,0.1048
3399.0,0.1068
3398.0,0.1087
3397.0,0.1106
3396.0,0.1124
3395.0,0.114
3394.0,0.1156
3393.0,0.1171
3392.0,0.1185
3391.0,0.1197
3390.0,0.1207
3389.0,0.1216
3388.0,0.1226
3387.0,0.1237
3386.0,0.1247
3385.0,0.1255
3384.0,0.1262
3383.0,0.1266
3382.0,0.1268
3381.0,0.1268
3380.0,0.1267
3379.0,0.1265
3378.0,0.1263
3377.0,0.1259
3376.0,0.1255
3375.0,0.1248
3374.0,0.124
3373.0,0.1232
3372.0,0.1223
3371.0,0.1213
3370.0,0.1202
3369.0,0.1189
3368.0,0.1177
3367.0,0.1164
3366.0,0.1151
3365.0,0.1137
3364.0,0.1123
3363.0,0.111
3362.0,0.1097
3361.0,0.1083
3360.0,0.1069
3359.0,0.1053
3358.0,0.1037
3357.0,0.1022
3356.0,0.1008
3355.0,0.0993
3354.0,0.0976
3353.0,0.0958
3352.0,0.0939
3351.0,0.092
3350.0,0.0902
3349.0,0.0885
3348.0,0.087
3347.0,0.0855
3346.0,0.0841
3345.0,0.0825
3344.0,0.0808
3343.0,0.079
3342.0,0.077
3341.0,0.0752
3340.0,0.0736
3339.0,0.0722
3338.0,0.0708
3337.0,0.0695
3336.0,0.0681
3335.0,0.0667
3334.0,0.0652
3333.0,0.0637
3332.0,0.0622
3331.0,0.0607
3330.0,0.0593
3329.0,0.0579
3328.0,0.0565
3327.0,0.0551
3326.0,0.0537
3325.0,0.0523
3324.0,0.0509
3323.0,0.0497
3322.0,0.0486
3321.0,0.0477
3320.0,0.0466
3319.0,0.0454
3318.0,0.0441
3317.0,0.0426
3316.0,0.0412
3315.0,0.0399
3314.0,0.0388
3313.0,0.0377
3312.0,0.0367
3311.0,0.0357
3310.0,0.0347
3309.0,0.0337
3308.0,0.0328
3307.0,0.0319
3306.0,0.031
3305.0,0.0302
3304.0,0.0294
3303.0,0.0287
3302.0,0.0279
3301.0,0.0271
3300.0,0.0263
3299.0,0.0255
3298.0,0.0247
3297.0,0.0239
3296.0,0.0232
3295.0,0.0226
3294.0,0.022
3293.0,0.0214
3292.0,0.0208
3291.0,0.0202
3290.0,0.0196
3289.0,0.0191
3288.0,0.0185
3287.0,0.018
3286.0,0.0174
3285.0,0.0169
3284.0,0.0163
3283.0,0.0159
3282.0,0.0156
3281.0,0.0154
3280.0,0.0152
3279.0,0.0148
3278.0,0.0144
3277.0,0.014
3276.0,0.0135
3275.0,0.0131
3274.0,0.0128
3273.0,0.0127
3272.0,0.0126
3271.0,0.0125
3270.0,0.0124
3269.0,0.0121
3268.0,0.0119
3267.0,0.0118
3266.0,0.0119
3265.0,0.0122
3264.0,0.0125
3263.0,0.0128
3262.0,0.0132
3261.0,0.0136
3260.0,0.0139
3259.0,0.0144
3258.0,0.0149
3257.0,0.0156
3256.0,0.0164
3255.0,0.0172
3254.0,0.0179
3253.0,0.0185
3252.0,0.019
3251.0,0.0196
3250.0,0.0201
3249.0,0.0206
3248.0,0.021
3247.0,0.0213
3246.0,0.0215
3245.0,0.0217
3244.0,0.0219
3243.0,0.0221
3242.0,0.0222
3241.0,0.022
3240.0,0.0216
3239.0,0.0209
3238.0,0.0202
3237.0,0.0196
3236.0,0.0191
3235.0,0.0186
3234.0,0.0179
3233.0,0.0172
3232.0,0.0165
3231.0,0.0158
3230.0,0.015
3229.0,0.0143
3228.0,0.0135
3227.0,0.0126
3226.0,0.0118
3225.0,0.011
3224.0,0.0102
3223.0,0.0094
3222.0,0.0085
3221.0,0.0075
3220.0,0.0066
3219.0,0.0056
3218.0,0.0048
3217.0,0.004
3216.0,0.0033
3215.0,0.0026
3214.0,0.0018
3213.0,0.0011
3212.0,0.0004
3211.0,-0.0002
3210.0,-0.0008
3209.0,-0.0013
3208.0,-0.0019
3207.0,-0.0025
3206.0,-0.0031
3205.0,-0.0036
3204.0,-0.0041
3203.0,-0.0046
3202.0,-0.0049
3201.0,-0.0053
3200.0,-0.0057
3199.0,-0.0061
3198.0,-0.0065
3197.0,-0.0068
3196.0,-0.007
3195.0,-0.0072
3194.0,-0.0074
3193.0,-0.0077
3192.0,-0.0079
3191.0,-0.0081
3190.0,-0.0082
3189.0,-0.0083
3188.0,-0.0085
3187.0,-0.0089
3186.0,-0.0092
3185.0,-0.0095
3184.0,-0.0096
3183.0,-0.0096
3182.0,-0.0096
3181.0,-0.0096
3180.0,-0.0097
3179.0,-0.0099
3178.0,-0.01
3177.0,-0.0102
3176.0,-0.0104
3175.0,-0.0106
3174.0,-0.0108
3173.0,-0.0108
3172.0,-0.0108
3171.0,-0.0109
3170.0,-0.0109
3169.0,-0.011
3168.0,-0.0111
3167.0,-0.0112
3166.0,-0.0113
3165.0,-0.0113
3164.0,-0.0113
3163.0,-0.0114
3162.0,-0.0114
3161.0,-0.0116
3160.0,-0.0117
3159.0,-0.0118
3158.0,-0.0118
3157.0,-0.0118
3156.0,-0.0118
3155.0,-0.0119
3154.0,-0.012
3153.0,-0.0121
3152.0,-0.0122
3151.0,-0.0123
3150.0,-0.0123
3149.0,-0.0123
3148.0,-0.0123
3147.0,-0.0123
3146.0,-0.0123
3145.0,-0.0124
3144.0,-0.0124
3143.0,-0.0124
3142.0,-0.0123
3141.0,-0.0122
3140.0,-0.0122
3139.0,-0.0122
3138.0,-0.0123
3137.0,-0.0124
3136.0,-0.0124
3135.0,-0.0124
3134.0,-0.0124
3133.0,-0.0124
3132.0,-0.0124
3131.0,-0.0124
3130.0,-0.0125
3129.0,-0.0125
3128.0,-0.0124
3127.0,-0.0124
3126.0,-0.0124
3125.0,-0.0124
3124.0,-0.0125
3123.0,-0.0126
3122.0,-0.0125
3121.0,-0.0124
3120.0,-0.0124
3119.0,-0.0124
3118.0,-0.0126
3117.0,-0.0126
3116.0,-0.0126
3115.0,-0.0126
3114.0,-0.0125
3113.0,-0.0125
3112.0,-0.0125
3111.0,-0.0124
3110.0,-0.0123
3109.0,-0.0122
3108.0,-0.0122
3107.0,-0.0123
3106.0,-0.0124
3105.0,-0.0124
3104.0,-0.0124
3103.0,-0.0123
3102.0,-0.0122
3101.0,-0.0121
3100.0,-0.0121
3099.0,-0.0121
3098.0,-0.0121
3097.0,-0.012
3096.0,-0.0119
3095.0,-0.0118
3094.0,-0.0118
3093.0,-0.0118
3092.0,-0.0119
3091.0,-0.0119
3090.0,-0.0119
3089.0,-0.0117
3088.0,-0.0116
3087.0,-0.0115
3086.0,-0.0115
3085.0,-0.0114
3084.0,-0.0114
3083.0,-0.0113
3082.0,-0.0112
3081.0,-0.0112
3080.0,-0.0112
3079.0,-0.0112
3078.0,-0.0112
3077.0,-0.0112
3076.0,-0.0111
3075.0,-0.0111
3074.0,-0.011
3073.0,-0.0111
3072.0,-0.0111
3071.0,-0.011
3070.0,-0.0109
3069.0,-0.0108
3068.0,-0.0107
3067.0,-0.0106
3066.0,-0.0107
3065.0,-0.0107
3064.0,-0.0107
3063.0,-0.0107
3062.0,-0.0107
3061.0,-0.0107
3060.0,-0.0107
3059.0,-0.0106
3058.0,-0.0105
3057.0,-0.0105
3056.0,-0.0104
3055.0,-0.0103
3054.0,-0.0103
3053.0,-0.0102
3052.0,-0.0102
3051.0,-0.0102
3050.0,-0.0102
3049.0,-0.0101
3048.0,-0.0101
3047.0,-0.0101
3046.0,-0.01
3045.0,-0.0098
3044.0,-0.0098
3043.0,-0.0098
3042.0,-0.0098
3041.0,-0.0099
3040.0,-0.01
3039.0,-0.01
3038.0,-0.01
3037.0,-0.0099
3036.0,-0.0099
3035.0,-0.0099
3034.0,-0.0099
3033.0,-0.0098
3032.0,-0.0098
3031.0,-0.0097
3030.0,-0.0096
3029.0,-0.0096
3028.0,-0.0096
3027.0,-0.0096
3026.0,-0.0095
3025.0,-0.0094
3024.0,-0.0094
3023.0,-0.0094
3022.0,-0.0094
3021.0,-0.0094
3020.0,-0.0094
3019.0,-0.0093
3018.0,-0.0093
3017.0,-0.0093
3016.0,-0.0093
3015.0,-0.0093
3014.0,-0.0093
3013.0,-0.0093
3012.0,-0.0092
3011.0,-0.0092
3010.0,-0.0092
3009.0,-0.0091
3008.0,-0.0091
3007.0,-0.009
3006.0,-0.0089
3005.0,-0.0089
3004.0,-0.0089
3003.0,-0.009
3002.0,-0.0089
3001.0,-0.0089
3000.0,-0.0088
2999.0,-0.0087
2998.0,-0.0086
2997.0,-0.0086
2996.0,-0.0086
2995.0,-0.0087
2994.0,-0.0087
2993.0,-0.0086
2992.0,-0.0086
2991.0,-0.0086
2990.0,-0.0086
2989.0,-0.0085
2988.0,-0.0084
2987.0,-0.0084
2986.0,-0.0083
2985.0,-0.0083
2984.0,-0.0083
2983.0,-0.0083
2982.0,-0.0083
2981.0,-0.0083
2980.0,-0.0082
2979.0,-0.0081
2978.0,-0.0081
2977.0,-0.008
2976.0,-0.0079
2975.0,-0.0077
2974.0,-0.0077
2973.0,-0.0076
2972.0,-0.0076
2971.0,-0.0077
2970.0,-0.0077
2969.0,-0.0076
2968.0,-0.0076
2967.0,-0.0075
2966.0,-0.0074
2965.0,-0.0073
2964.0,-0.0072
2963.0,-0.0072
2962.0,-0.0071
2961.0,-0.0071
2960.0,-0.007
2959.0,-0.0069
2958.0,-0.0069
2957.0,-0.0069
2956.0,-0.0068
2955.0,-0.0067
2954.0,-0.0066
2953.0,-0.0067
2952.0,-0.0067
2951.0,-0.0068
2950.0,-0.0069
2949.0,-0.0068
2948.0,-0.0068
2947.0,-0.0067
2946.0,-0.0067
2945.0,-0.0067
2944.0,-0.0067
2943.0,-0.0067
2942.0,-0.0067
2941.0,-0.0066
2940.0,-0.0066
2939.0,-0.0067
2938.0,-0.0067
2937.0,-0.0068
2936.0,-0.0068
2935.0,-0.0068
2934.0,-0.0068
2933.0,-0.0067
2932.0,-0.0067
2931.0,-0.0067
2930.0,-0.0067
2929.0,-0.0068
2928.0,-0.0068
2927.0,-0.0068
2926.0,-0.0068
2925.0,-0.0068
2924.0,-0.0068
2923.0,-0.0068
2922.0,-0.0068
2921.0,-0.0068
2920.0,-0.0067
2919.0,-0.0067
2918.0,-0.0066
2917.0,-0.0066
2916.0,-0.0065
2915.0,-0.0065
2914.0,-0.0065
2913.0,-0.0065
2912.0,-0.0065
2911.0,-0.0064
2910.0,-0.0064
2909.0,-0.0064
2908.0,-0.0064
2907.0,-0.0063
2906.0,-0.0063
2905.0,-0.0063
2904.0,-0.0063
2903.0,-0.0063
2902.0,-0.0063
2901.0,-0.0063
2900.0,-0.0063
2899.0,-0.0063
2898.0,-0.0062
2897.0,-0.0062
2896.0,-0.0062
2895.0,-0.0062
2894.0,-0.0062
2893.0,-0.0062
2892.0,-0.0062
2891.0,-0.0062
2890.0,-0.0062
2889.0,-0.0063
2888.0,-0.0064
2887.0,-0.0064
2886.0,-0.0064
2885.0,-0.0064
2884.0,-0.0064
2883.0,-0.0064
2882.0,-0.0063
2881.0,-0.0063
2880.0,-0.0062
2879.0,-0.0062
2878.0,-0.0062
2877.0,-0.0062
2876.0,-0.0062
2875.0,-0.0062
2874.0,-0.0062
2873.0,-0.0061
2872.0,-0.006
2871.0,-0.006
2870.0,-0.006
2869.0,-0.006
2868.0,-0.006
2867.0,-0.0061
2866.0,-0.0061
2865.0,-0.0062
2864.0,-0.0061
2863.0,-0.006
2862.0,-0.0059
2861.0,-0.0058
2860.0,-0.0057
2859.0,-0.0057
2858.0,-0.0058
2857.0,-0.0058
2856.0,-0.0059
2855.0,-0.006
2854.0,-0.0061
2853.0,-0.0061
2852.0,-0.0059
2851.0,-0.0057
2850.0,-0.0056
2849.0,-0.0055
2848.0,-0.0056
2847.0,-0.0057
2846.0,-0.0058
2845.0,-0.0059
2844.0,-0.0059
2843.0,-0.0058
2842.0,-0.0058
2841.0,-0.0057
2840.0,-0.0057
2839.0,-0.0056
2838.0,-0.0055
2837.0,-0.0055
2836.0,-0.0056
2835.0,-0.0057
2834.0,-0.0058
2833.0,-0.0058
2832.0,-0.0058
2831.0,-0.0058
2830.0,-0.0057
2829.0,-0.0057
2828.0,-0.0057
2827.0,-0.0057
2826.0,-0.0057
2825.0,-0.0056
2824.0,-0.0055
2823.0,-0.0054
2822.0,-0.0055
2821.0,-0.0055
2820.0,-0.0056
2819.0,-0.0056
2818.0,-0.0057
2817.0,-0.0057
2816.0,-0.0057
2815.0,-0.0056
2814.0,-0.0056
2813.0,-0.0056
2812.0,-0.0056
2811.0,-0.0056
2810.0,-0.0056
2809.0,-0.0055
2808.0,-0.0054
2807.0,-0.0053
2806.0,-0.0053
2805.0,-0.0053
2804.0,-0.0054
2803.0,-0.0054
2802.0,-0.0055
2801.0,-0.0055
2800.0,-0.0055
2799.0,-0.0055
2798.0,-0.0054
2797.0,-0.0054
2796.0,-0.0053
2795.0,-0.0053
2794.0,-0.0053
2793.0,-0.0053
2792.0,-0.0053
2791.0,-0.0053
2790.0,-0.0053
2789.0,-0.0053
2788.0,-0.0053
2787.0,-0.0053
2786.0,-0.0053
2785.0,-0.0053
2784.0,-0.0053
2783.0,-0.0053
2782.0,-0.0053
2781.0,-0.0053
2780.0,-0.0053
2779.0,-0.0053
2778.0,-0.0053
2777.0,-0.0053
2776.0,-0.0053
2775.0,-0.0053
2774.0,-0.0053
2773.0,-0.0053
2772.0,-0.0053
2771.0,-0.0054
2770.0,-0.0054
2769.0,-0.0054
2768.0,-0.0053
2767.0,-0.0052
2766.0,-0.0052
2765.0,-0.0052
2764.0,-0.0053
2763.0,-0.0053
2762.0,-0.0053
2761.0,-0.0052
2760.0,-0.0051
2759.0,-0.0051
2758.0,-0.005
2757.0,-0.005
2756.0,-0.005
2755.0,-0.005
2754.0,-0.005
2753.0,-0.0051
2752.0,-0.0052
2751.0,-0.0052
2750.0,-0.0052
2749.0,-0.0051
2748.0,-0.0051
2747.0,-0.005
2746.0,-0.005
2745.0,-0.005
2744.0,-0.005
2743.0,-0.005
2742.0,-0.0051
2741.0,-0.0051
2740.0,-0.0051
2739.0,-0.0051
2738.0,-0.0051
2737.0,-0.005
2736.0,-0.005
2735.0,-0.005
2734.0,-0.005
2733.0,-0.005
2732.0,-0.005
2731.0,-0.005
2730.0,-0.005
2729.0,-0.005
2728.0,-0.005
2727.0,-0.0051
2726.0,-0.005
2725.0,-0.005
2724.0,-0.005
2723.0,-0.005
2722.0,-0.005
2721.0,-0.005
2720.0,-0.0049
2719.0,-0.0049
2718.0,-0.0049
2717.0,-0.0049
2716.0,-0.0049
2715.0,-0.005
2714.0,-0.005
2713.0,-0.005
2712.0,-0.005
2711.0,-0.005
2710.0,-0.005
2709.0,-0.005
2708.0,-0.0049
2707.0,-0.0048
2706.0,-0.0048
2705.0,-0.0048
2704.0,-0.0048
2703.0,-0.0049
2702.0,-0.0049
2701.0,-0.0049
2700.0,-0.0049
2699.0,-0.0049
2698.0,-0.0048
2697.0,-0.0048
2696.0,-0.0048
2695.0,-0.0048
2694.0,-0.0048
2693.0,-0.0048
2692.0,-0.0048
2691.0,-0.0048
2690.0,-0.0048
2689.0,-0.0048
2688.0,-0.0048
2687.0,-0.0048
2686.0,-0.0047
2685.0,-0.0047
2684.0,-0.0047
2683.0,-0.0047
2682.0,-0.0048
2681.0,-0.0048
2680.0,-0.0048
2679.0,-0.0048
2678.0,-0.0048
2677.0,-0.0048
2676.0,-0.0047
2675.0,-0.0047
2674.0,-0.0046
2673.0,-0.0047
2672.0,-0.0047
2671.0,-0.0047
2670.0,-0.0047
2669.0,-0.0047
2668.0,-0.0047
2667.0,-0.0047
2666.0,-0.0047
2665.0,-0.0047
2664.0,-0.0047
2663.0,-0.0047
2662.0,-0.0047
2661.0,-0.0047
2660.0,-0.0048
2659.0,-0.0048
2658.0,-0.0047
2657.0,-0.0047
2656.0,-0.0047
2655.0,-0.0047
2654.0,-0.0047
2653.0,-0.0047
2652.0,-0.0046
2651.0,-0.0046
2650.0,-0.0046
2649.0,-0.0046
2648.0,-0.0046
2647.0,-0.0046
2646.0,-0.0047
2645.0,-0.0047
2644.0,-0.0048
2643.0,-0.0048
2642.0,-0.0048
2641.0,-0.0047
2640.0,-0.0047
2639.0,-0.0046
2638.0,-0.0046
2637.0,-0.0046
2636.0,-0.0046
2635.0,-0.0046
2634.0,-0.0046
2633.0,-0.0046
2632.0,-0.0046
2631.0,-0.0045
2630.0,-0.0045
2629.0,-0.0046
2628.0,-0.0046
2627.0,-0.0047
2626.0,-0.0046
2625.0,-0.0046
2624.0,-0.0046
2623.0,-0.0046
2622.0,-0.0047
2621.0,-0.0047
2620.0,-0.0047
2619.0,-0.0046
2618.0,-0.0045
2617.0,-0.0045
2616.0,-0.0044
2615.0,-0.0045
2614.0,-0.0045
2613.0,-0.0045
2612.0,-0.0046
2611.0,-0.0046
2610.0,-0.0046
2609.0,-0.0045
2608.0,-0.0046
2607.0,-0.0046
2606.0,-0.0046
2605.0,-0.0046
2604.0,-0.0045
2603.0,-0.0045
2602.0,-0.0045
2601.0,-0.0044
2600.0,-0.0045
2599.0,-0.0045
2598.0,-0.0045
2597.0,-0.0045
2596.0,-0.0045
2595.0,-0.0045
2594.0,-0.0045
2593.0,-0.0046
2592.0,-0.0047
2591.0,-0.0047
2590.0,-0.0046
2589.0,-0.0045
2588.0,-0.0044
2587.0,-0.0043
2586.0,-0.0043
2585.0,-0.0043
2584.0,-0.0044
2583.0,-0.0044
2582.0,-0.0044
2581.0,-0.0045
2580.0,-0.0045
2579.0,-0.0046
2578.0,-0.0046
2577.0,-0.0045
2576.0,-0.0045
2575.0,-0.0044
2574.0,-0.0044
2573.0,-0.0045
2572.0,-0.0046
2571.0,-0.0046
2570.0,-0.0045
2569.0,-0.0045
2568.0,-0.0045
2567.0,-0.0045
2566.0,-0.0045
2565.0,-0.0045
2564.0,-0.0044
2563.0,-0.0043
2562.0,-0.0043
2561.0,-0.0043
2560.0,-0.0043
2559.0,-0.0044
2558.0,-0.0044
2557.0,-0.0044
2556.0,-0.0044
2555.0,-0.0045
2554.0,-0.0045
2553.0,-0.0045
2552.0,-0.0044
2551.0,-0.0044
2550.0,-0.0044
2549.0,-0.0044
2548.0,-0.0045
2547.0,-0.0044
2546.0,-0.0044
2545.0,-0.0043
2544.0,-0.0043
2543.0,-0.0043
2542.0,-0.0044
2541.0,-0.0044
2540.0,-0.0045
2539.0,-0.0044
2538.0,-0.0044
2537.0,-0.0043
2536.0,-0.0043
2535.0,-0.0044
2534.0,-0.0044
2533.0,-0.0043
2532.0,-0.0043
2531.0,-0.0043
2530.0,-0.0043
2529.0,-0.0044
2528.0,-0.0044
2527.0,-0.0044
2526.0,-0.0044
2525.0,-0.0044
2524.0,-0.0043
2523.0,-0.0043
2522.0,-0.0043
2521.0,-0.0043
2520.0,-0.0043
2519.0,-0.0043
2518.0,-0.0044
2517.0,-0.0044
2516.0,-0.0044
2515.0,-0.0044
2514.0,-0.0043
2513.0,-0.0043
2512.0,-0.0043
2511.0,-0.0043
2510.0,-0.0043
2509.0,-0.0043
2508.0,-0.0043
2507.0,-0.0043
2506.0,-0.0043
2505.0,-0.0043
2504.0,-0.0044
2503.0,-0.0044
2502.0,-0.0044
2501.0,-0.0044
2500.0,-0.0044
2499.0,-0.0044
2498.0,-0.0044
2497.0,-0.0043
2496.0,-0.0044
2495.0,-0.0044
2494.0,-0.0044
2493.0,-0.0044
2492.0,-0.0044
2491.0,-0.0043
2490.0,-0.0043
2489.0,-0.0043
2488.0,-0.0044
2487.0,-0.0044
2486.0,-0.0045
2485.0,-0.0046
2484.0,-0.0047
2483.0,-0.0047
2482.0,-0.0047
2481.0,-0.0047
2480.0,-0.0047
2479.0,-0.0046
2478.0,-0.0046
2477.0,-0.0046
2476.0,-0.0046
2475.0,-0.0046
2474.0,-0.0045
2473.0,-0.0045
2472.0,-0.0045
2471.0,-0.0045
2470.0,-0.0045
2469.0,-0.0045
2468.0,-0.0044
2467.0,-0.0044
2466.0,-0.0044
2465.0,-0.0044
2464.0,-0.0045
2463.0,-0.0045
2462.0,-0.0045
2461.0,-0.0044
2460.0,-0.0044
2459.0,-0.0044
2458.0,-0.0044
2457.0,-0.0044
2456.0,-0.0044
2455.0,-0.0044
2454.0,-0.0045
2453.0,-0.0045
2452.0,-0.0044
2451.0,-0.0044
2450.0,-0.0044
2449.0,-0.0044
2448.0,-0.0044
2447.0,-0.0045
2446.0,-0.0045
2445.0,-0.0045
2444.0,-0.0045
2443.0,-0.0044
2442.0,-0.0045
2441.0,-0.0045
2440.0,-0.0045
2439.0,-0.0045
2438.0,-0.0045
2437.0,-0.0045
2436.0,-0.0045
2435.0,-0.0045
2434.0,-0.0045
2433.0,-0.0045
2432.0,-0.0045
2431.0,-0.0045
2430.0,-0.0046
2429.0,-0.0046
2428.0,-0.0046
2427.0,-0.0046
2426.0,-0.0046
2425.0,-0.0046
2424.0,-0.0046
2423.0,-0.0046
2422.0,-0.0046
2421.0,-0.0046
2420.0,-0.0046
2419.0,-0.0046
2418.0,-0.0045
2417.0,-0.0045
2416.0,-0.0045
2415.0,-0.0045
2414.0,-0.0045
2413.0,-0.0045
2412.0,-0.0045
2411.0,-0.0045
2410.0,-0.0045
2409.0,-0.0045
2408.0,-0.0045
2407.0,-0.0045
2406.0,-0.0046
2405.0,-0.0046
2404.0,-0.0046
2403.0,-0.0046
2402.0,-0.0045
2401.0,-0.0044
2400.0,-0.0044
2399.0,-0.0044
2398.0,-0.0045
2397.0,-0.0046
2396.0,-0.0046
2395.0,-0.0046
2394.0,-0.0046
2393.0,-0.0046
2392.0,-0.0045
2391.0,-0.0045
2390.0,-0.0044
2389.0,-0.0043
2388.0,-0.0043
2387.0,-0.0042
2386.0,-0.004
2385.0,-0.004
2384.0,-0.0039
2383.0,-0.0038
2382.0,-0.0038
2381.0,-0.0039
2380.0,-0.0039
2379.0,-0.004
2378.0,-0.0039
2377.0,-0.0036
2376.0,-0.0031
2375.0,-0.0027
2374.0,-0.0026
2373.0,-0.0027
2372.0,-0.0031
2371.0,-0.0036
2370.0,-0.0042
2369.0,-0.0044
2368.0,-0.0043
2367.0,-0.0037
2366.0,-0.0029
2365.0,-0.0023
2364.0,-0.0024
2363.0,-0.0032
2362.0,-0.0041
2361.0,-0.0045
2360.0,-0.004
2359.0,-0.0031
2358.0,-0.0025
2357.0,-0.0025
2356.0,-0.0026
2355.0,-0.0026
2354.0,-0.0028
2353.0,-0.0031
2352.0,-0.0034
2351.0,-0.0034
2350.0,-0.0031
2349.0,-0.0027
2348.0,-0.0025
2347.0,-0.0026
2346.0,-0.0028
2345.0,-0.0028
2344.0,-0.0021
2343.0,-0.0012
2342.0,-0.0011
2341.0,-0.0018
2340.0,-0.0026
2339.0,-0.0029
2338.0,-0.0027
2337.0,-0.0024
2336.0,-0.0021
2335.0,-0.0019
2334.0,-0.0018
2333.0,-0.0016
2332.0,-0.0016
2331.0,-0.0018
2330.0,-0.0022
2329.0,-0.0025
2328.0,-0.0025
2327.0,-0.0024
2326.0,-0.0024
2325.0,-0.0024
2324.0,-0.0024
2323.0,-0.0023
2322.0,-0.0022
2321.0,-0.002
2320.0,-0.0017
2319.0,-0.0014
2318.0,-0.0012
2317.0,-0.0012
2316.0,-0.0013
2315.0,-0.0015
2314.0,-0.0016
2313.0,-0.0016
2312.0,-0.0015
2311.0,-0.0014
2310.0,-0.0013
2309.0,-0.0012
2308.0,-0.0012
2307.0,-0.0012
2306.0,-0.0013
2305.0,-0.0014
2304.0,-0.0014
2303.0,-0.0013
2302.0,-0.0012
2301.0,-0.0011
2300.0,-0.001
2299.0,-0.001
2298.0,-0.001
2297.0,-0.001
2296.0,-0.001
2295.0,-0.001
2294.0,-0.001
2293.0,-0.0011
2292.0,-0.0011
2291.0,-0.0011
2290.0,-0.001
2289.0,-0.001
2288.0,-0.001
2287.0,-0.001
2286.0,-0.001
2285.0,-0.001
2284.0,-0.0009
2283.0,-0.0009
2282.0,-0.0009
2281.0,-0.0009
2280.0,-0.0008
2279.0,-0.0008
2278.0,-0.0007
2277.0,-0.0007
2276.0,-0.0007
2275.0,-0.0007
2274.0,-0.0007
2273.0,-0.0007
2272.0,-0.0008
2271.0,-0.0009
2270.0,-0.0009
2269.0,-0.0009
2268.0,-0.0008
2267.0,-0.0007
2266.0,-0.0007
2265.0,-0.0007
2264.0,-0.0007
2263.0,-0.0008
2262.0,-0.0009
2261.0,-0.0009
2260.0,-0.0009
2259.0,-0.0009
2258.0,-0.0008
2257.0,-0.0008
2256.0,-0.0008
2255.0,-0.0008
2254.0,-0.0008
2253.0,-0.0008
2252.0,-0.0008
2251.0,-0.0009
2250.0,-0.001
2249.0,-0.0011
2248.0,-0.0011
2247.0,-0.0011
2246.0,-0.0012
2245.0,-0.0012
2244.0,-0.0012
2243.0,-0.0012
2242.0,-0.0011
2241.0,-0.0011
2240.0,-0.0011
2239.0,-0.0011
2238.0,-0.0011
2237.0,-0.0011
2236.0,-0.0012
2235.0,-0.0012
2234.0,-0.0012
2233.0,-0.0013
2232.0,-0.0013
2231.0,-0.0014
2230.0,-0.0014
2229.0,-0.0014
2228.0,-0.0014
2227.0,-0.0014
2226.0,-0.0014
2225.0,-0.0014
2224.0,-0.0014
2223.0,-0.0015
2222.0,-0.0015
2221.0,-0.0015
2220.0,-0.0016
2219.0,-0.0016
2218.0,-0.0016
2217.0,-0.0016
2216.0,-0.0016
2215.0,-0.0016
2214.0,-0.0016
2213.0,-0.0017
2212.0,-0.0018
2211.0,-0.0018
2210.0,-0.0019
2209.0,-0.0019
2208.0,-0.0019
2207.0,-0.0019
2206.0,-0.0019
2205.0,-0.0019
2204.0,-0.002
2203.0,-0.002
2202.0,-0.002
2201.0,-0.002
2200.0,-0.002
2199.0,-0.0021
2198.0,-0.0021
2197.0,-0.0021
2196.0,-0.0021
2195.0,-0.0021
2194.0,-0.0021
2193.0,-0.0021
2192.0,-0.0022
2191.0,-0.0022
2190.0,-0.0022
2189.0,-0.0023
2188.0,-0.0023
2187.0,-0.0024
2186.0,-0.0024
2185.0,-0.0024
2184.0,-0.0024
2183.0,-0.0024
2182.0,-0.0024
2181.0,-0.0024
2180.0,-0.0025
2179.0,-0.0025
2178.0,-0.0026
2177.0,-0.0026
2176.0,-0.0026
2175.0,-0.0026
2174.0,-0.0027
2173.0,-0.0027
2172.0,-0.0028
2171.0,-0.0027
2170.0,-0.0027
2169.0,-0.0026
2168.0,-0.0025
2167.0,-0.0024
2166.0,-0.0024
2165.0,-0.0025
2164.0,-0.0026
2163.0,-0.0027
2162.0,-0.0028
2161.0,-0.0028
2160.0,-0.0028
2159.0,-0.0028
2158.0,-0.0028
2157.0,-0.0028
2156.0,-0.0028
2155.0,-0.0029
2154.0,-0.0029
2153.0,-0.003
2152.0,-0.003
2151.0,-0.003
2150.0,-0.003
2149.0,-0.0029
2148.0,-0.0029
2147.0,-0.0029
2146.0,-0.003
2145.0,-0.003
2144.0,-0.0031
2143.0,-0.0031
2142.0,-0.0031
2141.0,-0.0031
2140.0,-0.0031
2139.0,-0.0031
2138.0,-0.003
2137.0,-0.003
2136.0,-0.003
2135.0,-0.003
2134.0,-0.0031
2133.0,-0.0031
2132.0,-0.0031
2131.0,-0.0031
2130.0,-0.0031
2129.0,-0.0031
2128.0,-0.0032
2127.0,-0.0032
2126.0,-0.0033
2125.0,-0.0033
2124.0,-0.0033
2123.0,-0.0032
2122.0,-0.0032
2121.0,-0.0032
2120.0,-0.0032
2119.0,-0.0033
2118.0,-0.0033
2117.0,-0.0034
2116.0,-0.0034
2115.0,-0.0034
2114.0,-0.0034
2113.0,-0.0034
2112.0,-0.0034
2111.0,-0.0034
2110.0,-0.0033
2109.0,-0.0034
2108.0,-0.0034
2107.0,-0.0034
2106.0,-0.0034
2105.0,-0.0034
2104.0,-0.0034
2103.0,-0.0034
2102.0,-0.0034
2101.0,-0.0034
2100.0,-0.0035
2099.0,-0.0035
2098.0,-0.0035
2097.0,-0.0035
2096.0,-0.0034
2095.0,-0.0034
2094.0,-0.0034
2093.0,-0.0035
2092.0,-0.0034
2091.0,-0.0034
2090.0,-0.0034
2089.0,-0.0034
2088.0,-0.0034
2087.0,-0.0033
2086.0,-0.0034
2085.0,-0.0034
2084.0,-0.0034
2083.0,-0.0035
2082.0,-0.0035
2081.0,-0.0035
2080.0,-0.0035
2079.0,-0.0035
2078.0,-0.0034
2077.0,-0.0034
2076.0,-0.0034
2075.0,-0.0034
2074.0,-0.0034
2073.0,-0.0034
2072.0,-0.0034
2071.0,-0.0033
2070.0,-0.0033
2069.0,-0.0033
2068.0,-0.0033
2067.0,-0.0034
2066.0,-0.0034
2065.0,-0.0035
2064.0,-0.0036
2063.0,-0.0036
2062.0,-0.0035
2061.0,-0.0035
2060.0,-0.0035
2059.0,-0.0035
2058.0,-0.0036
2057.0,-0.0037
2056.0,-0.0037
2055.0,-0.0037
2054.0,-0.0037
2053.0,-0.0037
2052.0,-0.0037
2051.0,-0.0037
2050.0,-0.0037
2049.0,-0.0037
2048.0,-0.0037
2047.0,-0.0037
2046.0,-0.0037
2045.0,-0.0038
2044.0,-0.0038
2043.0,-0.0039
2042.0,-0.0039
2041.0,-0.0039
2040.0,-0.0039
2039.0,-0.0039
2038.0,-0.0039
2037.0,-0.0039
2036.0,-0.0039
2035.0,-0.0039
2034.0,-0.0039
2033.0,-0.0039
2032.0,-0.0039
2031.0,-0.0039
2030.0,-0.0039
2029.0,-0.004
2028.0,-0.004
2027.0,-0.0041
2026.0,-0.0042
2025.0,-0.0042
2024.0,-0.0042
2023.0,-0.0041
2022.0,-0.0041
2021.0,-0.0041
2020.0,-0.0041
2019.0,-0.0042
2018.0,-0.0042
2017.0,-0.0043
2016.0,-0.0042
2015.0,-0.0042
2014.0,-0.0041
2013.0,-0.0041
2012.0,-0.0042
2011.0,-0.0042
2010.0,-0.0043
2009.0,-0.0043
2008.0,-0.0042
2007.0,-0.0042
2006.0,-0.0042
2005.0,-0.0042
2004.0,-0.0042
2003.0,-0.0041
2002.0,-0.0042
2001.0,-0.0042
2000.0,-0.0043
1999.0,-0.0043
1998.0,-0.0042
1997.0,-0.0042
1996.0,-0.0042
1995.0,-0.0042
1994.0,-0.0042
1993.0,-0.0043
1992.0,-0.0044
1991.0,-0.0044
1990.0,-0.0043
1989.0,-0.0043
1988.0,-0.0043
1987.0,-0.0043
1986.0,-0.0043
1985.0,-0.0043
1984.0,-0.0043
1983.0,-0.0043
1982.0,-0.0043
1981.0,-0.0043
1980.0,-0.0042
1979.0,-0.0042
1978.0,-0.0042
1977.0,-0.0042
1976.0,-0.0042
1975.0,-0.0042
1974.0,-0.0042
1973.0,-0.0042
1972.0,-0.0042
1971.0,-0.0042
1970.0,-0.0042
1969.0,-0.0042
1968.0,-0.0043
1967.0,-0.0042
1966.0,-0.0042
1965.0,-0.0042
1964.0,-0.0041
1963.0,-0.0041
1962.0,-0.0041
1961.0,-0.0041
1960.0,-0.0041
1959.0,-0.0041
1958.0,-0.0041
1957.0,-0.0041
1956.0,-0.0041
1955.0,-0.0041
1954.0,-0.004
1953.0,-0.004
1952.0,-0.0041
1951.0,-0.004
1950.0,-0.004
1949.0,-0.004
1948.0,-0.004
1947.0,-0.0041
1946.0,-0.0041
1945.0,-0.0042
1944.0,-0.0043
1943.0,-0.0043
1942.0,-0.0043
1941.0,-0.0042
1940.0,-0.0042
1939.0,-0.0042
1938.0,-0.0042
1937.0,-0.0043
1936.0,-0.0043
1935.0,-0.0043
1934.0,-0.0043
1933.0,-0.0043
1932.0,-0.0043
1931.0,-0.0043
1930.0,-0.0043
1929.0,-0.0043
1928.0,-0.0043
1927.0,-0.0042
1926.0,-0.0042
1925.0,-0.0042
1924.0,-0.0043
1923.0,-0.0044
1922.0,-0.0044
1921.0,-0.0043
1920.0,-0.0043
1919.0,-0.0043
1918.0,-0.0044
1917.0,-0.0045
1916.0,-0.0044
1915.0,-0.0044
1914.0,-0.0043
1913.0,-0.0044
1912.0,-0.0044
1911.0,-0.0045
1910.0,-0.0045
1909.0,-0.0045
1908.0,-0.0046
1907.0,-0.0045
1906.0,-0.0045
1905.0,-0.0045
1904.0,-0.0045
1903.0,-0.0045
1902.0,-0.0045
1901.0,-0.0045
1900.0,-0.0044
1899.0,-0.0044
1898.0,-0.0044
1897.0,-0.0045
1896.0,-0.0046
1895.0,-0.0047
1894.0,-0.0047
1893.0,-0.0046
1892.0,-0.0046
1891.0,-0.0045
1890.0,-0.0045
1889.0,-0.0045
1888.0,-0.0045
1887.0,-0.0045
1886.0,-0.0045
1885.0,-0.0045
1884.0,-0.0044
1883.0,-0.0044
1882.0,-0.0044
1881.0,-0.0043
1880.0,-0.0043
1879.0,-0.0043
1878.0,-0.0043
1877.0,-0.0043
1876.0,-0.0043
1875.0,-0.0043
1874.0,-0.0043
1873.0,-0.0042
1872.0,-0.0041
1871.0,-0.0041
1870.0,-0.0041
1869.0,-0.0043
1868.0,-0.0044
1867.0,-0.0045
1866.0,-0.0045
1865.0,-0.0044
1864.0,-0.0044
1863.0,-0.0043
1862.0,-0.0043
1861.0,-0.0043
1860.0,-0.0043
1859.0,-0.0044
1858.0,-0.0044
1857.0,-0.0044
1856.0,-0.0044
1855.0,-0.0045
1854.0,-0.0045
1853.0,-0.0045
1852.0,-0.0046
1851.0,-0.0046
1850.0,-0.0047
1849.0,-0.0048
1848.0,-0.0048
1847.0,-0.0048
1846.0,-0.0048
1845.0,-0.0048
1844.0,-0.005
1843.0,-0.0052
1842.0,-0.0053
1841.0,-0.0053
1840.0,-0.0052
1839.0,-0.0052
1838.0,-0.0052
1837.0,-0.0053
1836.0,-0.0054
1835.0,-0.0054
1834.0,-0.0054
1833.0,-0.0054
1832.0,-0.0054
1831.0,-0.0054
1830.0,-0.0055
1829.0,-0.0056
1828.0,-0.0057
1827.0,-0.0057
1826.0,-0.0057
1825.0,-0.0058
1824.0,-0.0059
1823.0,-0.0059
1822.0,-0.006
1821.0,-0.006
1820.0,-0.006
1819.0,-0.0061
1818.0,-0.0061
1817.0,-0.0061
1816.0,-0.0061
1815.0,-0.0061
1814.0,-0.0062
1813.0,-0.0062
1812.0,-0.0063
1811.0,-0.0064
1810.0,-0.0065
1809.0,-0.0066
1808.0,-0.0066
1807.0,-0.0066
1806.0,-0.0066
1805.0,-0.0067
1804.0,-0.0068
1803.0,-0.0069
1802.0,-0.007
1801.0,-0.007
1800.0,-0.0069
1799.0,-0.0069
1798.0,-0.007
1797.0,-0.007
1796.0,-0.0071
1795.0,-0.0071
1794.0,-0.0071
1793.0,-0.0072
1792.0,-0.0073
1791.0,-0.0075
1790.0,-0.0076
1789.0,-0.0076
1788.0,-0.0076
1787.0,-0.0076
1786.0,-0.0077
1785.0,-0.0078
1784.0,-0.0078
1783.0,-0.0078
1782.0,-0.0078
1781.0,-0.0079
1780.0,-0.0081
1779.0,-0.0081
1778.0,-0.0082
1777.0,-0.0083
1776.0,-0.0083
1775.0,-0.0082
1774.0,-0.0083
1773.0,-0.0085
1772.0,-0.0088
1771.0,-0.009
1770.0,-0.009
1769.0,-0.0091
1768.0,-0.0093
1767.0,-0.0094
1766.0,-0.0095
1765.0,-0.0095
1764.0,-0.0096
1763.0,-0.0097
1762.0,-0.01
1761.0,-0.0102
1760.0,-0.0103
1759.0,-0.0104
1758.0,-0.0104
1757.0,-0.0105
1756.0,-0.0105
1755.0,-0.0105
1754.0,-0.0105
1753.0,-0.0105
1752.0,-0.0105
1751.0,-0.0103
1750.0,-0.0101
1749.0,-0.0097
1748.0,-0.0091
1747.0,-0.0084
1746.0,-0.0075
1745.0,-0.0066
1744.0,-0.0055
1743.0,-0.0042
1742.0,-0.0028
1741.0,-0.0012
1740.0,0.0007
1739.0,0.0025
1738.0,0.0039
1737.0,0.005
1736.0,0.0063
1735.0,0.0085
1734.0,0.0112
1733.0,0.013
1732.0,0.0143
1731.0,0.0157
1730.0,0.0174
1729.0,0.0191
1728.0,0.0206
1727.0,0.0219
1726.0,0.0231
1725.0,0.0243
1724.0,0.0256
1723.0,0.0267
1722.0,0.0276
1721.0,0.0281
1720.0,0.0285
1719.0,0.029
1718.0,0.0298
1717.0,0.0306
1716.0,0.0309
1715.0,0.0309
1714.0,0.0305
1713.0,0.0298
1712.0,0.0288
1711.0,0.0276
1710.0,0.0263
1709.0,0.0249
1708.0,0.0235
1707.0,0.0221
1706.0,0.0205
1705.0,0.019
1704.0,0.0178
1703.0,0.0168
1702.0,0.0159
1701.0,0.015
1700.0,0.0139
1699.0,0.0126
1698.0,0.0114
1697.0,0.0105
1696.0,0.0097
1695.0,0.009
1694.0,0.0084
1693.0,0.008
1692.0,0.0075
1691.0,0.0069
1690.0,0.0062
1689.0,0.0056
1688.0,0.0051
1687.0,0.0046
1686.0,0.004
1685.0,0.0034
1684.0,0.003
1683.0,0.0027
1682.0,0.0024
1681.0,0.0021
1680.0,0.0017
1679.0,0.0015
1678.0,0.0012
1677.0,0.0011
1676.0,0.0009
1675.0,0.0006
1674.0,0.0001
1673.0,-0.0004
1672.0,-0.0006
1671.0,-0.0009
1670.0,-0.0011
1669.0,-0.0014
1668.0,-0.0016
1667.0,-0.0018
1666.0,-0.0019
1665.0,-0.002
1664.0,-0.0019
1663.0,-0.0019
1662.0,-0.0017
1661.0,-0.0016
1660.0,-0.0012
1659.0,-0.0007
1658.0,-0.0001
1657.0,0.0005
1656.0,0.0012
1655.0,0.0023
1654.0,0.0054
1653.0,0.0103
1652.0,0.0132
1651.0,0.0147
1650.0,0.0164
1649.0,0.0188
1648.0,0.0232
1647.0,0.0296
1646.0,0.0349
1645.0,0.0382
1644.0,0.041
1643.0,0.0444
1642.0,0.0485
1641.0,0.0533
1640.0,0.0583
1639.0,0.0629
1638.0,0.0672
1637.0,0.0729
1636.0,0.081
1635.0,0.0868
1634.0,0.0871
1633.0,0.0842
1632.0,0.0801
1631.0,0.0753
1630.0,0.07
1629.0,0.0639
1628.0,0.0577
1627.0,0.0519
1626.0,0.0463
1625.0,0.0403
1624.0,0.0334
1623.0,0.0265
1622.0,0.0212
1621.0,0.0175
1620.0,0.0146
1619.0,0.012
1618.0,0.0094
1617.0,0.0069
1616.0,0.0049
1615.0,0.0035
1614.0,0.0026
1613.0,0.0019
1612.0,0.001
1611.0,0.0002
1610.0,-0.0005
1609.0,-0.0012
1608.0,-0.0018
1607.0,-0.0023
1606.0,-0.0028
1605.0,-0.0032
1604.0,-0.0036
1603.0,-0.004
1602.0,-0.0043
1601.0,-0.0045
1600.0,-0.0047
1599.0,-0.0048
1598.0,-0.0049
1597.0,-0.005
1596.0,-0.0051
1595.0,-0.0051
1594.0,-0.0052
1593.0,-0.0052
1592.0,-0.0052
1591.0,-0.0052
1590.0,-0.0051
1589.0,-0.005
1588.0,-0.0049
1587.0,-0.0048
1586.0,-0.0047
1585.0,-0.0044
1584.0,-0.0041
1583.0,-0.0036
1582.0,-0.0031
1581.0,-0.0026
1580.0,-0.0022
1579.0,-0.0018
1578.0,-0.0016
1577.0,-0.0014
1576.0,-0.0013
1575.0,-0.0014
1574.0,-0.0014
1573.0,-0.0014
1572.0,-0.0014
1571.0,-0.0014
1570.0,-0.0014
1569.0,-0.0014
1568.0,-0.0015
1567.0,-0.0016
1566.0,-0.0017
1565.0,-0.0016
1564.0,-0.0016
1563.0,-0.0017
1562.0,-0.0018
1561.0,-0.0019
1560.0,-0.002
1559.0,-0.0018
1558.0,-0.0015
1557.0,-0.0015
1556.0,-0.0016
1555.0,-0.0016
1554.0,-0.0017
1553.0,-0.0017
1552.0,-0.0018
1551.0,-0.0018
1550.0,-0.0019
1549.0,-0.0019
1548.0,-0.0019
1547.0,-0.002
1546.0,-0.002
1545.0,-0.002
1544.0,-0.002
1543.0,-0.0021
1542.0,-0.0021
1541.0,-0.0022
1540.0,-0.0021
1539.0,-0.0022
1538.0,-0.0022
1537.0,-0.0021
1536.0,-0.0019
1535.0,-0.0017
1534.0,-0.0016
1533.0,-0.0016
1532.0,-0.0018
1531.0,-0.0019
1530.0,-0.002
1529.0,-0.0019
1528.0,-0.0019
1527.0,-0.002
1526.0,-0.002
1525.0,-0.002
1524.0,-0.002
1523.0,-0.0021
1522.0,-0.0021
1521.0,-0.0022
1520.0,-0.0023
1519.0,-0.0024
1518.0,-0.0024
1517.0,-0.0025
1516.0,-0.0026
1515.0,-0.0027
1514.0,-0.0027
1513.0,-0.0027
1512.0,-0.0026
1511.0,-0.0026
1510.0,-0.0026
1509.0,-0.0025
1508.0,-0.002
1507.0,-0.0005
1506.0,0.0009
1505.0,0.0013
1504.0,0.0012
1503.0,0.0009
1502.0,0.0006
1501.0,0.0001
1500.0,-0.0003
1499.0,-0.0008
1498.0,-0.0013
1497.0,-0.0017
1496.0,-0.0021
1495.0,-0.0023
1494.0,-0.0024
1493.0,-0.0024
1492.0,-0.0025
1491.0,-0.0027
1490.0,-0.003
1489.0,-0.003
1488.0,-0.0029
1487.0,-0.0028
1486.0,-0.0028
1485.0,-0.0028
1484.0,-0.0028
1483.0,-0.0028
1482.0,-0.0028
1481.0,-0.0027
1480.0,-0.0026
1479.0,-0.0025
1478.0,-0.0025
1477.0,-0.0025
1476.0,-0.0025
1475.0,-0.0025
1474.0,-0.0026
1473.0,-0.0026
1472.0,-0.0025
1471.0,-0.0025
1470.0,-0.0025
1469.0,-0.0025
1468.0,-0.0023
1467.0,-0.0021
1466.0,-0.0019
1465.0,-0.0015
1464.0,-0.0013
1463.0,-0.0012
1462.0,-0.001
1461.0,-0.0009
1460.0,-0.0006
1459.0,-0.0004
1458.0,0.0001
1457.0,0.0007
1456.0,0.001
1455.0,0.0011
1454.0,0.0012
1453.0,0.0014
1452.0,0.0016
1451.0,0.0017
1450.0,0.0017
1449.0,0.0018
1448.0,0.0018
1447.0,0.0018
1446.0,0.0018
1445.0,0.0019
1444.0,0.0019
1443.0,0.002
1442.0,0.002
1441.0,0.0021
1440.0,0.0021
1439.0,0.0021
1438.0,0.002
1437.0,0.0019
1436.0,0.0015
1435.0,0.0011
1434.0,0.0007
1433.0,0.0004
1432.0,0.0001
1431.0,-0.0003
1430.0,-0.0006
1429.0,-0.0009
1428.0,-0.0012
1427.0,-0.0015
1426.0,-0.0018
1425.0,-0.0022
1424.0,-0.0024
1423.0,-0.0025
1422.0,-0.0025
1421.0,-0.0025
1420.0,-0.0025
1419.0,-0.0024
1418.0,-0.0022
1417.0,-0.0015
1416.0,-0.0005
1415.0,0.0008
1414.0,0.0026
1413.0,0.0047
1412.0,0.0069
1411.0,0.009
1410.0,0.0106
1409.0,0.0116
1408.0,0.0119
1407.0,0.0115
1406.0,0.0106
1405.0,0.0095
1404.0,0.0082
1403.0,0.0072
1402.0,0.0062
1401.0,0.0054
1400.0,0.0046
1399.0,0.0037
1398.0,0.003
1397.0,0.0024
1396.0,0.0018
1395.0,0.0013
1394.0,0.0009
1393.0,0.0006
1392.0,0.0003
1391.0,-0.0001
1390.0,-0.0004
1389.0,-0.0008
1388.0,-0.0012
1387.0,-0.0016
1386.0,-0.0018
1385.0,-0.0019
1384.0,-0.002
1383.0,-0.002
1382.0,-0.002
1381.0,-0.002
1380.0,-0.002
1379.0,-0.0019
1378.0,-0.0017
1377.0,-0.0016
1376.0,-0.0013
1375.0,-0.0009
1374.0,-0.0005
1373.0,-0.0001
1372.0,0.0002
1371.0,0.0005
1370.0,0.0006
1369.0,0.0007
1368.0,0.0006
1367.0,0.0004
1366.0,0.0
1365.0,-0.0005
1364.0,-0.0012
1363.0,-0.002
1362.0,-0.0026
1361.0,-0.0031
1360.0,-0.0034
1359.0,-0.0036
1358.0,-0.0038
1357.0,-0.0039
1356.0,-0.004
1355.0,-0.0042
1354.0,-0.0043
1353.0,-0.0043
1352.0,-0.0044
1351.0,-0.0044
1350.0,-0.0043
1349.0,-0.0041
1348.0,-0.0038
1347.0,-0.0034
1346.0,-0.003
1345.0,-0.0025
1344.0,-0.002
1343.0,-0.0016
1342.0,-0.0013
1341.0,-0.0011
1340.0,-0.001
1339.0,-0.001
1338.0,-0.0012
1337.0,-0.0015
1336.0,-0.002
1335.0,-0.0026
1334.0,-0.0033
1333.0,-0.0039
1332.0,-0.0045
1331.0,-0.005
1330.0,-0.0054
1329.0,-0.0056
1328.0,-0.0058
1327.0,-0.0059
1326.0,-0.0059
1325.0,-0.0058
1324.0,-0.0057
1323.0,-0.0055
1322.0,-0.0053
1321.0,-0.0051
1320.0,-0.0048
1319.0,-0.0045
1318.0,-0.0042
1317.0,-0.0039
1316.0,-0.0036
1315.0,-0.0032
1314.0,-0.0029
1313.0,-0.0024
1312.0,-0.0019
1311.0,-0.0014
1310.0,-0.0009
1309.0,-0.0003
1308.0,0.0002
1307.0,0.0008
1306.0,0.0014
1305.0,0.002
1304.0,0.0027
1303.0,0.0034
1302.0,0.0043
1301.0,0.0053
1300.0,0.0065
1299.0,0.0078
1298.0,0.0093
1297.0,0.0108
1296.0,0.0123
1295.0,0.0139
1294.0,0.0154
1293.0,0.0169
1292.0,0.0183
1291.0,0.0196
1290.0,0.0209
1289.0,0.0221
1288.0,0.0233
1287.0,0.0244
1286.0,0.0254
1285.0,0.0263
1284.0,0.0271
1283.0,0.0278
1282.0,0.0284
1281.0,0.029
1280.0,0.0295
1279.0,0.03
1278.0,0.0304
1277.0,0.0309
1276.0,0.0314
1275.0,0.0321
1274.0,0.033
1273.0,0.0341
1272.0,0.0355
1271.0,0.0371
1270.0,0.0389
1269.0,0.0407
1268.0,0.0427
1267.0,0.0445
1266.0,0.0463
1265.0,0.048
1264.0,0.0495
1263.0,0.0508
1262.0,0.0519
1261.0,0.0529
1260.0,0.0536
1259.0,0.0541
1258.0,0.0544
1257.0,0.0547
1256.0,0.055
1255.0,0.0554
1254.0,0.0558
1253.0,0.0563
1252.0,0.057
1251.0,0.0578
1250.0,0.0587
1249.0,0.0597
1248.0,0.0607
1247.0,0.0616
1246.0,0.0626
1245.0,0.0635
1244.0,0.0644
1243.0,0.0651
1242.0,0.0656
1241.0,0.0659
1240.0,0.0661
1239.0,0.0659
1238.0,0.0655
1237.0,0.0648
1236.0,0.0638
1235.0,0.0626
1234.0,0.0612
1233.0,0.0597
1232.0,0.0581
1231.0,0.0564
1230.0,0.0547
1229.0,0.0531
1228.0,0.0516
1227.0,0.0501
1226.0,0.0486
1225.0,0.0472
1224.0,0.0457
1223.0,0.0444
1222.0,0.0431
1221.0,0.0418
1220.0,0.0406
1219.0,0.0395
1218.0,0.0384
1217.0,0.0374
1216.0,0.0365
1215.0,0.0356
1214.0,0.0346
1213.0,0.0337
1212.0,0.033
1211.0,0.0322
1210.0,0.0316
1209.0,0.031
1208.0,0.0304
1207.0,0.0298
1206.0,0.0291
1205.0,0.0285
1204.0,0.0279
1203.0,0.0273
1202.0,0.0267
1201.0,0.0263
1200.0,0.0258
1199.0,0.0253
1198.0,0.0247
1197.0,0.0242
1196.0,0.0237
1195.0,0.0232
1194.0,0.0226
1193.0,0.0221
1192.0,0.0216
1191.0,0.0212
1190.0,0.0207
1189.0,0.0202
1188.0,0.0197
1187.0,0.0192
1186.0,0.0189
1185.0,0.0185
1184.0,0.0182
1183.0,0.018
1182.0,0.0179
1181.0,0.0179
1180.0,0.018
1179.0,0.0181
1178.0,0.0182
1177.0,0.0182
1176.0,0.0182
1175.0,0.0182
1174.0,0.0181
1173.0,0.018
1172.0,0.0177
1171.0,0.0172
1170.0,0.0166
1169.0,0.0159
1168.0,0.0152
1167.0,0.0145
1166.0,0.0138
1165.0,0.0132
1164.0,0.0126
1163.0,0.0121
1162.0,0.0117
1161.0,0.0113
1160.0,0.0109
1159.0,0.0105
1158.0,0.0101
1157.0,0.0098
1156.0,0.0095
1155.0,0.0094
1154.0,0.0092
1153.0,0.0092
1152.0,0.0092
1151.0,0.0094
1150.0,0.0096
1149.0,0.0101
1148.0,0.0106
1147.0,0.0111
1146.0,0.0117
1145.0,0.0124
1144.0,0.0131
1143.0,0.014
1142.0,0.0148
1141.0,0.0157
1140.0,0.0165
1139.0,0.0173
1138.0,0.0181
1137.0,0.0188
1136.0,0.0194
1135.0,0.0201
1134.0,0.0207
1133.0,0.0214
1132.0,0.0221
1131.0,0.0229
1130.0,0.0238
1129.0,0.0248
1128.0,0.0259
1127.0,0.0271
1126.0,0.0285
1125.0,0.0299
1124.0,0.0314
1123.0,0.0329
1122.0,0.0343
1121.0,0.0357
1120.0,0.0369
1119.0,0.0379
1118.0,0.0385
1117.0,0.0388
1116.0,0.0389
1115.0,0.0387
1114.0,0.0383
1113.0,0.0378
1112.0,0.0374
1111.0,0.0374
1110.0,0.0377
1109.0,0.0385
1108.0,0.0398
1107.0,0.0414
1106.0,0.0434
1105.0,0.0457
1104.0,0.0482
1103.0,0.0507
1102.0,0.0533
1101.0,0.0557
1100.0,0.058
1099.0,0.0601
1098.0,0.0619
1097.0,0.0635
1096.0,0.0648
1095.0,0.0658
1094.0,0.0664
1093.0,0.0668
1092.0,0.067
1091.0,0.0671
1090.0,0.0671
1089.0,0.067
1088.0,0.0667
1087.0,0.0663
1086.0,0.0657
1085.0,0.0651
1084.0,0.0643
1083.0,0.0634
1082.0,0.0623
1081.0,0.0611
1080.0,0.0598
1079.0,0.0585
1078.0,0.0571
1077.0,0.0558
1076.0,0.0545
1075.0,0.0531
1074.0,0.0518
1073.0,0.0505
1072.0,0.0493
1071.0,0.0481
1070.0,0.0469
1069.0,0.0458
1068.0,0.0448
1067.0,0.0439
1066.0,0.043
1065.0,0.0422
1064.0,0.0415
1063.0,0.0408
1062.0,0.0401
1061.0,0.0395
1060.0,0.039
1059.0,0.0384
1058.0,0.038
1057.0,0.0377
1056.0,0.0375
1055.0,0.0373
1054.0,0.0373
1053.0,0.0374
1052.0,0.0376
1051.0,0.0379
1050.0,0.0382
1049.0,0.0387
1048.0,0.0392
1047.0,0.0396
1046.0,0.04
1045.0,0.0403
1044.0,0.0407
1043.0,0.041
1042.0,0.0412
1041.0,0.0414
1040.0,0.0414
1039.0,0.0414
1038.0,0.0413
1037.0,0.0412
1036.0,0.0411
1035.0,0.0409
1034.0,0.0407
1033.0,0.0404
1032.0,0.0401
1031.0,0.0398
1030.0,0.0396
1029.0,0.0393
1028.0,0.039
1027.0,0.0387
1026.0,0.0385
1025.0,0.0385
1024.0,0.0389
1023.0,0.04
1022.0,0.042
1021.0,0.0449
1020.0,0.0486
1019.0,0.0526
1018.0,0.0561
1017.0,0.0586
1016.0,0.0598
1015.0,0.0595
1014.0,0.0581
1013.0,0.0561
1012.0,0.0539
1011.0,0.0518
1010.0,0.0499
1009.0,0.0483
1008.0,0.047
1007.0,0.0458
1006.0,0.0448
1005.0,0.044
1004.0,0.0432
1003.0,0.0426
1002.0,0.042
1001.0,0.0415
1000.0,0.041
999.0,0.0406
998.0,0.0402
997.0,0.0399
996.0,0.0396
995.0,0.0393
994.0,0.039
993.0,0.0388
992.0,0.0387
991.0,0.0385
990.0,0.0382
989.0,0.0381
988.0,0.038
987.0,0.038
986.0,0.0379
985.0,0.0378
984.0,0.0378
983.0,0.0377
982.0,0.0376
981.0,0.0375
980.0,0.0374
979.0,0.0373
978.0,0.0372
977.0,0.0372
976.0,0.0372
975.0,0.0372
974.0,0.0373
973.0,0.0373
972.0,0.0374
971.0,0.0374
970.0,0.0373
969.0,0.0372
968.0,0.0371
967.0,0.0369
966.0,0.0366
965.0,0.0364
964.0,0.0363
963.0,0.0361
962.0,0.036
961.0,0.0359
960.0,0.0357
959.0,0.0354
958.0,0.0351
957.0,0.0348
956.0,0.0346
955.0,0.0344
954.0,0.0342
953.0,0.0341
952.0,0.0339
951.0,0.0338
950.0,0.0337
949.0,0.0336
948.0,0.0336
947.0,0.0335
946.0,0.0334
945.0,0.0332
944.0,0.0331
943.0,0.0329
942.0,0.0328
941.0,0.0327
940.0,0.0326
939.0,0.0324
938.0,0.0323
937.0,0.0322
936.0,0.0321
935.0,0.0319
934.0,0.0317
933.0,0.0315
932.0,0.0314
931.0,0.0313
930.0,0.0313
929.0,0.0312
928.0,0.0311
927.0,0.031
926.0,0.0308
925.0,0.0306
924.0,0.0305
923.0,0.0303
922.0,0.0301
921.0,0.0299
920.0,0.0297
919.0,0.0295
918.0,0.0295
917.0,0.0295
916.0,0.0295
915.0,0.0295
914.0,0.0294
913.0,0.0292
912.0,0.0291
911.0,0.0291
910.0,0.0292
909.0,0.0295
908.0,0.0298
907.0,0.0301
906.0,0.0305
905.0,0.031
904.0,0.0315
903.0,0.0319
902.0,0.0323
901.0,0.0326
900.0,0.0328
899.0,0.033
898.0,0.0332
897.0,0.0334
896.0,0.0336
895.0,0.0336
894.0,0.0336
893.0,0.0335
892.0,0.0335
891.0,0.0335
890.0,0.0335
889.0,0.0336
888.0,0.0338
887.0,0.0338
886.0,0.0338
885.0,0.0339
884.0,0.0343
883.0,0.0348
882.0,0.0355
881.0,0.0363
880.0,0.0373
879.0,0.0383
878.0,0.0395
877.0,0.0408
876.0,0.0421
875.0,0.0433
874.0,0.0443
873.0,0.0451
872.0,0.0457
871.0,0.0458
870.0,0.0455
869.0,0.0449
868.0,0.044
867.0,0.043
866.0,0.042
865.0,0.041
864.0,0.04
863.0,0.0392
862.0,0.0384
861.0,0.0379
860.0,0.0375
859.0,0.0372
858.0,0.0369
857.0,0.0366
856.0,0.0364
855.0,0.0363
854.0,0.0361
853.0,0.036
852.0,0.0359
851.0,0.0359
850.0,0.0358
849.0,0.0357
848.0,0.0357
847.0,0.0357
846.0,0.0357
845.0,0.0358
844.0,0.0357
843.0,0.0355
842.0,0.0352
841.0,0.035
840.0,0.0349
839.0,0.035
838.0,0.0349
837.0,0.0348
836.0,0.0346
835.0,0.0344
834.0,0.0341
833.0,0.0339
832.0,0.0336
831.0,0.0333
830.0,0.033
829.0,0.0328
828.0,0.0327
827.0,0.0327
826.0,0.0326
825.0,0.0324
824.0,0.0321
823.0,0.0318
822.0,0.0314
821.0,0.031
820.0,0.0309
819.0,0.0308
818.0,0.0307
817.0,0.0306
816.0,0.0304
815.0,0.0302
814.0,0.03
813.0,0.0298
812.0,0.0298
811.0,0.0298
810.0,0.0296
809.0,0.0295
808.0,0.0295
807.0,0.0294
806.0,0.0293
805.0,0.0292
804.0,0.029
803.0,0.0287
802.0,0.0283
801.0,0.028
800.0,0.0278
799.0,0.0278
798.0,0.0281
797.0,0.0286
796.0,0.0293
795.0,0.0302
794.0,0.0309
793.0,0.0314
792.0,0.0316
791.0,0.0314
790.0,0.0309
789.0,0.0302
788.0,0.0296
787.0,0.0289
786.0,0.0283
785.0,0.0277
784.0,0.0272
783.0,0.0266
782.0,0.0259
781.0,0.0253
780.0,0.0247
779.0,0.0242
778.0,0.0239
777.0,0.0236
776.0,0.0234
775.0,0.0231
774.0,0.0226
773.0,0.0221
772.0,0.0216
771.0,0.0211
770.0,0.0205
769.0,0.02
768.0,0.0195
767.0,0.0191
766.0,0.0185
765.0,0.0179
764.0,0.0175
763.0,0.0172
762.0,0.0168
761.0,0.0163
760.0,0.0158
759.0,0.0153
758.0,0.0148
757.0,0.0143
756.0,0.0137
755.0,0.0133
754.0,0.0128
753.0,0.0123
752.0,0.0116
751.0,0.0109
750.0,0.0102
749.0,0.0097
748.0,0.0093
747.0,0.0087
746.0,0.008
745.0,0.0073
744.0,0.0067
743.0,0.0067
742.0,0.0076
741.0,0.0097
740.0,0.0128
739.0,0.0169
738.0,0.0215
737.0,0.0265
736.0,0.0318
735.0,0.0376
734.0,0.0436
733.0,0.0497
732.0,0.0561
731.0,0.0627
730.0,0.0697
729.0,0.077
728.0,0.0843
727.0,0.0907
726.0,0.0956
725.0,0.0985
724.0,0.0991
723.0,0.0975
722.0,0.0937
721.0,0.0883
720.0,0.0822
719.0,0.0764
718.0,0.0712
717.0,0.0668
716.0,0.0631
715.0,0.0599
714.0,0.0575
713.0,0.0557
712.0,0.0544
711.0,0.0533
710.0,0.0522
709.0,0.0512
708.0,0.0504
707.0,0.0496
706.0,0.0489
705.0,0.0482
704.0,0.0476
703.0,0.047
702.0,0.0463
701.0,0.0456
700.0,0.0448
699.0,0.044
698.0,0.043
697.0,0.0421
696.0,0.0415
695.0,0.0414
694.0,0.0417
693.0,0.0421
692.0,0.0423
691.0,0.0422
690.0,0.0418
689.0,0.0411
688.0,0.0405
687.0,0.0403
686.0,0.0406
685.0,0.0414
684.0,0.0424
683.0,0.0433
682.0,0.0438
681.0,0.044
680.0,0.044
679.0,0.044
678.0,0.044
677.0,0.0443
676.0,0.0449
675.0,0.0457
674.0,0.0464
673.0,0.0472
672.0,0.0476
671.0,0.0474
670.0,0.0466
669.0,0.0461
668.0,0.0471
667.0,0.0489
666.0,0.0498
665.0,0.0503
664.0,0.051
663.0,0.0519
662.0,0.0527
661.0,0.0532
660.0,0.0538
659.0,0.0545
658.0,0.0554
657.0,0.0565
656.0,0.0574
655.0,0.0578
654.0,0.0577
653.0,0.0577
652.0,0.0583
651.0,0.0594
650.0,0.0609
649.0,0.0625
648.0,0.064
647.0,0.065
646.0,0.0656
645.0,0.0665
644.0,0.0679
643.0,0.0694
642.0,0.0706
641.0,0.0718
640.0,0.0733
639.0,0.0748
638.0,0.0761
637.0,0.0776
636.0,0.0798
635.0,0.0823
634.0,0.0844
633.0,0.0857
632.0,0.0859
631.0,0.0849
630.0,0.0835
629.0,0.0832
628.0,0.0842
627.0,0.0857
626.0,0.0867
625.0,0.087
624.0,0.0866
623.0,0.0859
622.0,0.0854
621.0,0.0858
620.0,0.0869
619.0,0.0879
618.0,0.0884
617.0,0.0888
616.0,0.0892
615.0,0.0888
614.0,0.0876
613.0,0.0867
612.0,0.0866
611.0,0.0866
610.0,0.086
609.0,0.0856
608.0,0.0862
607.0,0.0874
606.0,0.0881
605.0,0.0879
604.0,0.0866
603.0,0.0842
602.0,0.082
601.0,0.0818
600.0,0.0831
