cm-1,A
4000.0,-0.0015
3999.0,-0.0014
3998.0,-0.0014
3997.0,-0.0015
3996.0,-0.0016
3995.0,-0.0016
3994.0,-0.0017
3993.0,-0.0017
3992.0,-0.0017
3991.0,-0.0017
3990.0,-0.0017
3989.0,-0.0017
3988.0,-0.0016
3987.0,-0.0016
3986.0,-0.0016
3985.0,-0.0016
3984.0,-0.0016
3983.0,-0.0017
3982.0,-0.0017
3981.0,-0.0017
3980.0,-0.0017
3979.0,-0.0017
3978.0,-0.0016
3977.0,-0.0016
3976.0,-0.0016
3975.0,-0.0017
3974.0,-0.0017
3973.0,-0.0017
3972.0,-0.0017
3971.0,-0.0016
3970.0,-0.0015
3969.0,-0.0015
3968.0,-0.0015
3967.0,-0.0015
3966.0,-0.0016
3965.0,-0.0016
3964.0,-0.0017
3963.0,-0.0017
3962.0,-0.0017
3961.0,-0.0017
3960.0,-0.0016
3959.0,-0.0017
3958.0,-0.0017
3957.0,-0.0017
3956.0,-0.0017
3955.0,-0.0017
3954.0,-0.0017
3953.0,-0.0016
3952.0,-0.0016
3951.0,-0.0016
3950.0,-0.0016
3949.0,-0.0016
3948.0,-0.0016
3947.0,-0.0016
3946.0,-0.0016
3945.0,-0.0016
3944.0,-0.0016
3943.0,-0.0016
3942.0,-0.0015
3941.0,-0.0015
3940.0,-0.0015
3939.0,-0.0016
3938.0,-0.0016
3937.0,-0.0017
3936.0,-0.0017
3935.0,-0.0016
3934.0,-0.0016
3933.0,-0.0016
3932.0,-0.0016
3931.0,-0.0016
3930.0,-0.0016
3929.0,-0.0016
3928.0,-0.0015
3927.0,-0.0016
3926.0,-0.0016
3925.0,-0.0017
3924.0,-0.0018
3923.0,-0.0018
3922.0,-0.0017
3921.0,-0.0016
3920.0,-0.0015
3919.0,-0.0016
3918.0,-0.0016
3917.0,-0.0017
3916.0,-0.0017
3915.0,-0.0016
3914.0,-0.0016
3913.0,-0.0015
3912.0,-0.0015
3911.0,-0.0015
3910.0,-0.0015
3909.0,-0.0016
3908.0,-0.0016
3907.0,-0.0017
3906.0,-0.0017
3905.0,-0.0018
3904.0,-0.0018
3903.0,-0.0018
3902.0,-0.0018
3901.0,-0.0018
3900.0,-0.0017
3899.0,-0.0017
3898.0,-0.0017
3897.0,-0.0017
3896.0,-0.0016
3895.0,-0.0016
3894.0,-0.0016
3893.0,-0.0016
3892.0,-0.0017
3891.0,-0.0017
3890.0,-0.0018
3889.0,-0.0018
3888.0,-0.0017
3887.0,-0.0017
3886.0,-0.0017
3885.0,-0.0016
3884.0,-0.0016
3883.0,-0.0016
3882.0,-0.0016
3881.0,-0.0016
3880.0,-0.0016
3879.0,-0.0016
3878.0,-0.0016
3877.0,-0.0016
3876.0,-0.0016
3875.0,-0.0016
3874.0,-0.0018
3873.0,-0.0019
3872.0,-0.0021
3871.0,-0.0021
3870.0,-0.002
3869.0,-0.0019
3868.0,-0.0018
3867.0,-0.0018
3866.0,-0.0018
3865.0,-0.0017
3864.0,-0.0015
3863.0,-0.0014
3862.0,-0.0013
3861.0,-0.0014
3860.0,-0.0015
3859.0,-0.0017
3858.0,-0.0018
3857.0,-0.002
3856.0,-0.0021
3855.0,-0.0022
3854.0,-0.0022
3853.0,-0.0022
3852.0,-0.0021
3851.0,-0.0021
3850.0,-0.002
3849.0,-0.0019
3848.0,-0.0017
3847.0,-0.0017
3846.0,-0.0016
3845.0,-0.0016
3844.0,-0.0016
3843.0,-0.0017
3842.0,-0.0019
3841.0,-0.0019
3840.0,-0.002
3839.0,-0.0021
3838.0,-0.0022
3837.0,-0.0021
3836.0,-0.002
3835.0,-0.0018
3834.0,-0.0016
3833.0,-0.0015
3832.0,-0.0014
3831.0,-0.0015
3830.0,-0.0015
3829.0,-0.0016
3828.0,-0.0016
3827.0,-0.0017
3826.0,-0.0017
3825.0,-0.0017
3824.0,-0.0018
3823.0,-0.0018
3822.0,-0.0016
3821.0,-0.0015
3820.0,-0.0015
3819.0,-0.0015
3818.0,-0.0015
3817.0,-0.0015
3816.0,-0.0015
3815.0,-0.0015
3814.0,-0.0015
3813.0,-0.0015
3812.0,-0.0016
3811.0,-0.0016
3810.0,-0.0016
3809.0,-0.0017
3808.0,-0.0018
3807.0,-0.0018
3806.0,-0.0018
3805.0,-0.0018
3804.0,-0.0018
3803.0,-0.0018
3802.0,-0.0019
3801.0,-0.002
3800.0,-0.0019
3799.0,-0.0018
3798.0,-0.0016
3797.0,-0.0016
3796.0,-0.0015
3795.0,-0.0015
3794.0,-0.0016
3793.0,-0.0016
3792.0,-0.0016
3791.0,-0.0016
3790.0,-0.0016
3789.0,-0.0016
3788.0,-0.0015
3787.0,-0.0015
3786.0,-0.0014
3785.0,-0.0014
3784.0,-0.0015
3783.0,-0.0015
3782.0,-0.0015
3781.0,-0.0016
3780.0,-0.0016
3779.0,-0.0016
3778.0,-0.0016
3777.0,-0.0016
3776.0,-0.0016
3775.0,-0.0016
3774.0,-0.0017
3773.0,-0.0017
3772.0,-0.0017
3771.0,-0.0016
3770.0,-0.0016
3769.0,-0.0015
3768.0,-0.0015
3767.0,-0.0016
3766.0,-0.0016
3765.0,-0.0016
3764.0,-0.0015
3763.0,-0.0015
3762.0,-0.0016
3761.0,-0.0016
3760.0,-0.0016
3759.0,-0.0016
3758.0,-0.0015
3757.0,-0.0014
3756.0,-0.0014
3755.0,-0.0014
3754.0,-0.0015
3753.0,-0.0016
3752.0,-0.0018
3751.0,-0.0019
3750.0,-0.002
3749.0,-0.0021
3748.0,-0.0021
3747.0,-0.0022
3746.0,-0.0023
3745.0,-0.0022
3744.0,-0.0019
3743.0,-0.0017
3742.0,-0.0015
3741.0,-0.0013
3740.0,-0.0013
3739.0,-0.0013
3738.0,-0.0012
3737.0,-0.0011
3736.0,-0.001
3735.0,-0.0011
3734.0,-0.0012
3733.0,-0.0012
3732.0,-0.0011
3731.0,-0.001
3730.0,-0.001
3729.0,-0.0009
3728.0,-0.0009
3727.0,-0.0009
3726.0,-0.001
3725.0,-0.001
3724.0,-0.0011
3723.0,-0.0011
3722.0,-0.0012
3721.0,-0.0013
3720.0,-0.0014
3719.0,-0.0015
3718.0,-0.0014
3717.0,-0.0014
3716.0,-0.0013
3715.0,-0.0013
3714.0,-0.0014
3713.0,-0.0014
3712.0,-0.0015
3711.0,-0.0015
3710.0,-0.0015
3709.0,-0.0014
3708.0,-0.0014
3707.0,-0.0013
3706.0,-0.0012
3705.0,-0.0011
3704.0,-0.001
3703.0,-0.001
3702.0,-0.0011
3701.0,-0.0012
3700.0,-0.0012
3699.0,-0.0012
3698.0,-0.0012
3697.0,-0.0012
3696.0,-0.0013
3695.0,-0.0013
3694.0,-0.0014
3693.0,-0.0014
3692.0,-0.0014
3691.0,-0.0014
3690.0,-0.0015
3689.0,-0.0016
3688.0,-0.0016
3687.0,-0.0016
3686.0,-0.0015
3685.0,-0.0015
3684.0,-0.0015
3683.0,-0.0014
3682.0,-0.0014
3681.0,-0.0014
3680.0,-0.0014
3679.0,-0.0015
3678.0,-0.0016
3677.0,-0.0018
3676.0,-0.0018
3675.0,-0.0018
3674.0,-0.0017
3673.0,-0.0016
3672.0,-0.0016
3671.0,-0.0016
3670.0,-0.0016
3669.0,-0.0016
3668.0,-0.0016
3667.0,-0.0016
3666.0,-0.0015
3665.0,-0.0015
3664.0,-0.0015
3663.0,-0.0015
3662.0,-0.0015
3661.0,-0.0015
3660.0,-0.0015
3659.0,-0.0015
3658.0,-0.0015
3657.0,-0.0015
3656.0,-0.0016
3655.0,-0.0016
3654.0,-0.0015
3653.0,-0.0015
3652.0,-0.0015
3651.0,-0.0013
3650.0,-0.0012
3649.0,-0.0012
3648.0,-0.0013
3647.0,-0.0013
3646.0,-0.0014
3645.0,-0.0014
3644.0,-0.0015
3643.0,-0.0015
3642.0,-0.0016
3641.0,-0.0016
3640.0,-0.0015
3639.0,-0.0014
3638.0,-0.0014
3637.0,-0.0013
3636.0,-0.0013
3635.0,-0.0012
3634.0,-0.0011
3633.0,-0.001
3632.0,-0.001
3631.0,-0.001
3630.0,-0.0011
3629.0,-0.0012
3628.0,-0.0012
3627.0,-0.0013
3626.0,-0.0012
3625.0,-0.0012
3624.0,-0.0012
3623.0,-0.0012
3622.0,-0.0013
3621.0,-0.0014
3620.0,-0.0015
3619.0,-0.0016
3618.0,-0.0017
3617.0,-0.0017
3616.0,-0.0016
3615.0,-0.0015
3614.0,-0.0014
3613.0,-0.0014
3612.0,-0.0014
3611.0,-0.0014
3610.0,-0.0014
3609.0,-0.0013
3608.0,-0.0013
3607.0,-0.0013
3606.0,-0.0013
3605.0,-0.0013
3604.0,-0.0013
3603.0,-0.0012
3602.0,-0.0012
3601.0,-0.0012
3600.0,-0.0013
3599.0,-0.0013
3598.0,-0.0014
3597.0,-0.0014
3596.0,-0.0014
3595.0,-0.0014
3594.0,-0.0013
3593.0,-0.0012
3592.0,-0.0012
3591.0,-0.0012
3590.0,-0.0013
3589.0,-0.0015
3588.0,-0.0017
3587.0,-0.0017
3586.0,-0.0016
3585.0,-0.0014
3584.0,-0.0013
3583.0,-0.0012
3582.0,-0.0012
3581.0,-0.0013
3580.0,-0.0013
3579.0,-0.0014
3578.0,-0.0014
3577.0,-0.0014
3576.0,-0.0015
3575.0,-0.0015
3574.0,-0.0015
3573.0,-0.0015
3572.0,-0.0015
3571.0,-0.0015
3570.0,-0.0016
3569.0,-0.0018
3568.0,-0.002
3567.0,-0.0021
3566.0,-0.0021
3565.0,-0.0019
3564.0,-0.0018
3563.0,-0.0017
3562.0,-0.0017
3561.0,-0.0016
3560.0,-0.0015
3559.0,-0.0015
3558.0,-0.0014
3557.0,-0.0014
3556.0,-0.0015
3555.0,-0.0015
3554.0,-0.0016
3553.0,-0.0016
3552.0,-0.0016
3551.0,-0.0016
3550.0,-0.0015
3549.0,-0.0015
3548.0,-0.0015
3547.0,-0.0014
3546.0,-0.0014
3545.0,-0.0014
3544.0,-0.0015
3543.0,-0.0016
3542.0,-0.0017
3541.0,-0.0017
3540.0,-0.0016
3539.0,-0.0015
3538.0,-0.0014
3537.0,-0.0014
3536.0,-0.0015
3535.0,-0.0015
3534.0,-0.0015
3533.0,-0.0014
3532.0,-0.0014
3531.0,-0.0013
3530.0,-0.0013
3529.0,-0.0013
3528.0,-0.0013
3527.0,-0.0015
3526.0,-0.0016
3525.0,-0.0018
3524.0,-0.0019
3523.0,-0.0018
3522.0,-0.0018
3521.0,-0.0017
3520.0,-0.0016
3519.0,-0.0016
3518.0,-0.0015
3517.0,-0.0015
3516.0,-0.0015
3515.0,-0.0015
3514.0,-0.0015
3513.0,-0.0015
3512.0,-0.0015
3511.0,-0.0014
3510.0,-0.0013
3509.0,-0.0013
3508.0,-0.0014
3507.0,-0.0015
3506.0,-0.0015
3505.0,-0.0016
3504.0,-0.0016
3503.0,-0.0016
3502.0,-0.0016
3501.0,-0.0016
3500.0,-0.0017
3499.0,-0.0017
3498.0,-0.0017
3497.0,-0.0016
3496.0,-0.0016
3495.0,-0.0015
3494.0,-0.0015
3493.0,-0.0015
3492.0,-0.0016
3491.0,-0.0016
3490.0,-0.0015
3489.0,-0.0015
3488.0,-0.0015
3487.0,-0.0015
3486.0,-0.0015
3485.0,-0.0016
3484.0,-0.0016
3483.0,-0.0017
3482.0,-0.0017
3481.0,-0.0017
3480.0,-0.0017
3479.0,-0.0017
3478.0,-0.0017
3477.0,-0.0017
3476.0,-0.0016
3475.0,-0.0016
3474.0,-0.0016
3473.0,-0.0016
3472.0,-0.0015
3471.0,-0.0014
3470.0,-0.0014
3469.0,-0.0014
3468.0,-0.0015
3467.0,-0.0015
3466.0,-0.0015
3465.0,-0.0015
3464.0,-0.0015
3463.0,-0.0015
3462.0,-0.0015
3461.0,-0.0016
3460.0,-0.0016
3459.0,-0.0015
3458.0,-0.0015
3457.0,-0.0014
3456.0,-0.0013
3455.0,-0.0013
3454.0,-0.0013
3453.0,-0.0014
3452.0,-0.0013
3451.0,-0.0013
3450.0,-0.0012
3449.0,-0.0013
3448.0,-0.0014
3447.0,-0.0016
3446.0,-0.0017
3445.0,-0.0017
3444.0,-0.0017
3443.0,-0.0016
3442.0,-0.0015
3441.0,-0.0014
3440.0,-0.0014
3439.0,-0.0013
3438.0,-0.0013
3437.0,-0.0014
3436.0,-0.0015
3435.0,-0.0015
3434.0,-0.0016
3433.0,-0.0016
3432.0,-0.0015
3431.0,-0.0014
3430.0,-0.0014
3429.0,-0.0014
3428.0,-0.0014
3427.0,-0.0014
3426.0,-0.0015
3425.0,-0.0015
3424.0,-0.0016
3423.0,-0.0017
3422.0,-0.0017
3421.0,-0.0017
3420.0,-0.0016
3419.0,-0.0016
3418.0,-0.0016
3417.0,-0.0017
3416.0,-0.0017
3415.0,-0.0017
3414.0,-0.0016
3413.0,-0.0015
3412.0,-0.0014
3411.0,-0.0014
3410.0,-0.0014
3409.0,-0.0015
3408.0,-0.0015
3407.0,-0.0015
3406.0,-0.0014
3405.0,-0.0014
3404.0,-0.0014
3403.0,-0.0015
3402.0,-0.0016
3401.0,-0.0016
3400.0,-0.0016
3399.0,-0.0016
3398.0,-0.0015
3397.0,-0.0015
3396.0,-0.0015
3395.0,-0.0016
3394.0,-0.0016
3393.0,-0.0017
3392.0,-0.0016
3391.0,-0.0015
3390.0,-0.0014
3389.0,-0.0013
3388.0,-0.0013
3387.0,-0.0013
3386.0,-0.0013
3385.0,-0.0013
3384.0,-0.0014
3383.0,-0.0015
3382.0,-0.0015
3381.0,-0.0016
3380.0,-0.0016
3379.0,-0.0016
3378.0,-0.0016
3377.0,-0.0017
3376.0,-0.0016
3375.0,-0.0016
3374.0,-0.0015
3373.0,-0.0014
3372.0,-0.0013
3371.0,-0.0013
3370.0,-0.0013
3369.0,-0.0014
3368.0,-0.0014
3367.0,-0.0015
3366.0,-0.0015
3365.0,-0.0015
3364.0,-0.0015
3363.0,-0.0015
3362.0,-0.0015
3361.0,-0.0014
3360.0,-0.0015
3359.0,-0.0015
3358.0,-0.0016
3357.0,-0.0016
3356.0,-0.0016
3355.0,-0.0015
3354.0,-0.0015
3353.0,-0.0014
3352.0,-0.0014
3351.0,-0.0014
3350.0,-0.0014
3349.0,-0.0015
3348.0,-0.0015
3347.0,-0.0015
3346.0,-0.0015
3345.0,-0.0015
3344.0,-0.0016
3343.0,-0.0016
3342.0,-0.0016
3341.0,-0.0017
3340.0,-0.0017
3339.0,-0.0017
3338.0,-0.0018
3337.0,-0.0017
3336.0,-0.0017
3335.0,-0.0016
3334.0,-0.0016
3333.0,-0.0017
3332.0,-0.0017
3331.0,-0.0017
3330.0,-0.0017
3329.0,-0.0016
3328.0,-0.0016
3327.0,-0.0015
3326.0,-0.0014
3325.0,-0.0013
3324.0,-0.0013
3323.0,-0.0014
3322.0,-0.0015
3321.0,-0.0016
3320.0,-0.0016
3319.0,-0.0016
3318.0,-0.0016
3317.0,-0.0015
3316.0,-0.0015
3315.0,-0.0014
3314.0,-0.0014
3313.0,-0.0014
3312.0,-0.0014
3311.0,-0.0014
3310.0,-0.0014
3309.0,-0.0015
3308.0,-0.0015
3307.0,-0.0016
3306.0,-0.0016
3305.0,-0.0016
3304.0,-0.0015
3303.0,-0.0014
3302.0,-0.0013
3301.0,-0.0013
3300.0,-0.0013
3299.0,-0.0013
3298.0,-0.0014
3297.0,-0.0014
3296.0,-0.0013
3295.0,-0.0013
3294.0,-0.0014
3293.0,-0.0015
3292.0,-0.0016
3291.0,-0.0016
3290.0,-0.0016
3289.0,-0.0016
3288.0,-0.0015
3287.0,-0.0014
3286.0,-0.0013
3285.0,-0.0012
3284.0,-0.0012
3283.0,-0.0013
3282.0,-0.0014
3281.0,-0.0014
3280.0,-0.0014
3279.0,-0.0014
3278.0,-0.0014
3277.0,-0.0014
3276.0,-0.0014
3275.0,-0.0014
3274.0,-0.0013
3273.0,-0.0013
3272.0,-0.0013
3271.0,-0.0014
3270.0,-0.0014
3269.0,-0.0014
3268.0,-0.0014
3267.0,-0.0014
3266.0,-0.0014
3265.0,-0.0014
3264.0,-0.0015
3263.0,-0.0016
3262.0,-0.0016
3261.0,-0.0015
3260.0,-0.0015
3259.0,-0.0014
3258.0,-0.0014
3257.0,-0.0014
3256.0,-0.0014
3255.0,-0.0014
3254.0,-0.0013
3253.0,-0.0013
3252.0,-0.0013
3251.0,-0.0013
3250.0,-0.0014
3249.0,-0.0014
3248.0,-0.0015
3247.0,-0.0015
3246.0,-0.0016
3245.0,-0.0015
3244.0,-0.0015
3243.0,-0.0014
3242.0,-0.0013
3241.0,-0.0013
3240.0,-0.0013
3239.0,-0.0014
3238.0,-0.0014
3237.0,-0.0014
3236.0,-0.0015
3235.0,-0.0015
3234.0,-0.0015
3233.0,-0.0014
3232.0,-0.0013
3231.0,-0.0013
3230.0,-0.0013
3229.0,-0.0013
3228.0,-0.0013
3227.0,-0.0014
3226.0,-0.0014
3225.0,-0.0014
3224.0,-0.0014
3223.0,-0.0014
3222.0,-0.0014
3221.0,-0.0013
3220.0,-0.0013
3219.0,-0.0014
3218.0,-0.0015
3217.0,-0.0016
3216.0,-0.0016
3215.0,-0.0016
3214.0,-0.0016
3213.0,-0.0015
3212.0,-0.0014
3211.0,-0.0013
3210.0,-0.0013
3209.0,-0.0013
3208.0,-0.0013
3207.0,-0.0013
3206.0,-0.0014
3205.0,-0.0015
3204.0,-0.0015
3203.0,-0.0016
3202.0,-0.0016
3201.0,-0.0016
3200.0,-0.0016
3199.0,-0.0015
3198.0,-0.0014
3197.0,-0.0014
3196.0,-0.0013
3195.0,-0.0013
3194.0,-0.0013
3193.0,-0.0013
3192.0,-0.0013
3191.0,-0.0012
3190.0,-0.0012
3189.0,-0.0012
3188.0,-0.0013
3187.0,-0.0013
3186.0,-0.0014
3185.0,-0.0014
3184.0,-0.0014
3183.0,-0.0014
3182.0,-0.0014
3181.0,-0.0014
3180.0,-0.0014
3179.0,-0.0014
3178.0,-0.0015
3177.0,-0.0015
3176.0,-0.0015
3175.0,-0.0014
3174.0,-0.0013
3173.0,-0.0013
3172.0,-0.0013
3171.0,-0.0013
3170.0,-0.0014
3169.0,-0.0014
3168.0,-0.0013
3167.0,-0.0013
3166.0,-0.0013
3165.0,-0.0013
3164.0,-0.0013
3163.0,-0.0013
3162.0,-0.0013
3161.0,-0.0013
3160.0,-0.0013
3159.0,-0.0013
3158.0,-0.0014
3157.0,-0.0014
3156.0,-0.0014
3155.0,-0.0014
3154.0,-0.0013
3153.0,-0.0014
3152.0,-0.0014
3151.0,-0.0014
3150.0,-0.0014
3149.0,-0.0014
3148.0,-0.0014
3147.0,-0.0014
3146.0,-0.0014
3145.0,-0.0014
3144.0,-0.0014
3143.0,-0.0015
3142.0,-0.0014
3141.0,-0.0013
3140.0,-0.0013
3139.0,-0.0012
3138.0,-0.0011
3137.0,-0.0012
3136.0,-0.0013
3135.0,-0.0014
3134.0,-0.0015
3133.0,-0.0015
3132.0,-0.0014
3131.0,-0.0013
3130.0,-0.0013
3129.0,-0.0013
3128.0,-0.0013
3127.0,-0.0014
3126.0,-0.0015
3125.0,-0.0015
3124.0,-0.0015
3123.0,-0.0014
3122.0,-0.0013
3121.0,-0.0014
3120.0,-0.0015
3119.0,-0.0016
3118.0,-0.0017
3117.0,-0.0017
3116.0,-0.0017
3115.0,-0.0016
3114.0,-0.0015
3113.0,-0.0014
3112.0,-0.0014
3111.0,-0.0013
3110.0,-0.0013
3109.0,-0.0014
3108.0,-0.0014
3107.0,-0.0014
3106.0,-0.0014
3105.0,-0.0014
3104.0,-0.0014
3103.0,-0.0014
3102.0,-0.0014
3101.0,-0.0015
3100.0,-0.0015
3099.0,-0.0015
3098.0,-0.0014
3097.0,-0.0014
3096.0,-0.0013
3095.0,-0.0013
3094.0,-0.0013
3093.0,-0.0013
3092.0,-0.0013
3091.0,-0.0013
3090.0,-0.0013
3089.0,-0.0013
3088.0,-0.0014
3087.0,-0.0013
3086.0,-0.0013
3085.0,-0.0013
3084.0,-0.0012
3083.0,-0.0012
3082.0,-0.0012
3081.0,-0.0012
3080.0,-0.0013
3079.0,-0.0013
3078.0,-0.0013
3077.0,-0.0013
3076.0,-0.0014
3075.0,-0.0014
3074.0,-0.0014
3073.0,-0.0014
3072.0,-0.0014
3071.0,-0.0013
3070.0,-0.0012
3069.0,-0.0012
3068.0,-0.0012
3067.0,-0.0012
3066.0,-0.0012
3065.0,-0.0013
3064.0,-0.0013
3063.0,-0.0013
3062.0,-0.0013
3061.0,-0.0013
3060.0,-0.0014
3059.0,-0.0014
3058.0,-0.0014
3057.0,-0.0014
3056.0,-0.0013
3055.0,-0.0013
3054.0,-0.0013
3053.0,-0.0013
3052.0,-0.0013
3051.0,-0.0013
3050.0,-0.0012
3049.0,-0.0012
3048.0,-0.0012
3047.0,-0.0013
3046.0,-0.0013
3045.0,-0.0013
3044.0,-0.0013
3043.0,-0.0013
3042.0,-0.0013
3041.0,-0.0013
3040.0,-0.0013
3039.0,-0.0013
3038.0,-0.0013
3037.0,-0.0013
3036.0,-0.0013
3035.0,-0.0013
3034.0,-0.0014
3033.0,-0.0014
3032.0,-0.0015
3031.0,-0.0014
3030.0,-0.0014
3029.0,-0.0014
3028.0,-0.0015
3027.0,-0.0015
3026.0,-0.0014
3025.0,-0.0014
3024.0,-0.0013
3023.0,-0.0012
3022.0,-0.0012
3021.0,-0.0012
3020.0,-0.0013
3019.0,-0.0013
3018.0,-0.0014
3017.0,-0.0014
3016.0,-0.0013
3015.0,-0.0013
3014.0,-0.0012
3013.0,-0.0012
3012.0,-0.0012
3011.0,-0.0012
3010.0,-0.0012
3009.0,-0.0012
3008.0,-0.0013
3007.0,-0.0013
3006.0,-0.0014
3005.0,-0.0014
3004.0,-0.0014
3003.0,-0.0013
3002.0,-0.0013
3001.0,-0.0013
3000.0,-0.0013
2999.0,-0.0014
2998.0,-0.0014
2997.0,-0.0014
2996.0,-0.0014
2995.0,-0.0013
2994.0,-0.0013
2993.0,-0.0013
2992.0,-0.0013
2991.0,-0.0013
2990.0,-0.0012
2989.0,-0.0013
2988.0,-0.0013
2987.0,-0.0013
2986.0,-0.0013
2985.0,-0.0013
2984.0,-0.0013
2983.0,-0.0014
2982.0,-0.0014
2981.0,-0.0014
2980.0,-0.0014
2979.0,-0.0014
2978.0,-0.0014
2977.0,-0.0014
2976.0,-0.0014
2975.0,-0.0015
2974.0,-0.0016
2973.0,-0.0016
2972.0,-0.0015
2971.0,-0.0014
2970.0,-0.0013
2969.0,-0.0012
2968.0,-0.0011
2967.0,-0.0011
2966.0,-0.0011
2965.0,-0.0011
2964.0,-0.0011
2963.0,-0.0011
2962.0,-0.0011
2961.0,-0.0011
2960.0,-0.0012
2959.0,-0.0012
2958.0,-0.0012
2957.0,-0.0012
2956.0,-0.0012
2955.0,-0.0013
2954.0,-0.0013
2953.0,-0.0013
2952.0,-0.0013
2951.0,-0.0013
2950.0,-0.0012
2949.0,-0.0012
2948.0,-0.0012
2947.0,-0.0012
2946.0,-0.0012
2945.0,-0.0013
2944.0,-0.0013
2943.0,-0.0013
2942.0,-0.0013
2941.0,-0.0013
2940.0,-0.0013
2939.0,-0.0014
2938.0,-0.0014
2937.0,-0.0013
2936.0,-0.0013
2935.0,-0.0013
2934.0,-0.0013
2933.0,-0.0012
2932.0,-0.0012
2931.0,-0.0012
2930.0,-0.0011
2929.0,-0.0011
2928.0,-0.0012
2927.0,-0.0012
2926.0,-0.0012
2925.0,-0.0012
2924.0,-0.0012
2923.0,-0.0012
2922.0,-0.0013
2921.0,-0.0013
2920.0,-0.0014
2919.0,-0.0014
2918.0,-0.0014
2917.0,-0.0013
2916.0,-0.0013
2915.0,-0.0012
2914.0,-0.0012
2913.0,-0.0013
2912.0,-0.0013
2911.0,-0.0013
2910.0,-0.0013
2909.0,-0.0013
2908.0,-0.0012
2907.0,-0.0011
2906.0,-0.0011
2905.0,-0.0011
2904.0,-0.0011
2903.0,-0.0012
2902.0,-0.0013
2901.0,-0.0013
2900.0,-0.0013
2899.0,-0.0013
2898.0,-0.0013
2897.0,-0.0013
2896.0,-0.0013
2895.0,-0.0014
2894.0,-0.0014
2893.0,-0.0014
2892.0,-0.0014
2891.0,-0.0013
2890.0,-0.0012
2889.0,-0.0012
2888.0,-0.0012
2887.0,-0.0012
2886.0,-0.0012
2885.0,-0.0012
2884.0,-0.0012
2883.0,-0.0012
2882.0,-0.0011
2881.0,-0.0011
2880.0,-0.0011
2879.0,-0.0011
2878.0,-0.0011
2877.0,-0.0012
2876.0,-0.0012
2875.0,-0.0012
2874.0,-0.0012
2873.0,-0.0012
2872.0,-0.0013
2871.0,-0.0013
2870.0,-0.0013
2869.0,-0.0013
2868.0,-0.0012
2867.0,-0.0011
2866.0,-0.0011
2865.0,-0.001
2864.0,-0.001
2863.0,-0.001
2862.0,-0.0009
2861.0,-0.0009
2860.0,-0.0009
2859.0,-0.0009
2858.0,-0.001
2857.0,-0.0011
2856.0,-0.0012
2855.0,-0.0012
2854.0,-0.0012
2853.0,-0.0012
2852.0,-0.0011
2851.0,-0.0012
2850.0,-0.0012
2849.0,-0.0012
2848.0,-0.0012
2847.0,-0.0012
2846.0,-0.0012
2845.0,-0.0012
2844.0,-0.0011
2843.0,-0.0011
2842.0,-0.0011
2841.0,-0.0012
2840.0,-0.0012
2839.0,-0.0012
2838.0,-0.0011
2837.0,-0.001
2836.0,-0.001
2835.0,-0.001
2834.0,-0.0011
2833.0,-0.0011
2832.0,-0.0011
2831.0,-0.0011
2830.0,-0.0011
2829.0,-0.0011
2828.0,-0.0011
2827.0,-0.0011
2826.0,-0.0011
2825.0,-0.0011
2824.0,-0.001
2823.0,-0.0011
2822.0,-0.0011
2821.0,-0.0012
2820.0,-0.0012
2819.0,-0.0012
2818.0,-0.0012
2817.0,-0.0012
2816.0,-0.0012
2815.0,-0.0012
2814.0,-0.0011
2813.0,-0.0011
2812.0,-0.0011
2811.0,-0.0011
2810.0,-0.0011
2809.0,-0.0012
2808.0,-0.0012
2807.0,-0.0012
2806.0,-0.0012
2805.0,-0.0013
2804.0,-0.0013
2803.0,-0.0013
2802.0,-0.0013
2801.0,-0.0012
2800.0,-0.0012
2799.0,-0.0011
2798.0,-0.001
2797.0,-0.001
2796.0,-0.0011
2795.0,-0.0012
2794.0,-0.0013
2793.0,-0.0013
2792.0,-0.0013
2791.0,-0.0013
2790.0,-0.0012
2789.0,-0.0012
2788.0,-0.0011
2787.0,-0.0011
2786.0,-0.0011
2785.0,-0.001
2784.0,-0.001
2783.0,-0.0011
2782.0,-0.0011
2781.0,-0.0012
2780.0,-0.0012
2779.0,-0.0012
2778.0,-0.0012
2777.0,-0.0012
2776.0,-0.0012
2775.0,-0.0012
2774.0,-0.0012
2773.0,-0.0012
2772.0,-0.0012
2771.0,-0.0012
2770.0,-0.0012
2769.0,-0.0013
2768.0,-0.0013
2767.0,-0.0012
2766.0,-0.0012
2765.0,-0.0011
2764.0,-0.0011
2763.0,-0.0011
2762.0,-0.0011
2761.0,-0.0011
2760.0,-0.001
2759.0,-0.0011
2758.0,-0.0011
2757.0,-0.0011
2756.0,-0.0011
2755.0,-0.0011
2754.0,-0.0011
2753.0,-0.0012
2752.0,-0.0012
2751.0,-0.0012
2750.0,-0.0012
2749.0,-0.0013
2748.0,-0.0013
2747.0,-0.0013
2746.0,-0.0012
2745.0,-0.0012
2744.0,-0.0012
2743.0,-0.0012
2742.0,-0.0012
2741.0,-0.0011
2740.0,-0.0011
2739.0,-0.0011
2738.0,-0.0011
2737.0,-0.0011
2736.0,-0.0011
2735.0,-0.0011
2734.0,-0.0012
2733.0,-0.0012
2732.0,-0.0012
2731.0,-0.0012
2730.0,-0.0012
2729.0,-0.0012
2728.0,-0.0012
2727.0,-0.0011
2726.0,-0.0011
2725.0,-0.001
2724.0,-0.001
2723.0,-0.001
2722.0,-0.001
2721.0,-0.001
2720.0,-0.001
2719.0,-0.001
2718.0,-0.001
2717.0,-0.0011
2716.0,-0.0011
2715.0,-0.0011
2714.0,-0.0011
2713.0,-0.0011
2712.0,-0.0011
2711.0,-0.0011
2710.0,-0.0012
2709.0,-0.0012
2708.0,-0.0012
2707.0,-0.0012
2706.0,-0.0012
2705.0,-0.0012
2704.0,-0.0011
2703.0,-0.001
2702.0,-0.001
2701.0,-0.001
2700.0,-0.0011
2699.0,-0.0011
2698.0,-0.0011
2697.0,-0.0012
2696.0,-0.0012
2695.0,-0.0012
2694.0,-0.0013
2693.0,-0.0013
2692.0,-0.0013
2691.0,-0.0012
2690.0,-0.0012
2689.0,-0.0012
2688.0,-0.0011
2687.0,-0.0011
2686.0,-0.0011
2685.0,-0.0011
2684.0,-0.0011
2683.0,-0.001
2682.0,-0.001
2681.0,-0.0011
2680.0,-0.0012
2679.0,-0.0012
2678.0,-0.0012
2677.0,-0.0012
2676.0,-0.0011
2675.0,-0.0011
2674.0,-0.0011
2673.0,-0.0011
2672.0,-0.001
2671.0,-0.001
2670.0,-0.0011
2669.0,-0.0011
2668.0,-0.0012
2667.0,-0.0012
2666.0,-0.0012
2665.0,-0.0011
2664.0,-0.0011
2663.0,-0.001
2662.0,-0.001
2661.0,-0.001
2660.0,-0.0009
2659.0,-0.001
2658.0,-0.001
2657.0,-0.001
2656.0,-0.001
2655.0,-0.001
2654.0,-0.001
2653.0,-0.001
2652.0,-0.001
2651.0,-0.001
2650.0,-0.001
2649.0,-0.0011
2648.0,-0.0011
2647.0,-0.0012
2646.0,-0.0012
2645.0,-0.0012
2644.0,-0.0011
2643.0,-0.0011
2642.0,-0.0011
2641.0,-0.0012
2640.0,-0.0012
2639.0,-0.0012
2638.0,-0.0012
2637.0,-0.0012
2636.0,-0.0012
2635.0,-0.0012
2634.0,-0.0012
2633.0,-0.0011
2632.0,-0.0011
2631.0,-0.0011
2630.0,-0.0011
2629.0,-0.001
2628.0,-0.001
2627.0,-0.001
2626.0,-0.001
2625.0,-0.001
2624.0,-0.0009
2623.0,-0.0009
2622.0,-0.0009
2621.0,-0.0009
2620.0,-0.0009
2619.0,-0.0009
2618.0,-0.0009
2617.0,-0.0009
2616.0,-0.0009
2615.0,-0.0009
2614.0,-0.001
2613.0,-0.001
2612.0,-0.0011
2611.0,-0.0011
2610.0,-0.0011
2609.0,-0.0011
2608.0,-0.0011
2607.0,-0.0011
2606.0,-0.0011
2605.0,-0.0011
2604.0,-0.0011
2603.0,-0.0011
2602.0,-0.0011
2601.0,-0.0011
2600.0,-0.0011
2599.0,-0.0011
2598.0,-0.0011
2597.0,-0.001
2596.0,-0.0009
2595.0,-0.0009
2594.0,-0.0009
2593.0,-0.0009
2592.0,-0.0009
2591.0,-0.001
2590.0,-0.001
2589.0,-0.001
2588.0,-0.001
2587.0,-0.0011
2586.0,-0.0011
2585.0,-0.0011
2584.0,-0.0011
2583.0,-0.0011
2582.0,-0.001
2581.0,-0.001
2580.0,-0.001
2579.0,-0.0009
2578.0,-0.0009
2577.0,-0.0008
2576.0,-0.0009
2575.0,-0.0009
2574.0,-0.001
2573.0,-0.0011
2572.0,-0.0011
2571.0,-0.0011
2570.0,-0.001
2569.0,-0.001
2568.0,-0.0009
2567.0,-0.0009
2566.0,-0.0009
2565.0,-0.0009
2564.0,-0.0009
2563.0,-0.001
2562.0,-0.001
2561.0,-0.001
2560.0,-0.001
2559.0,-0.001
2558.0,-0.001
2557.0,-0.001
2556.0,-0.001
2555.0,-0.001
2554.0,-0.001
2553.0,-0.001
2552.0,-0.001
2551.0,-0.0011
2550.0,-0.0011
2549.0,-0.0011
2548.0,-0.001
2547.0,-0.0011
2546.0,-0.0011
2545.0,-0.001
2544.0,-0.001
2543.0,-0.0009
2542.0,-0.0009
2541.0,-0.0009
2540.0,-0.0009
2539.0,-0.0009
2538.0,-0.0009
2537.0,-0.0009
2536.0,-0.0009
2535.0,-0.0009
2534.0,-0.0009
2533.0,-0.001
2532.0,-0.001
2531.0,-0.001
2530.0,-0.001
2529.0,-0.001
2528.0,-0.001
2527.0,-0.001
2526.0,-0.001
2525.0,-0.001
2524.0,-0.001
2523.0,-0.001
2522.0,-0.0011
2521.0,-0.001
2520.0,-0.001
2519.0,-0.001
2518.0,-0.001
2517.0,-0.0009
2516.0,-0.0009
2515.0,-0.0009
2514.0,-0.0009
2513.0,-0.001
2512.0,-0.001
2511.0,-0.001
2510.0,-0.001
2509.0,-0.001
2508.0,-0.001
2507.0,-0.0009
2506.0,-0.0009
2505.0,-0.0009
2504.0,-0.0009
2503.0,-0.0009
2502.0,-0.0009
2501.0,-0.001
2500.0,-0.001
2499.0,-0.001
2498.0,-0.001
2497.0,-0.001
2496.0,-0.0009
2495.0,-0.0009
2494.0,-0.0009
2493.0,-0.001
2492.0,-0.001
2491.0,-0.001
2490.0,-0.001
2489.0,-0.001
2488.0,-0.001
2487.0,-0.001
2486.0,-0.001
2485.0,-0.001
2484.0,-0.001
2483.0,-0.001
2482.0,-0.001
2481.0,-0.001
2480.0,-0.001
2479.0,-0.001
2478.0,-0.001
2477.0,-0.001
2476.0,-0.001
2475.0,-0.001
2474.0,-0.001
2473.0,-0.0009
2472.0,-0.0009
2471.0,-0.001
2470.0,-0.001
2469.0,-0.001
2468.0,-0.001
2467.0,-0.001
2466.0,-0.0009
2465.0,-0.0009
2464.0,-0.0009
2463.0,-0.0009
2462.0,-0.0009
2461.0,-0.0009
2460.0,-0.0009
2459.0,-0.0009
2458.0,-0.0009
2457.0,-0.0009
2456.0,-0.0009
2455.0,-0.0009
2454.0,-0.001
2453.0,-0.001
2452.0,-0.001
2451.0,-0.001
2450.0,-0.0011
2449.0,-0.0011
2448.0,-0.001
2447.0,-0.001
2446.0,-0.001
2445.0,-0.001
2444.0,-0.001
2443.0,-0.001
2442.0,-0.001
2441.0,-0.0011
2440.0,-0.0011
2439.0,-0.0011
2438.0,-0.0011
2437.0,-0.0011
2436.0,-0.0011
2435.0,-0.0011
2434.0,-0.0011
2433.0,-0.001
2432.0,-0.001
2431.0,-0.0009
2430.0,-0.0009
2429.0,-0.0008
2428.0,-0.0008
2427.0,-0.0009
2426.0,-0.0009
2425.0,-0.0009
2424.0,-0.0009
2423.0,-0.0009
2422.0,-0.0009
2421.0,-0.0009
2420.0,-0.0009
2419.0,-0.0009
2418.0,-0.0009
2417.0,-0.0008
2416.0,-0.0008
2415.0,-0.0009
2414.0,-0.0009
2413.0,-0.0009
2412.0,-0.0009
2411.0,-0.0009
2410.0,-0.0009
2409.0,-0.001
2408.0,-0.001
2407.0,-0.001
2406.0,-0.001
2405.0,-0.001
2404.0,-0.001
2403.0,-0.001
2402.0,-0.001
2401.0,-0.001
2400.0,-0.0009
2399.0,-0.0009
2398.0,-0.0009
2397.0,-0.001
2396.0,-0.001
2395.0,-0.001
2394.0,-0.001
2393.0,-0.0009
2392.0,-0.0009
2391.0,-0.0009
2390.0,-0.0009
2389.0,-0.0009
2388.0,-0.0009
2387.0,-0.0008
2386.0,-0.0008
2385.0,-0.0007
2384.0,-0.0007
2383.0,-0.0007
2382.0,-0.0007
2381.0,-0.0007
2380.0,-0.0008
2379.0,-0.0008
2378.0,-0.0007
2377.0,-0.0007
2376.0,-0.0006
2375.0,-0.0006
2374.0,-0.0006
2373.0,-0.0005
2372.0,-0.0002
2371.0,0.0001
2370.0,0.0004
2369.0,0.0006
2368.0,0.0008
2367.0,0.0008
2366.0,0.0003
2365.0,-0.0011
2364.0,-0.0027
2363.0,-0.0039
2362.0,-0.004
2361.0,-0.0029
2360.0,-0.0014
2359.0,0.0
2358.0,0.0007
2357.0,0.0008
2356.0,0.0008
2355.0,0.0006
2354.0,0.0004
2353.0,0.0005
2352.0,0.0014
2351.0,0.0027
2350.0,0.0035
2349.0,0.0033
2348.0,0.0022
2347.0,0.001
2346.0,0.0002
2345.0,0.0002
2344.0,0.0004
2343.0,0.0004
2342.0,0.0003
2341.0,0.0002
2340.0,0.0004
2339.0,0.0009
2338.0,0.0015
2337.0,0.002
2336.0,0.0024
2335.0,0.0024
2334.0,0.0018
2333.0,0.0009
2332.0,0.0001
2331.0,-0.0004
2330.0,-0.0002
2329.0,0.0003
2328.0,0.0007
2327.0,0.0009
2326.0,0.0007
2325.0,0.0002
2324.0,-0.0004
2323.0,-0.0008
2322.0,-0.0011
2321.0,-0.001
2320.0,-0.0006
2319.0,-0.0003
2318.0,-0.0001
2317.0,-0.0002
2316.0,-0.0004
2315.0,-0.0006
2314.0,-0.0007
2313.0,-0.0005
2312.0,-0.0003
2311.0,-0.0002
2310.0,-0.0002
2309.0,-0.0003
2308.0,-0.0003
2307.0,-0.0003
2306.0,-0.0003
2305.0,-0.0004
2304.0,-0.0004
2303.0,-0.0003
2302.0,-0.0003
2301.0,-0.0003
2300.0,-0.0003
2299.0,-0.0003
2298.0,-0.0003
2297.0,-0.0003
2296.0,-0.0003
2295.0,-0.0004
2294.0,-0.0004
2293.0,-0.0005
2292.0,-0.0005
2291.0,-0.0006
2290.0,-0.0006
2289.0,-0.0006
2288.0,-0.0006
2287.0,-0.0006
2286.0,-0.0006
2285.0,-0.0006
2284.0,-0.0007
2283.0,-0.0007
2282.0,-0.0006
2281.0,-0.0006
2280.0,-0.0005
2279.0,-0.0005
2278.0,-0.0005
2277.0,-0.0005
2276.0,-0.0005
2275.0,-0.0005
2274.0,-0.0005
2273.0,-0.0006
2272.0,-0.0006
2271.0,-0.0006
2270.0,-0.0006
2269.0,-0.0006
2268.0,-0.0006
2267.0,-0.0006
2266.0,-0.0006
2265.0,-0.0006
2264.0,-0.0006
2263.0,-0.0006
2262.0,-0.0006
2261.0,-0.0006
2260.0,-0.0006
2259.0,-0.0006
2258.0,-0.0006
2257.0,-0.0007
2256.0,-0.0008
2255.0,-0.0008
2254.0,-0.0007
2253.0,-0.0007
2252.0,-0.0008
2251.0,-0.0008
2250.0,-0.0008
2249.0,-0.0008
2248.0,-0.0008
2247.0,-0.0008
2246.0,-0.0008
2245.0,-0.0008
2244.0,-0.0008
2243.0,-0.0009
2242.0,-0.0009
2241.0,-0.0009
2240.0,-0.0008
2239.0,-0.0008
2238.0,-0.0008
2237.0,-0.0008
2236.0,-0.0008
2235.0,-0.0008
2234.0,-0.0008
2233.0,-0.0008
2232.0,-0.0008
2231.0,-0.0008
2230.0,-0.0008
2229.0,-0.0008
2228.0,-0.0009
2227.0,-0.0009
2226.0,-0.0009
2225.0,-0.0009
2224.0,-0.0008
2223.0,-0.0008
2222.0,-0.0008
2221.0,-0.0008
2220.0,-0.0008
2219.0,-0.0008
2218.0,-0.0008
2217.0,-0.0008
2216.0,-0.0008
2215.0,-0.0007
2214.0,-0.0008
2213.0,-0.0008
2212.0,-0.0009
2211.0,-0.0009
2210.0,-0.001
2209.0,-0.001
2208.0,-0.0009
2207.0,-0.0009
2206.0,-0.0009
2205.0,-0.0009
2204.0,-0.0008
2203.0,-0.0008
2202.0,-0.0008
2201.0,-0.0008
2200.0,-0.0008
2199.0,-0.0008
2198.0,-0.0009
2197.0,-0.0009
2196.0,-0.0009
2195.0,-0.0009
2194.0,-0.0009
2193.0,-0.0008
2192.0,-0.0008
2191.0,-0.0008
2190.0,-0.0008
2189.0,-0.0008
2188.0,-0.0009
2187.0,-0.0009
2186.0,-0.0008
2185.0,-0.0008
2184.0,-0.0009
2183.0,-0.0009
2182.0,-0.0009
2181.0,-0.0009
2180.0,-0.0009
2179.0,-0.0009
2178.0,-0.0008
2177.0,-0.0008
2176.0,-0.0008
2175.0,-0.0008
2174.0,-0.0008
2173.0,-0.0008
2172.0,-0.0008
2171.0,-0.0008
2170.0,-0.0008
2169.0,-0.0008
2168.0,-0.0009
2167.0,-0.0009
2166.0,-0.0009
2165.0,-0.0009
2164.0,-0.0009
2163.0,-0.0009
2162.0,-0.0008
2161.0,-0.0008
2160.0,-0.0008
2159.0,-0.0008
2158.0,-0.0009
2157.0,-0.0009
2156.0,-0.0009
2155.0,-0.0009
2154.0,-0.0008
2153.0,-0.0008
2152.0,-0.0008
2151.0,-0.0008
2150.0,-0.0008
2149.0,-0.0008
2148.0,-0.0008
2147.0,-0.0008
2146.0,-0.0008
2145.0,-0.0009
2144.0,-0.0009
2143.0,-0.0009
2142.0,-0.0009
2141.0,-0.0008
2140.0,-0.0008
2139.0,-0.0009
2138.0,-0.0009
2137.0,-0.0009
2136.0,-0.0008
2135.0,-0.0008
2134.0,-0.0007
2133.0,-0.0007
2132.0,-0.0008
2131.0,-0.0008
2130.0,-0.0009
2129.0,-0.0009
2128.0,-0.0009
2127.0,-0.0009
2126.0,-0.0008
2125.0,-0.0008
2124.0,-0.0008
2123.0,-0.0008
2122.0,-0.0008
2121.0,-0.0008
2120.0,-0.0008
2119.0,-0.0008
2118.0,-0.0008
2117.0,-0.0008
2116.0,-0.0008
2115.0,-0.0008
2114.0,-0.0007
2113.0,-0.0007
2112.0,-0.0008
2111.0,-0.0008
2110.0,-0.0008
2109.0,-0.0009
2108.0,-0.0009
2107.0,-0.001
2106.0,-0.001
2105.0,-0.0009
2104.0,-0.0009
2103.0,-0.0009
2102.0,-0.0008
2101.0,-0.0008
2100.0,-0.0008
2099.0,-0.0008
2098.0,-0.0008
2097.0,-0.0007
2096.0,-0.0007
2095.0,-0.0007
2094.0,-0.0008
2093.0,-0.0008
2092.0,-0.0008
2091.0,-0.0007
2090.0,-0.0007
2089.0,-0.0007
2088.0,-0.0007
2087.0,-0.0007
2086.0,-0.0007
2085.0,-0.0008
2084.0,-0.0008
2083.0,-0.0008
2082.0,-0.0007
2081.0,-0.0007
2080.0,-0.0007
2079.0,-0.0007
2078.0,-0.0007
2077.0,-0.0008
2076.0,-0.0008
2075.0,-0.0008
2074.0,-0.0008
2073.0,-0.0008
2072.0,-0.0008
2071.0,-0.0008
2070.0,-0.0008
2069.0,-0.0008
2068.0,-0.0009
2067.0,-0.0009
2066.0,-0.0009
2065.0,-0.0009
2064.0,-0.0008
2063.0,-0.0008
2062.0,-0.0009
2061.0,-0.0009
2060.0,-0.0008
2059.0,-0.0008
2058.0,-0.0008
2057.0,-0.0008
2056.0,-0.0008
2055.0,-0.0008
2054.0,-0.0007
2053.0,-0.0007
2052.0,-0.0007
2051.0,-0.0007
2050.0,-0.0007
2049.0,-0.0007
2048.0,-0.0007
2047.0,-0.0008
2046.0,-0.0008
2045.0,-0.0008
2044.0,-0.0008
2043.0,-0.0008
2042.0,-0.0008
2041.0,-0.0009
2040.0,-0.0009
2039.0,-0.0009
2038.0,-0.0009
2037.0,-0.0009
2036.0,-0.0009
2035.0,-0.0008
2034.0,-0.0008
2033.0,-0.0008
2032.0,-0.0008
2031.0,-0.0008
2030.0,-0.0008
2029.0,-0.0008
2028.0,-0.0008
2027.0,-0.0008
2026.0,-0.0008
2025.0,-0.0008
2024.0,-0.0008
2023.0,-0.0008
2022.0,-0.0008
2021.0,-0.0008
2020.0,-0.0008
2019.0,-0.0009
2018.0,-0.0009
2017.0,-0.0009
2016.0,-0.0009
2015.0,-0.0009
2014.0,-0.0009
2013.0,-0.0009
2012.0,-0.0009
2011.0,-0.0008
2010.0,-0.0008
2009.0,-0.0009
2008.0,-0.0009
2007.0,-0.0009
2006.0,-0.0009
2005.0,-0.0009
2004.0,-0.0008
2003.0,-0.0009
2002.0,-0.0009
2001.0,-0.0009
2000.0,-0.0009
1999.0,-0.0009
1998.0,-0.001
1997.0,-0.001
1996.0,-0.001
1995.0,-0.001
1994.0,-0.001
1993.0,-0.001
1992.0,-0.0009
1991.0,-0.0009
1990.0,-0.0009
1989.0,-0.0009
1988.0,-0.001
1987.0,-0.001
1986.0,-0.001
1985.0,-0.0009
1984.0,-0.0009
1983.0,-0.0009
1982.0,-0.0009
1981.0,-0.0009
1980.0,-0.0009
1979.0,-0.0009
1978.0,-0.0009
1977.0,-0.0009
1976.0,-0.0009
1975.0,-0.0009
1974.0,-0.0009
1973.0,-0.0009
1972.0,-0.0008
1971.0,-0.0008
1970.0,-0.0008
1969.0,-0.0009
1968.0,-0.0009
1967.0,-0.0009
1966.0,-0.0009
1965.0,-0.001
1964.0,-0.001
1963.0,-0.0009
1962.0,-0.0009
1961.0,-0.0009
1960.0,-0.0009
1959.0,-0.0008
1958.0,-0.0008
1957.0,-0.0008
1956.0,-0.0008
1955.0,-0.0008
1954.0,-0.0007
1953.0,-0.0007
1952.0,-0.0007
1951.0,-0.0007
1950.0,-0.0007
1949.0,-0.0007
1948.0,-0.0008
1947.0,-0.0008
1946.0,-0.0009
1945.0,-0.0009
1944.0,-0.0009
1943.0,-0.0009
1942.0,-0.0009
1941.0,-0.0009
1940.0,-0.0009
1939.0,-0.0009
1938.0,-0.0009
1937.0,-0.0009
1936.0,-0.0009
1935.0,-0.0009
1934.0,-0.0009
1933.0,-0.0009
1932.0,-0.0009
1931.0,-0.001
1930.0,-0.001
1929.0,-0.001
1928.0,-0.0009
1927.0,-0.0009
1926.0,-0.0009
1925.0,-0.0008
1924.0,-0.0008
1923.0,-0.0009
1922.0,-0.0009
1921.0,-0.0009
1920.0,-0.0009
1919.0,-0.0009
1918.0,-0.001
1917.0,-0.001
1916.0,-0.001
1915.0,-0.0009
1914.0,-0.0009
1913.0,-0.0009
1912.0,-0.0009
1911.0,-0.001
1910.0,-0.001
1909.0,-0.001
1908.0,-0.001
1907.0,-0.001
1906.0,-0.001
1905.0,-0.001
1904.0,-0.001
1903.0,-0.001
1902.0,-0.0011
1901.0,-0.0011
1900.0,-0.001
1899.0,-0.001
1898.0,-0.0009
1897.0,-0.0009
1896.0,-0.0009
1895.0,-0.0009
1894.0,-0.001
1893.0,-0.001
1892.0,-0.0011
1891.0,-0.0011
1890.0,-0.0011
1889.0,-0.0011
1888.0,-0.0011
1887.0,-0.0011
1886.0,-0.0011
1885.0,-0.0011
1884.0,-0.0011
1883.0,-0.0011
1882.0,-0.0011
1881.0,-0.001
1880.0,-0.001
1879.0,-0.001
1878.0,-0.0011
1877.0,-0.0011
1876.0,-0.0012
1875.0,-0.0012
1874.0,-0.0012
1873.0,-0.0012
1872.0,-0.0012
1871.0,-0.0011
1870.0,-0.0011
1869.0,-0.0011
1868.0,-0.0011
1867.0,-0.0011
1866.0,-0.0011
1865.0,-0.0011
1864.0,-0.0012
1863.0,-0.0012
1862.0,-0.0012
1861.0,-0.0013
1860.0,-0.0013
1859.0,-0.0013
1858.0,-0.0013
1857.0,-0.0013
1856.0,-0.0013
1855.0,-0.0013
1854.0,-0.0012
1853.0,-0.0012
1852.0,-0.0012
1851.0,-0.0012
1850.0,-0.0012
1849.0,-0.0012
1848.0,-0.0012
1847.0,-0.0013
1846.0,-0.0013
1845.0,-0.0012
1844.0,-0.0012
1843.0,-0.0013
1842.0,-0.0013
1841.0,-0.0013
1840.0,-0.0013
1839.0,-0.0012
1838.0,-0.0012
1837.0,-0.0013
1836.0,-0.0013
1835.0,-0.0013
1834.0,-0.0013
1833.0,-0.0013
1832.0,-0.0013
1831.0,-0.0013
1830.0,-0.0013
1829.0,-0.0013
1828.0,-0.0013
1827.0,-0.0013
1826.0,-0.0013
1825.0,-0.0013
1824.0,-0.0013
1823.0,-0.0014
1822.0,-0.0014
1821.0,-0.0014
1820.0,-0.0014
1819.0,-0.0014
1818.0,-0.0014
1817.0,-0.0014
1816.0,-0.0014
1815.0,-0.0014
1814.0,-0.0014
1813.0,-0.0015
1812.0,-0.0015
1811.0,-0.0015
1810.0,-0.0015
1809.0,-0.0015
1808.0,-0.0015
1807.0,-0.0015
1806.0,-0.0015
1805.0,-0.0015
1804.0,-0.0015
1803.0,-0.0015
1802.0,-0.0015
1801.0,-0.0015
1800.0,-0.0015
1799.0,-0.0016
1798.0,-0.0016
1797.0,-0.0017
1796.0,-0.0017
1795.0,-0.0018
1794.0,-0.0018
1793.0,-0.0018
1792.0,-0.0017
1791.0,-0.0016
1790.0,-0.0016
1789.0,-0.0016
1788.0,-0.0017
1787.0,-0.0017
1786.0,-0.0017
1785.0,-0.0017
1784.0,-0.0017
1783.0,-0.0017
1782.0,-0.0018
1781.0,-0.0018
1780.0,-0.0019
1779.0,-0.0019
1778.0,-0.0018
1777.0,-0.0018
1776.0,-0.0018
1775.0,-0.0017
1774.0,-0.0017
1773.0,-0.0017
1772.0,-0.0017
1771.0,-0.0018
1770.0,-0.0018
1769.0,-0.0018
1768.0,-0.0018
1767.0,-0.0018
1766.0,-0.0018
1765.0,-0.0018
1764.0,-0.0018
1763.0,-0.0018
1762.0,-0.0018
1761.0,-0.0018
1760.0,-0.0018
1759.0,-0.0018
1758.0,-0.0017
1757.0,-0.0016
1756.0,-0.0016
1755.0,-0.0015
1754.0,-0.0015
1753.0,-0.0014
1752.0,-0.0012
1751.0,-0.0011
1750.0,-0.001
1749.0,-0.0009
1748.0,-0.0008
1747.0,-0.0007
1746.0,-0.0005
1745.0,-0.0003
1744.0,-0.0001
1743.0,0.0002
1742.0,0.0004
1741.0,0.0007
1740.0,0.0011
1739.0,0.0015
1738.0,0.0018
1737.0,0.0021
1736.0,0.0024
1735.0,0.003
1734.0,0.0035
1733.0,0.0038
1732.0,0.0039
1731.0,0.0041
1730.0,0.0043
1729.0,0.0046
1728.0,0.0048
1727.0,0.005
1726.0,0.0052
1725.0,0.0054
1724.0,0.0056
1723.0,0.0058
1722.0,0.006
1721.0,0.0061
1720.0,0.0063
1719.0,0.0064
1718.0,0.0065
1717.0,0.0067
1716.0,0.0067
1715.0,0.0068
1714.0,0.0068
1713.0,0.0068
1712.0,0.0068
1711.0,0.0068
1710.0,0.0067
1709.0,0.0066
1708.0,0.0064
1707.0,0.0061
1706.0,0.0058
1705.0,0.0055
1704.0,0.0053
1703.0,0.0052
1702.0,0.0051
1701.0,0.0049
1700.0,0.0047
1699.0,0.0045
1698.0,0.0044
1697.0,0.0042
1696.0,0.004
1695.0,0.0039
1694.0,0.0037
1693.0,0.0037
1692.0,0.0036
1691.0,0.0036
1690.0,0.0035
1689.0,0.0034
1688.0,0.0033
1687.0,0.0033
1686.0,0.0032
1685.0,0.0032
1684.0,0.0031
1683.0,0.003
1682.0,0.0029
1681.0,0.0028
1680.0,0.0027
1679.0,0.0027
1678.0,0.0027
1677.0,0.0026
1676.0,0.0026
1675.0,0.0025
1674.0,0.0025
1673.0,0.0025
1672.0,0.0025
1671.0,0.0025
1670.0,0.0025
1669.0,0.0024
1668.0,0.0022
1667.0,0.0021
1666.0,0.0021
1665.0,0.0021
1664.0,0.0021
1663.0,0.0021
1662.0,0.002
1661.0,0.0019
1660.0,0.0019
1659.0,0.0018
1658.0,0.0018
1657.0,0.0018
1656.0,0.0018
1655.0,0.0018
1654.0,0.0016
1653.0,0.0015
1652.0,0.0015
1651.0,0.0015
1650.0,0.0014
1649.0,0.0015
1648.0,0.0015
1647.0,0.0015
1646.0,0.0015
1645.0,0.0014
1644.0,0.0014
1643.0,0.0013
1642.0,0.0013
1641.0,0.0013
1640.0,0.0012
1639.0,0.0012
1638.0,0.0012
1637.0,0.0012
1636.0,0.0011
1635.0,0.001
1634.0,0.001
1633.0,0.001
1632.0,0.001
1631.0,0.001
1630.0,0.001
1629.0,0.001
1628.0,0.001
1627.0,0.001
1626.0,0.0009
1625.0,0.0009
1624.0,0.0009
1623.0,0.0008
1622.0,0.0008
1621.0,0.0009
1620.0,0.0009
1619.0,0.001
1618.0,0.0011
1617.0,0.0011
1616.0,0.001
1615.0,0.0009
1614.0,0.0009
1613.0,0.0008
1612.0,0.0008
1611.0,0.0008
1610.0,0.0009
1609.0,0.0009
1608.0,0.0008
1607.0,0.0008
1606.0,0.0007
1605.0,0.0007
1604.0,0.0007
1603.0,0.0007
1602.0,0.0006
1601.0,0.0006
1600.0,0.0006
1599.0,0.0006
1598.0,0.0006
1597.0,0.0006
1596.0,0.0005
1595.0,0.0005
1594.0,0.0004
1593.0,0.0004
1592.0,0.0004
1591.0,0.0004
1590.0,0.0004
1589.0,0.0004
1588.0,0.0004
1587.0,0.0004
1586.0,0.0004
1585.0,0.0004
1584.0,0.0004
1583.0,0.0004
1582.0,0.0005
1581.0,0.0006
1580.0,0.0007
1579.0,0.0008
1578.0,0.0008
1577.0,0.0009
1576.0,0.0009
1575.0,0.0009
1574.0,0.0008
1573.0,0.0008
1572.0,0.0008
1571.0,0.0007
1570.0,0.0007
1569.0,0.0005
1568.0,0.0004
1567.0,0.0004
1566.0,0.0004
1565.0,0.0004
1564.0,0.0004
1563.0,0.0004
1562.0,0.0004
1561.0,0.0003
1560.0,0.0002
1559.0,0.0002
1558.0,0.0002
1557.0,0.0002
1556.0,0.0002
1555.0,0.0002
1554.0,0.0002
1553.0,0.0001
1552.0,0.0001
1551.0,0.0001
1550.0,0.0
1549.0,0.0
1548.0,0.0
1547.0,0.0
1546.0,0.0
1545.0,0.0
1544.0,-0.0001
1543.0,-0.0001
1542.0,-0.0002
1541.0,-0.0003
1540.0,-0.0003
1539.0,-0.0002
1538.0,-0.0001
1537.0,-0.0001
1536.0,-0.0001
1535.0,-0.0
1534.0,0.0
1533.0,-0.0
1532.0,-0.0001
1531.0,-0.0001
1530.0,-0.0002
1529.0,-0.0002
1528.0,-0.0002
1527.0,-0.0002
1526.0,-0.0001
1525.0,-0.0001
1524.0,-0.0
1523.0,0.0
1522.0,-0.0
1521.0,-0.0002
1520.0,-0.0003
1519.0,-0.0004
1518.0,-0.0005
1517.0,-0.0004
1516.0,-0.0004
1515.0,-0.0004
1514.0,-0.0004
1513.0,-0.0004
1512.0,-0.0005
1511.0,-0.0005
1510.0,-0.0005
1509.0,-0.0005
1508.0,-0.0003
1507.0,0.0001
1506.0,0.0004
1505.0,0.0006
1504.0,0.0006
1503.0,0.0006
1502.0,0.0005
1501.0,0.0004
1500.0,0.0003
1499.0,0.0002
1498.0,0.0001
1497.0,-0.0
1496.0,-0.0001
1495.0,-0.0002
1494.0,-0.0003
1493.0,-0.0004
1492.0,-0.0004
1491.0,-0.0005
1490.0,-0.0005
1489.0,-0.0006
1488.0,-0.0006
1487.0,-0.0006
1486.0,-0.0005
1485.0,-0.0005
1484.0,-0.0005
1483.0,-0.0005
1482.0,-0.0004
1481.0,-0.0004
1480.0,-0.0003
1479.0,-0.0003
1478.0,-0.0003
1477.0,-0.0003
1476.0,-0.0003
1475.0,-0.0003
1474.0,-0.0002
1473.0,-0.0002
1472.0,-0.0002
1471.0,-0.0002
1470.0,-0.0002
1469.0,-0.0002
1468.0,-0.0002
1467.0,-0.0002
1466.0,-0.0002
1465.0,-0.0001
1464.0,-0.0
1463.0,0.0
1462.0,0.0001
1461.0,0.0001
1460.0,0.0001
1459.0,0.0003
1458.0,0.0005
1457.0,0.0007
1456.0,0.0007
1455.0,0.0006
1454.0,0.0006
1453.0,0.0005
1452.0,0.0004
1451.0,0.0003
1450.0,0.0003
1449.0,0.0002
1448.0,0.0002
1447.0,0.0002
1446.0,0.0002
1445.0,0.0002
1444.0,0.0001
1443.0,0.0001
1442.0,0.0001
1441.0,0.0001
1440.0,0.0001
1439.0,0.0001
1438.0,0.0001
1437.0,0.0001
1436.0,0.0
1435.0,-0.0001
1434.0,-0.0002
1433.0,-0.0003
1432.0,-0.0004
1431.0,-0.0004
1430.0,-0.0006
1429.0,-0.0007
1428.0,-0.0008
1427.0,-0.0008
1426.0,-0.0009
1425.0,-0.0009
1424.0,-0.0009
1423.0,-0.0009
1422.0,-0.0009
1421.0,-0.0009
1420.0,-0.0008
1419.0,-0.0006
1418.0,-0.0005
1417.0,-0.0004
1416.0,-0.0002
1415.0,0.0001
1414.0,0.0006
1413.0,0.0011
1412.0,0.0016
1411.0,0.0021
1410.0,0.0026
1409.0,0.0028
1408.0,0.003
1407.0,0.003
1406.0,0.0028
1405.0,0.0026
1404.0,0.0023
1403.0,0.002
1402.0,0.0018
1401.0,0.0017
1400.0,0.0015
1399.0,0.0013
1398.0,0.0011
1397.0,0.0009
1396.0,0.0008
1395.0,0.0007
1394.0,0.0005
1393.0,0.0004
1392.0,0.0003
1391.0,0.0002
1390.0,0.0
1389.0,-0.0
1388.0,-0.0001
1387.0,-0.0002
1386.0,-0.0002
1385.0,-0.0003
1384.0,-0.0003
1383.0,-0.0003
1382.0,-0.0003
1381.0,-0.0002
1380.0,-0.0002
1379.0,-0.0002
1378.0,-0.0002
1377.0,-0.0001
1376.0,-0.0
1375.0,0.0001
1374.0,0.0002
1373.0,0.0002
1372.0,0.0002
1371.0,0.0003
1370.0,0.0003
1369.0,0.0002
1368.0,0.0001
1367.0,0.0
1366.0,-0.0001
1365.0,-0.0002
1364.0,-0.0004
1363.0,-0.0005
1362.0,-0.0006
1361.0,-0.0007
1360.0,-0.0008
1359.0,-0.0008
1358.0,-0.0008
1357.0,-0.0009
1356.0,-0.0009
1355.0,-0.0009
1354.0,-0.0008
1353.0,-0.0008
1352.0,-0.0007
1351.0,-0.0007
1350.0,-0.0005
1349.0,-0.0003
1348.0,-0.0001
1347.0,0.0002
1346.0,0.0004
1345.0,0.0007
1344.0,0.001
1343.0,0.0013
1342.0,0.0017
1341.0,0.002
1340.0,0.0023
1339.0,0.0025
1338.0,0.0025
1337.0,0.0024
1336.0,0.0021
1335.0,0.0018
1334.0,0.0014
1333.0,0.001
1332.0,0.0005
1331.0,0.0002
1330.0,-0.0001
1329.0,-0.0003
1328.0,-0.0005
1327.0,-0.0005
1326.0,-0.0006
1325.0,-0.0006
1324.0,-0.0006
1323.0,-0.0005
1322.0,-0.0005
1321.0,-0.0004
1320.0,-0.0004
1319.0,-0.0003
1318.0,-0.0002
1317.0,-0.0001
1316.0,-0.0001
1315.0,0.0
1314.0,0.0001
1313.0,0.0003
1312.0,0.0004
1311.0,0.0005
1310.0,0.0007
1309.0,0.0008
1308.0,0.0009
1307.0,0.0011
1306.0,0.0012
1305.0,0.0014
1304.0,0.0015
1303.0,0.0017
1302.0,0.0019
1301.0,0.0022
1300.0,0.0024
1299.0,0.0027
1298.0,0.003
1297.0,0.0033
1296.0,0.0036
1295.0,0.0039
1294.0,0.0043
1293.0,0.0046
1292.0,0.0049
1291.0,0.0052
1290.0,0.0055
1289.0,0.0057
1288.0,0.0059
1287.0,0.0061
1286.0,0.0063
1285.0,0.0065
1284.0,0.0067
1283.0,0.0068
1282.0,0.007
1281.0,0.0071
1280.0,0.0073
1279.0,0.0074
1278.0,0.0076
1277.0,0.0078
1276.0,0.0079
1275.0,0.0081
1274.0,0.0083
1273.0,0.0086
1272.0,0.0089
1271.0,0.0094
1270.0,0.0098
1269.0,0.0102
1268.0,0.0105
1267.0,0.0108
1266.0,0.0111
1265.0,0.0113
1264.0,0.0115
1263.0,0.0117
1262.0,0.0118
1261.0,0.0119
1260.0,0.0119
1259.0,0.012
1258.0,0.012
1257.0,0.012
1256.0,0.0121
1255.0,0.0122
1254.0,0.0123
1253.0,0.0124
1252.0,0.0125
1251.0,0.0126
1250.0,0.0127
1249.0,0.013
1248.0,0.0132
1247.0,0.0135
1246.0,0.0138
1245.0,0.014
1244.0,0.0143
1243.0,0.0146
1242.0,0.0149
1241.0,0.0152
1240.0,0.0155
1239.0,0.0157
1238.0,0.0159
1237.0,0.016
1236.0,0.0162
1235.0,0.0163
1234.0,0.0164
1233.0,0.0164
1232.0,0.0163
1231.0,0.0162
1230.0,0.0159
1229.0,0.0157
1228.0,0.0155
1227.0,0.0153
1226.0,0.0151
1225.0,0.0149
1224.0,0.0147
1223.0,0.0145
1222.0,0.0143
1221.0,0.014
1220.0,0.0137
1219.0,0.0134
1218.0,0.0131
1217.0,0.0129
1216.0,0.0126
1215.0,0.0124
1214.0,0.0121
1213.0,0.0119
1212.0,0.0117
1211.0,0.0114
1210.0,0.0112
1209.0,0.011
1208.0,0.0108
1207.0,0.0106
1206.0,0.0104
1205.0,0.0101
1204.0,0.0099
1203.0,0.0097
1202.0,0.0095
1201.0,0.0094
1200.0,0.0091
1199.0,0.0089
1198.0,0.0087
1197.0,0.0085
1196.0,0.0083
1195.0,0.0081
1194.0,0.0079
1193.0,0.0077
1192.0,0.0075
1191.0,0.0073
1190.0,0.0071
1189.0,0.0069
1188.0,0.0068
1187.0,0.0065
1186.0,0.0063
1185.0,0.0062
1184.0,0.006
1183.0,0.0059
1182.0,0.0058
1181.0,0.0058
1180.0,0.0057
1179.0,0.0056
1178.0,0.0056
1177.0,0.0056
1176.0,0.0056
1175.0,0.0056
1174.0,0.0056
1173.0,0.0055
1172.0,0.0054
1171.0,0.0052
1170.0,0.005
1169.0,0.0048
1168.0,0.0046
1167.0,0.0045
1166.0,0.0043
1165.0,0.004
1164.0,0.0038
1163.0,0.0035
1162.0,0.0034
1161.0,0.0032
1160.0,0.0031
1159.0,0.003
1158.0,0.0029
1157.0,0.0028
1156.0,0.0027
1155.0,0.0026
1154.0,0.0025
1153.0,0.0025
1152.0,0.0025
1151.0,0.0026
1150.0,0.0027
1149.0,0.0028
1148.0,0.003
1147.0,0.0032
1146.0,0.0034
1145.0,0.0035
1144.0,0.0037
1143.0,0.0039
1142.0,0.0041
1141.0,0.0043
1140.0,0.0046
1139.0,0.0049
1138.0,0.0052
1137.0,0.0055
1136.0,0.0057
1135.0,0.006
1134.0,0.0063
1133.0,0.0066
1132.0,0.0071
1131.0,0.0075
1130.0,0.008
1129.0,0.0084
1128.0,0.0088
1127.0,0.0092
1126.0,0.0097
1125.0,0.0102
1124.0,0.0107
1123.0,0.0111
1122.0,0.0115
1121.0,0.0119
1120.0,0.0123
1119.0,0.0126
1118.0,0.0128
1117.0,0.0129
1116.0,0.013
1115.0,0.013
1114.0,0.0129
1113.0,0.0129
1112.0,0.0128
1111.0,0.0128
1110.0,0.0129
1109.0,0.0131
1108.0,0.0135
1107.0,0.014
1106.0,0.0146
1105.0,0.0152
1104.0,0.0158
1103.0,0.0164
1102.0,0.017
1101.0,0.0175
1100.0,0.018
1099.0,0.0185
1098.0,0.019
1097.0,0.0194
1096.0,0.0198
1095.0,0.0201
1094.0,0.0203
1093.0,0.0204
1092.0,0.0205
1091.0,0.0206
1090.0,0.0207
1089.0,0.0208
1088.0,0.0208
1087.0,0.0209
1086.0,0.0209
1085.0,0.021
1084.0,0.021
1083.0,0.0209
1082.0,0.0208
1081.0,0.0207
1080.0,0.0205
1079.0,0.0204
1078.0,0.0202
1077.0,0.0199
1076.0,0.0196
1075.0,0.0193
1074.0,0.019
1073.0,0.0187
1072.0,0.0183
1071.0,0.018
1070.0,0.0177
1069.0,0.0174
1068.0,0.0171
1067.0,0.0168
1066.0,0.0166
1065.0,0.0163
1064.0,0.016
1063.0,0.0157
1062.0,0.0154
1061.0,0.0151
1060.0,0.0149
1059.0,0.0146
1058.0,0.0143
1057.0,0.0141
1056.0,0.0139
1055.0,0.0138
1054.0,0.0136
1053.0,0.0135
1052.0,0.0134
1051.0,0.0134
1050.0,0.0134
1049.0,0.0134
1048.0,0.0134
1047.0,0.0134
1046.0,0.0134
1045.0,0.0134
1044.0,0.0134
1043.0,0.0135
1042.0,0.0135
1041.0,0.0134
1040.0,0.0133
1039.0,0.0131
1038.0,0.013
1037.0,0.0129
1036.0,0.0128
1035.0,0.0126
1034.0,0.0125
1033.0,0.0123
1032.0,0.0121
1031.0,0.0119
1030.0,0.0116
1029.0,0.0112
1028.0,0.0109
1027.0,0.0106
1026.0,0.0105
1025.0,0.0105
1024.0,0.0108
1023.0,0.0113
1022.0,0.0122
1021.0,0.0133
1020.0,0.0147
1019.0,0.0162
1018.0,0.0175
1017.0,0.0186
1016.0,0.0195
1015.0,0.0199
1014.0,0.02
1013.0,0.0197
1012.0,0.0192
1011.0,0.0185
1010.0,0.0179
1009.0,0.0174
1008.0,0.017
1007.0,0.0167
1006.0,0.0163
1005.0,0.016
1004.0,0.0157
1003.0,0.0154
1002.0,0.0151
1001.0,0.0149
1000.0,0.0148
999.0,0.0146
998.0,0.0144
997.0,0.0142
996.0,0.0141
995.0,0.0139
994.0,0.0137
993.0,0.0136
992.0,0.0135
991.0,0.0134
990.0,0.0133
989.0,0.0132
988.0,0.013
987.0,0.0129
986.0,0.0128
985.0,0.0128
984.0,0.0128
983.0,0.0129
982.0,0.0129
981.0,0.0129
980.0,0.0129
979.0,0.013
978.0,0.0131
977.0,0.0132
976.0,0.0133
975.0,0.0134
974.0,0.0135
973.0,0.0136
972.0,0.0138
971.0,0.0139
970.0,0.014
969.0,0.014
968.0,0.014
967.0,0.0139
966.0,0.0139
965.0,0.0139
964.0,0.0138
963.0,0.0137
962.0,0.0136
961.0,0.0136
960.0,0.0135
959.0,0.0135
958.0,0.0134
957.0,0.0133
956.0,0.0131
955.0,0.013
954.0,0.0129
953.0,0.0129
952.0,0.0128
951.0,0.0128
950.0,0.0127
949.0,0.0126
948.0,0.0125
947.0,0.0124
946.0,0.0123
945.0,0.0122
944.0,0.0122
943.0,0.0121
942.0,0.0121
941.0,0.0121
940.0,0.012
939.0,0.012
938.0,0.0119
937.0,0.0119
936.0,0.0118
935.0,0.0117
934.0,0.0116
933.0,0.0116
932.0,0.0116
931.0,0.0115
930.0,0.0115
929.0,0.0115
928.0,0.0114
927.0,0.0114
926.0,0.0113
925.0,0.0113
924.0,0.0112
923.0,0.0112
922.0,0.0112
921.0,0.0112
920.0,0.0111
919.0,0.011
918.0,0.0108
917.0,0.0107
916.0,0.0105
915.0,0.0104
914.0,0.0103
913.0,0.0103
912.0,0.0103
911.0,0.0103
910.0,0.0103
909.0,0.0103
908.0,0.0104
907.0,0.0104
906.0,0.0105
905.0,0.0106
904.0,0.0107
903.0,0.0108
902.0,0.0109
901.0,0.0111
900.0,0.0112
899.0,0.0114
898.0,0.0115
897.0,0.0115
896.0,0.0115
895.0,0.0115
894.0,0.0115
893.0,0.0114
892.0,0.0114
891.0,0.0113
890.0,0.0112
889.0,0.0112
888.0,0.0111
887.0,0.0111
886.0,0.0111
885.0,0.0113
884.0,0.0115
883.0,0.0118
882.0,0.0122
881.0,0.0126
880.0,0.0131
879.0,0.0137
878.0,0.0144
877.0,0.0152
876.0,0.016
875.0,0.0169
874.0,0.0177
873.0,0.0182
872.0,0.0184
871.0,0.0184
870.0,0.0181
869.0,0.0176
868.0,0.0171
867.0,0.0165
866.0,0.016
865.0,0.0156
864.0,0.0153
863.0,0.015
862.0,0.0146
861.0,0.0144
860.0,0.0142
859.0,0.0141
858.0,0.0141
857.0,0.0142
856.0,0.0142
855.0,0.0143
854.0,0.0143
853.0,0.0143
852.0,0.0142
851.0,0.0141
850.0,0.0141
849.0,0.0142
848.0,0.0144
847.0,0.0146
846.0,0.0148
845.0,0.015
844.0,0.0151
843.0,0.0152
842.0,0.0152
841.0,0.0152
840.0,0.015
839.0,0.0149
838.0,0.0148
837.0,0.0147
836.0,0.0146
835.0,0.0146
834.0,0.0146
833.0,0.0146
832.0,0.0144
831.0,0.0143
830.0,0.0141
829.0,0.014
828.0,0.0139
827.0,0.0139
826.0,0.0138
825.0,0.0137
824.0,0.0135
823.0,0.0134
822.0,0.0132
821.0,0.0132
820.0,0.0131
819.0,0.0131
818.0,0.013
817.0,0.013
816.0,0.0129
815.0,0.0129
814.0,0.0129
813.0,0.0129
812.0,0.0129
811.0,0.0129
810.0,0.0129
809.0,0.0129
808.0,0.0129
807.0,0.0128
806.0,0.0126
805.0,0.0125
804.0,0.0124
803.0,0.0124
802.0,0.0122
801.0,0.0121
800.0,0.012
799.0,0.012
798.0,0.0121
797.0,0.0124
796.0,0.0129
795.0,0.0133
794.0,0.0137
793.0,0.0139
792.0,0.0139
791.0,0.0139
790.0,0.0137
789.0,0.0135
788.0,0.0133
787.0,0.013
786.0,0.0128
785.0,0.0127
784.0,0.0125
783.0,0.0123
782.0,0.012
781.0,0.0118
780.0,0.0115
779.0,0.0112
778.0,0.0111
777.0,0.0111
776.0,0.0112
775.0,0.0112
774.0,0.0112
773.0,0.0111
772.0,0.0109
771.0,0.0107
770.0,0.0105
769.0,0.0102
768.0,0.0099
767.0,0.0097
766.0,0.0095
765.0,0.0093
764.0,0.0091
763.0,0.0088
762.0,0.0085
761.0,0.0083
760.0,0.0082
759.0,0.008
758.0,0.0077
757.0,0.0074
756.0,0.0072
755.0,0.0069
754.0,0.0066
753.0,0.0064
752.0,0.0061
751.0,0.0059
750.0,0.0058
749.0,0.0058
748.0,0.0058
747.0,0.0057
746.0,0.0057
745.0,0.0056
744.0,0.0058
743.0,0.0061
742.0,0.0068
741.0,0.008
740.0,0.0096
739.0,0.0117
738.0,0.0141
737.0,0.017
736.0,0.0203
735.0,0.0239
734.0,0.0275
733.0,0.0311
732.0,0.0347
731.0,0.0384
730.0,0.0422
729.0,0.0459
728.0,0.0494
727.0,0.0526
726.0,0.0553
725.0,0.0574
724.0,0.0587
723.0,0.0589
722.0,0.0578
721.0,0.0556
720.0,0.0527
719.0,0.0497
718.0,0.047
717.0,0.0448
716.0,0.0428
715.0,0.041
714.0,0.0394
713.0,0.0381
712.0,0.0371
711.0,0.0362
710.0,0.0355
709.0,0.0348
708.0,0.0343
707.0,0.0338
706.0,0.0332
705.0,0.0327
704.0,0.0322
703.0,0.0318
702.0,0.0312
701.0,0.0306
700.0,0.0298
699.0,0.029
698.0,0.0283
697.0,0.0278
696.0,0.0278
695.0,0.0281
694.0,0.0284
693.0,0.0285
692.0,0.0285
691.0,0.0286
690.0,0.0286
689.0,0.0283
688.0,0.0276
687.0,0.0267
686.0,0.0263
685.0,0.0266
684.0,0.0271
683.0,0.027
682.0,0.0262
681.0,0.0251
680.0,0.0245
679.0,0.0245
678.0,0.0247
677.0,0.0246
676.0,0.0242
675.0,0.0239
674.0,0.0239
673.0,0.0241
672.0,0.0243
671.0,0.024
670.0,0.023
669.0,0.0218
668.0,0.0206
667.0,0.0206
666.0,0.0217
665.0,0.0228
664.0,0.0234
663.0,0.0234
662.0,0.0231
661.0,0.0226
660.0,0.022
659.0,0.0216
658.0,0.0214
657.0,0.0213
656.0,0.0212
655.0,0.021
654.0,0.0209
653.0,0.021
652.0,0.0214
651.0,0.0221
650.0,0.0229
649.0,0.0235
648.0,0.0237
647.0,0.0235
646.0,0.0232
645.0,0.0231
644.0,0.023
643.0,0.0224
642.0,0.0215
641.0,0.0204
640.0,0.0199
639.0,0.0199
638.0,0.0203
637.0,0.0208
636.0,0.0211
635.0,0.0211
634.0,0.0209
633.0,0.0205
632.0,0.0204
631.0,0.0206
630.0,0.0211
629.0,0.0218
628.0,0.0226
627.0,0.023
626.0,0.0228
625.0,0.0221
624.0,0.0211
623.0,0.0205
622.0,0.0202
621.0,0.0204
620.0,0.0208
619.0,0.021
618.0,0.0208
617.0,0.0201
616.0,0.0196
615.0,0.0197
614.0,0.0202
613.0,0.0206
612.0,0.0205
611.0,0.0201
610.0,0.0198
609.0,0.0198
608.0,0.02
607.0,0.0204
606.0,0.0212
605.0,0.0227
604.0,0.0243
603.0,0.0252
602.0,0.0248
601.0,0.0238
600.0,0.0234
