nm,Intensity
791.588,4719.9
791.862,4722.1
792.136,4733.8
792.411,4727.7
792.685,4714.7
792.959,4720.2
793.233,4726.7
793.507,4717.3
793.781,4707.4
794.056,4713.5
794.33,4723.1
794.604,4720.4
794.878,4702.1
795.152,4703.7
795.426,4709.4
795.701,4712.9
795.975,4709.1
796.249,4700.9
796.523,4702.4
796.797,4689.5
797.071,4714.3
797.345,4700.4
797.619,4714.4
797.894,4712.3
798.168,4720.4
798.442,4716.5
798.716,4721.9
798.99,4724.8
799.264,4743.4
799.538,4745.8
799.812,4732.3
800.086,4763.3
800.36,4769.7
800.634,4779.4
800.908,4791.8
801.182,4745.6
801.456,4723.9
801.73,4706.8
802.004,4685.2
802.278,4678.8
802.552,4683.2
802.826,4672.3
803.1,4676.9
803.374,4669.3
803.648,4681.4
803.922,4676.0
804.196,4661.6
804.47,4666.8
804.744,4670.5
805.018,4671.7
805.292,4672.3
805.566,4665.8
805.84,4663.3
806.114,4663.9
806.388,4658.1
806.662,4662.0
806.936,4657.9
807.209,4669.3
807.483,4647.0
807.757,4636.7
808.031,4652.3
808.305,4667.9
808.579,4686.4
808.853,4672.7
809.127,4664.6
809.4,4663.7
809.674,4651.5
809.948,4645.3
810.222,4624.4
810.496,4625.9
810.77,4617.4
811.043,4598.0
811.317,4581.5
811.591,4584.2
811.865,4586.3
812.139,4577.3
812.412,4574.3
812.686,4561.4
812.96,4574.0
813.234,4559.4
813.507,4565.6
813.781,4551.8
814.055,4545.4
814.329,4539.4
814.602,4533.2
814.876,4532.1
815.15,4525.9
815.424,4527.1
815.697,4530.2
815.971,4531.6
816.245,4493.8
816.518,4504.9
816.792,4505.6
817.066,4509.7
817.34,4503.8
817.613,4494.0
817.887,4507.6
818.161,4497.6
818.434,4501.9
818.708,4500.9
818.981,4493.7
819.255,4495.0
819.529,4494.7
819.802,4484.4
820.076,4485.8
820.35,4488.3
820.623,4496.0
820.897,4486.5
821.17,4482.5
821.444,4483.6
821.718,4455.4
821.991,4464.2
822.265,4456.7
822.538,4454.4
822.812,4437.1
823.085,4419.4
823.359,4432.7
823.632,4443.7
823.906,4449.7
824.179,4451.7
824.453,4454.2
824.727,4443.1
825.0,4424.4
825.274,4425.2
825.547,4434.4
825.821,4429.2
826.094,4424.2
826.367,4418.9
826.641,4433.0
826.914,4418.0
827.188,4410.1
827.461,4410.5
827.735,4412.9
828.008,4396.1
828.282,4394.1
828.555,4400.2
828.828,4403.7
829.102,4396.7
829.375,4390.3
829.649,4378.1
829.922,4389.1
830.195,4385.3
830.469,4378.5
830.742,4383.7
831.016,4379.3
831.289,4367.0
831.562,4373.0
831.836,4378.2
832.109,4366.7
832.382,4358.6
832.656,4358.4
832.929,4352.2
833.202,4358.4
833.476,4347.4
833.749,4352.1
834.022,4339.9
834.295,4346.6
834.569,4338.5
834.842,4342.2
835.115,4340.5
835.388,4329.1
835.662,4337.2
835.935,4331.5
836.208,4332.9
836.481,4330.7
836.755,4320.2
837.028,4321.3
837.301,4332.3
837.574,4332.8
837.848,4345.3
838.121,4348.2
838.394,4327.7
838.667,4308.3
838.94,4318.1
839.213,4305.4
839.487,4312.8
839.76,4308.1
840.033,4299.8
840.306,4306.9
840.579,4293.0
840.852,4307.6
841.125,4294.0
841.399,4293.5
841.672,4294.7
841.945,4284.0
842.218,4279.2
842.491,4274.9
842.764,4273.5
843.037,4269.8
843.31,4272.9
843.583,4269.7
843.856,4262.8
844.129,4258.2
844.402,4264.5
844.675,4257.9
844.948,4247.8
845.221,4261.7
845.495,4247.1
845.768,4247.4
846.041,4256.0
846.314,4249.9
846.586,4257.6
846.859,4245.8
847.132,4244.5
847.405,4237.7
847.678,4246.4
847.951,4225.6
848.224,4224.9
848.497,4224.4
848.77,4230.4
849.043,4225.4
849.316,4230.5
849.589,4234.6
849.862,4228.4
850.135,4224.9
850.408,4229.9
850.68,4218.2
850.953,4214.6
851.226,4218.1
851.499,4212.2
851.772,4212.1
852.045,4210.6
852.318,4213.3
852.591,4210.5
852.863,4210.7
853.136,4209.5
853.409,4208.5
853.682,4189.5
853.955,4191.6
854.227,4192.2
854.5,4187.6
854.773,4196.6
855.046,4184.7
855.318,4176.3
855.591,4189.4
855.864,4187.5
856.137,4185.7
856.409,4183.7
856.682,4180.1
856.955,4182.3
857.228,4171.8
857.5,4176.2
857.773,4183.3
858.046,4173.4
858.318,4182.9
858.591,4168.8
858.864,4158.0
859.136,4167.2
859.409,4164.0
859.682,4166.6
859.954,4172.3
860.227,4160.8
860.5,4152.2
860.772,4153.9
861.045,4163.0
861.318,4159.0
861.59,4146.3
861.863,4154.5
862.135,4158.3
862.408,4173.5
862.681,4159.0
862.953,4160.4
863.226,4165.5
863.498,4157.5
863.771,4153.5
864.043,4150.4
864.316,4159.9
864.588,4149.3
864.861,4135.9
865.133,4134.1
865.406,4141.7
865.678,4133.4
865.951,4143.2
866.223,4138.0
866.496,4133.8
866.768,4117.2
867.041,4122.7
867.313,4116.8
867.586,4128.5
867.858,4133.1
868.131,4125.0
868.403,4117.5
868.675,4113.0
868.948,4114.3
869.22,4114.8
869.493,4117.6
869.765,4118.5
870.037,4117.5
870.31,4115.2
870.582,4113.2
870.854,4111.4
871.127,4101.3
871.399,4104.7
871.672,4107.2
871.944,4113.0
872.216,4107.7
872.488,4104.1
872.761,4102.2
873.033,4105.7
873.305,4097.6
873.578,4095.1
873.85,4100.8
874.122,4107.8
874.394,4105.5
874.667,4101.8
874.939,4099.5
875.211,4092.2
875.483,4093.2
875.756,4090.9
876.028,4097.2
876.3,4099.7
876.572,4094.6
876.845,4098.2
877.117,4090.6
877.389,4085.5
877.661,4084.2
877.933,4085.6
878.205,4086.7
878.478,4078.3
878.75,4079.5
879.022,4076.9
879.294,4069.0
879.566,4066.3
879.838,4063.2
880.11,4066.0
880.382,4065.9
880.654,4065.3
880.927,4053.9
881.199,4061.8
881.471,4064.2
881.743,4065.7
882.015,4057.8
882.287,4056.7
882.559,4047.9
882.831,4055.0
883.103,4051.5
883.375,4049.3
883.647,4050.3
883.919,4051.8
884.191,4050.2
884.463,4045.4
884.735,4052.7
885.007,4043.8
885.279,4043.1
885.551,4053.1
885.823,4059.2
886.095,4051.3
886.367,4049.3
886.639,4052.1
886.91,4051.3
887.182,4041.7
887.454,4042.2
887.726,4032.4
887.998,4023.1
888.27,4024.7
888.542,4025.3
888.814,4016.0
889.085,4014.5
889.357,4018.0
889.629,4017.9
889.901,4027.1
890.173,4014.4
890.445,4014.6
890.716,4006.8
890.988,4015.6
891.26,4007.9
891.532,4006.3
891.804,4008.6
892.075,4010.3
892.347,4011.3
892.619,4014.3
892.891,4006.4
893.162,4000.1
893.434,3990.4
893.706,3988.8
893.978,3989.5
894.249,3989.9
894.521,3983.7
894.793,3978.1
895.064,3981.0
895.336,3989.2
895.608,3985.6
895.879,3983.9
896.151,3979.7
896.423,3978.7
896.694,3973.4
896.966,3978.1
897.237,3973.7
897.509,3977.6
897.781,3976.1
898.052,3977.6
898.324,3968.1
898.595,3969.4
898.867,3959.1
899.139,3960.2
899.41,3964.0
899.682,3966.6
899.953,3966.5
900.225,3957.7
900.496,3957.3
900.768,3956.1
901.039,3952.1
901.311,3951.3
901.582,3952.4
901.854,3959.8
902.125,3951.5
902.397,3955.3
902.668,3955.5
902.94,3951.3
903.211,3944.2
903.482,3942.3
903.754,3950.2
904.025,3952.1
904.297,3942.5
904.568,3944.5
904.839,3949.8
905.111,3941.0
905.382,3945.2
905.654,3946.5
905.925,3935.3
906.196,3933.9
906.468,3935.3
906.739,3932.1
907.01,3923.9
907.282,3929.5
907.553,3925.9
907.824,3932.8
908.096,3923.5
908.367,3926.2
908.638,3926.1
908.909,3914.9
909.181,3916.4
909.452,3923.1
909.723,3918.2
909.994,3920.2
910.266,3919.0
910.537,3919.7
910.808,3913.8
911.079,3910.9
911.35,3910.8
911.622,3913.2
911.893,3910.4
912.164,3912.8
912.435,3906.2
912.706,3904.5
912.977,3901.5
913.249,3907.0
913.52,3908.2
913.791,3905.8
914.062,3902.4
914.333,3903.4
914.604,3902.5
914.875,3902.0
915.146,3896.2
915.417,3894.5
915.688,3894.9
915.959,3895.4
916.231,3897.0
916.502,3891.7
916.773,3891.2
917.044,3892.9
917.315,3890.4
917.586,3892.5
917.857,3889.5
918.128,3889.1
918.399,3886.5
918.67,3892.4
918.941,3889.2
919.211,3888.6
919.482,3889.3
919.753,3886.5
920.024,3884.1
920.295,3879.4
920.566,3881.1
920.837,3877.5
921.108,3887.1
921.379,3879.5
921.65,3878.6
921.921,3875.0
922.191,3879.8
922.462,3871.7
922.733,3868.6
923.004,3874.8
923.275,3871.9
923.546,3873.4
923.816,3873.9
924.087,3868.7
924.358,3865.5
924.629,3864.7
924.9,3867.6
925.17,3867.1
925.441,3864.2
925.712,3856.2
925.983,3865.4
926.253,3864.3
926.524,3861.0
926.795,3859.4
927.065,3860.8
927.336,3855.3
927.607,3859.8
927.877,3859.6
928.148,3848.8
928.419,3854.1
928.689,3853.0
928.96,3846.5
929.231,3851.6
929.501,3847.2
929.772,3847.8
930.043,3847.6
930.313,3843.4
930.584,3846.4
930.854,3841.9
931.125,3845.9
931.396,3844.9
931.666,3846.6
931.937,3840.2
932.207,3842.3
932.478,3837.4
932.748,3841.1
933.019,3836.9
933.289,3834.1
933.56,3834.8
933.83,3834.6
934.101,3836.5
934.371,3835.8
934.642,3835.0
934.912,3838.4
935.183,3834.1
935.453,3833.4
935.723,3832.7
935.994,3833.6
936.264,3832.9
936.535,3832.4
936.805,3830.3
937.075,3825.6
937.346,3827.6
937.616,3828.5
937.886,3828.6
938.157,3825.9
938.427,3825.6
938.697,3825.2
938.968,3826.4
939.238,3828.1
939.508,3825.9
939.779,3827.4
940.049,3823.2
940.319,3824.4
940.59,3819.5
940.86,3822.7
941.13,3819.4
941.4,3815.8
941.671,3814.6
941.941,3821.1
942.211,3819.4
942.481,3816.2
942.751,3818.3
943.022,3816.0
943.292,3813.4
943.562,3814.8
943.832,3815.1
944.102,3815.0
944.372,3819.1
944.642,3817.1
944.913,3818.1
945.183,3813.8
945.453,3811.9
945.723,3811.1
945.993,3810.6
946.263,3813.4
946.533,3808.7
946.803,3806.8
947.073,3805.2
947.343,3806.7
947.613,3808.9
947.883,3808.1
948.153,3807.8
948.423,3811.3
948.693,3808.6
948.963,3807.7
949.233,3804.6
949.503,3805.0
949.773,3804.0
950.043,3804.1
950.313,3802.2
950.583,3800.0
950.853,3805.5
951.123,3802.1
951.393,3802.4
951.663,3802.2
951.933,3801.6
952.202,3799.0
952.472,3803.0
952.742,3800.8
953.012,3799.8
953.282,3801.1
953.552,3796.6
953.822,3798.7
954.091,3799.9
954.361,3797.9
954.631,3798.5
954.901,3796.0
955.17,3796.4
955.44,3798.8
955.71,3793.0
955.98,3798.6
956.25,3797.5
956.519,3795.7
956.789,3798.3
957.059,3795.9
957.328,3796.4
957.598,3795.7
957.868,3794.9
958.137,3794.1
958.407,3790.0
958.677,3793.8
958.946,3791.0
959.216,3793.0
959.486,3794.8
959.755,3796.2
960.025,3792.6
960.294,3792.4
960.564,3789.6
960.834,3790.2
961.103,3789.5
961.373,3790.4
961.642,3790.3
961.912,3790.2
962.181,3789.5
962.451,3791.2
962.72,3790.4
962.99,3787.9
963.259,3788.9
963.529,3788.6
963.798,3786.9
964.068,3788.0
964.337,3785.0
964.607,3786.2
964.876,3788.2
965.146,3787.9
965.415,3785.8
965.684,3788.5
965.954,3787.7
966.223,3787.9
966.493,3787.5
966.762,3787.1
967.031,3786.9
967.301,3786.5
967.57,3785.3
967.839,3786.1
968.109,3781.2
968.378,3784.2
968.647,3783.9
968.917,3783.3
969.186,3787.6
969.455,3786.3
969.724,3784.9
969.994,3786.7
970.263,3784.6
970.532,3787.7
970.801,3783.5
971.071,3779.9
971.34,3783.4
971.609,3784.9
971.878,3780.3
972.147,3783.6
972.417,3782.9
972.686,3783.4
972.955,3782.9
973.224,3782.0
973.493,3782.5
973.762,3783.0
974.031,3779.6
974.3,3780.8
974.57,3780.5
974.839,3779.1
975.108,3780.2
975.377,3780.0
975.646,3780.0
975.915,3777.8
976.184,3777.3
976.453,3776.4
976.722,3777.0
976.991,3780.7
977.26,3777.8
977.529,3780.6
977.798,3775.7
978.067,3778.0
978.336,3777.1
978.605,3778.3
978.874,3776.1
979.143,3776.2
979.412,3779.3
979.68,3777.7
979.949,3777.0
980.218,3776.3
980.487,3778.4
980.756,3776.7
981.025,3772.9
981.294,3777.5
981.563,3776.9
981.831,3776.0
982.1,3778.2
982.369,3776.2
982.638,3775.3
982.907,3774.6
983.175,3774.6
983.444,3774.9
983.713,3772.6
983.982,3774.0
984.25,3772.7
984.519,3774.7
984.788,3774.2
985.057,3775.2
985.325,3774.3
985.594,3775.8
985.863,3775.3
986.131,3771.0
986.4,3775.5
986.669,3772.5
986.937,3773.5
987.206,3774.3
987.475,3771.6
987.743,3774.3
988.012,3772.0
988.28,3774.5
988.549,3772.0
988.817,3772.4
989.086,3772.4
989.355,3772.6
989.623,3771.9
989.892,3772.5
990.16,3769.8
990.429,3772.4
990.697,3771.8
990.966,3775.6
991.234,3772.2
991.503,3772.5
991.771,3768.8
992.04,3770.0
992.308,3771.7
992.576,3772.4
992.845,3771.8
993.113,3771.7
993.382,3770.5
993.65,3770.9
993.918,3770.8
994.187,3772.2
994.455,3770.5
994.723,3770.4
994.992,3768.8
995.26,3768.6
995.528,3769.0
995.797,3770.1
996.065,3769.1
996.333,3768.8
996.602,3767.6
996.87,3769.1
997.138,3771.2
997.406,3767.5
997.675,3769.4
997.943,3768.2
998.211,3770.5
998.479,3768.4
998.747,3769.3
999.016,3767.9
999.284,3768.4
999.552,3766.9
999.82,3768.2
1000.09,3768.4
1000.36,3767.0
1000.62,3765.8
1000.89,3769.7
1001.16,3765.8
1001.43,3765.3
1001.7,3766.1
1001.97,3767.4
1002.23,3764.3
1002.5,3764.8
1002.77,3768.0
1003.04,3767.6
1003.31,3768.9
1003.57,3767.3
1003.84,3767.5
1004.11,3765.8
1004.38,3765.2
1004.65,3763.7
1004.91,3764.5
1005.18,3763.9
1005.45,3766.5
1005.72,3765.9
1005.98,3765.8
1006.25,3765.2
1006.52,3765.4
1006.79,3765.0
1007.06,3764.7
1007.32,3767.2
1007.59,3764.9
1007.86,3764.3
1008.13,3765.6
1008.4,3765.1
1008.66,3766.4
1008.93,3766.0
1009.2,3764.9
1009.47,3764.2
1009.73,3764.8
1010.0,3764.2
1010.27,3767.7
1010.54,3766.0
1010.81,3765.3
1011.07,3764.7
1011.34,3766.8
1011.61,3766.6
1011.88,3764.6
1012.14,3766.3
1012.41,3766.7
1012.68,3767.2
1012.95,3766.1
1013.21,3768.6
1013.48,3764.1
1013.75,3766.7
1014.02,3767.6
1014.29,3767.0
1014.55,3769.3
1014.82,3765.7
1015.09,3766.2
1015.36,3767.7
1015.62,3768.6
1015.89,3766.6
1016.16,3766.8
1016.43,3766.7
1016.69,3766.4
1016.96,3767.7
1017.23,3766.4
1017.5,3767.9
1017.76,3764.8
1018.03,3765.0
1018.3,3764.3
1018.57,3764.0
1018.83,3764.5
1019.1,3763.0
1019.37,3765.2
1019.63,3762.3
1019.9,3760.9
1020.17,3765.6
1020.44,3765.5
1020.7,3763.2
1020.97,3762.8
1021.24,3762.5
1021.51,3761.3
1021.77,3760.4
1022.04,3762.5
1022.31,3763.9
1022.58,3761.9
1022.84,3761.7
1023.11,3761.6
1023.38,3761.5
1023.64,3763.4
1023.91,3762.7
1024.18,3761.5
1024.45,3761.2
1024.71,3760.3
1024.98,3761.5
1025.25,3762.9
1025.51,3762.1
1025.78,3761.1
1026.05,3760.7
1026.32,3761.5
1026.58,3758.7
1026.85,3761.1
1027.12,3760.0
1027.38,3762.5
1027.65,3759.2
1027.92,3758.8
1028.19,3761.8
1028.45,3758.3
1028.72,3758.2
1028.99,3759.3
1029.25,3760.4
1029.52,3759.2
1029.79,3759.6
1030.05,3761.1
1030.32,3758.6
1030.59,3758.4
1030.85,3760.1
1031.12,3759.2
1031.39,3760.4
1031.66,3758.6
1031.92,3758.3
1032.19,3758.4
1032.46,3756.3
1032.72,3760.2
1032.99,3759.7
1033.26,3759.3
1033.52,3758.0
1033.79,3759.2
1034.06,3757.5
1034.32,3759.3
1034.59,3759.5
1034.86,3758.9
1035.12,3756.6
1035.39,3760.0
1035.66,3759.7
1035.92,3758.2
1036.19,3757.7
1036.46,3758.0
1036.72,3758.5
1036.99,3760.5
1037.26,3756.9
1037.52,3757.6
1037.79,3758.4
1038.06,3757.1
1038.32,3757.2
1038.59,3759.1
1038.86,3760.3
1039.12,3759.2
1039.39,3759.7
1039.66,3758.6
1039.92,3757.0
1040.19,3759.0
1040.46,3759.6
1040.72,3758.1
1040.99,3757.6
1041.26,3759.7
1041.52,3756.9
1041.79,3758.9
1042.06,3757.5
1042.32,3757.4
1042.59,3757.1
1042.86,3759.9
1043.12,3756.9
1043.39,3757.4
1043.65,3757.6
1043.92,3758.6
1044.19,3758.1
1044.45,3759.9
1044.72,3757.8
1044.99,3758.2
1045.25,3758.7
1045.52,3756.3
1045.79,3756.8
1046.05,3758.1
1046.32,3756.1
1046.58,3757.0
1046.85,3758.4
1047.12,3758.7
1047.38,3757.3
1047.65,3756.9
1047.92,3756.5
1048.18,3759.5
1048.45,3758.1
1048.71,3756.4
1048.98,3757.9
1049.25,3756.9
1049.51,3757.3
1049.78,3758.4
1050.04,3759.5
1050.31,3757.9
1050.58,3754.6
1050.84,3756.2
1051.11,3754.7
1051.37,3755.0
1051.64,3758.3
1051.91,3758.3
1052.17,3756.8
1052.44,3759.3
1052.7,3757.6
1052.97,3759.2
1053.24,3755.7
1053.5,3758.7
1053.77,3756.6
1054.03,3758.1
1054.3,3755.4
1054.57,3756.1
1054.83,3756.6
1055.1,3757.4
1055.36,3757.9
1055.63,3757.1
1055.9,3757.0
1056.16,3759.1
1056.43,3755.8
1056.69,3757.0
1056.96,3757.4
1057.23,3755.5
1057.49,3758.1
1057.76,3755.6
1058.02,3757.3
1058.29,3756.8
1058.55,3755.9
1058.82,3756.2
1059.09,3757.3
1059.35,3758.7
1059.62,3755.9
1059.88,3756.1
1060.15,3756.4
1060.41,3758.5
1060.68,3758.3
1060.95,3756.2
1061.21,3756.2
1061.48,3756.6
1061.74,3755.1
1062.01,3755.9
1062.27,3756.8
1062.54,3759.1
1062.8,3757.3
1063.07,3756.8
1063.34,3757.0
1063.6,3756.7
1063.87,3757.5
1064.13,3757.2
1064.4,3755.9
1064.66,3757.2
1064.93,3756.9
1065.19,3758.6
1065.46,3757.7
1065.73,3755.7
1065.99,3754.1
1066.26,3756.7
1066.52,3756.1
1066.79,3757.4
1067.05,3756.7
1067.32,3756.9
1067.58,3756.7
1067.85,3755.5
1068.11,3755.3
