cm-1,A
4000.0,0.003
3999.0,0.003
3998.0,0.003
3997.0,0.0031
3996.0,0.0031
3995.0,0.0032
3994.0,0.0032
3993.0,0.0032
3992.0,0.0031
3991.0,0.0031
3990.0,0.0032
3989.0,0.0032
3988.0,0.0032
3987.0,0.0032
3986.0,0.0032
3985.0,0.0031
3984.0,0.0031
3983.0,0.003
3982.0,0.0029
3981.0,0.0029
3980.0,0.0029
3979.0,0.003
3978.0,0.003
3977.0,0.0031
3976.0,0.0031
3975.0,0.0031
3974.0,0.0031
3973.0,0.0031
3972.0,0.0031
3971.0,0.0031
3970.0,0.003
3969.0,0.003
3968.0,0.0029
3967.0,0.0029
3966.0,0.0029
3965.0,0.0029
3964.0,0.003
3963.0,0.0031
3962.0,0.0032
3961.0,0.0033
3960.0,0.0033
3959.0,0.0034
3958.0,0.0034
3957.0,0.0034
3956.0,0.0033
3955.0,0.0032
3954.0,0.0032
3953.0,0.0031
3952.0,0.0031
3951.0,0.0032
3950.0,0.0032
3949.0,0.0032
3948.0,0.0031
3947.0,0.0031
3946.0,0.003
3945.0,0.003
3944.0,0.0031
3943.0,0.0031
3942.0,0.0031
3941.0,0.0031
3940.0,0.0031
3939.0,0.003
3938.0,0.003
3937.0,0.003
3936.0,0.0031
3935.0,0.0032
3934.0,0.0032
3933.0,0.0032
3932.0,0.0031
3931.0,0.003
3930.0,0.003
3929.0,0.003
3928.0,0.0031
3927.0,0.0032
3926.0,0.0032
3925.0,0.0032
3924.0,0.0032
3923.0,0.0032
3922.0,0.0032
3921.0,0.0033
3920.0,0.0033
3919.0,0.0033
3918.0,0.0033
3917.0,0.0032
3916.0,0.0031
3915.0,0.0031
3914.0,0.0031
3913.0,0.0031
3912.0,0.0031
3911.0,0.0032
3910.0,0.0032
3909.0,0.0031
3908.0,0.0031
3907.0,0.003
3906.0,0.0029
3905.0,0.0029
3904.0,0.0028
3903.0,0.0028
3902.0,0.0028
3901.0,0.0029
3900.0,0.003
3899.0,0.0031
3898.0,0.0032
3897.0,0.0032
3896.0,0.0032
3895.0,0.0031
3894.0,0.0031
3893.0,0.0031
3892.0,0.003
3891.0,0.003
3890.0,0.003
3889.0,0.0031
3888.0,0.0031
3887.0,0.003
3886.0,0.0029
3885.0,0.0029
3884.0,0.0029
3883.0,0.0029
3882.0,0.0029
3881.0,0.0029
3880.0,0.0029
3879.0,0.003
3878.0,0.003
3877.0,0.0031
3876.0,0.003
3875.0,0.003
3874.0,0.003
3873.0,0.003
3872.0,0.0031
3871.0,0.0031
3870.0,0.0031
3869.0,0.0031
3868.0,0.0032
3867.0,0.0032
3866.0,0.0032
3865.0,0.0032
3864.0,0.0031
3863.0,0.003
3862.0,0.0029
3861.0,0.0029
3860.0,0.0029
3859.0,0.0029
3858.0,0.0029
3857.0,0.0029
3856.0,0.003
3855.0,0.0031
3854.0,0.0032
3853.0,0.0032
3852.0,0.0032
3851.0,0.0032
3850.0,0.0032
3849.0,0.0031
3848.0,0.0031
3847.0,0.003
3846.0,0.003
3845.0,0.003
3844.0,0.003
3843.0,0.003
3842.0,0.003
3841.0,0.003
3840.0,0.003
3839.0,0.003
3838.0,0.0029
3837.0,0.0028
3836.0,0.0028
3835.0,0.0028
3834.0,0.0029
3833.0,0.003
3832.0,0.0031
3831.0,0.0032
3830.0,0.0033
3829.0,0.0033
3828.0,0.0033
3827.0,0.0032
3826.0,0.0032
3825.0,0.0031
3824.0,0.003
3823.0,0.0029
3822.0,0.0028
3821.0,0.0027
3820.0,0.0027
3819.0,0.0027
3818.0,0.0027
3817.0,0.0027
3816.0,0.0028
3815.0,0.003
3814.0,0.0031
3813.0,0.0032
3812.0,0.0032
3811.0,0.0032
3810.0,0.0031
3809.0,0.0031
3808.0,0.003
3807.0,0.0028
3806.0,0.0028
3805.0,0.0028
3804.0,0.0028
3803.0,0.0028
3802.0,0.0028
3801.0,0.0029
3800.0,0.003
3799.0,0.0031
3798.0,0.0031
3797.0,0.003
3796.0,0.003
3795.0,0.0031
3794.0,0.0033
3793.0,0.0033
3792.0,0.0033
3791.0,0.0033
3790.0,0.0032
3789.0,0.0032
3788.0,0.0032
3787.0,0.0033
3786.0,0.0033
3785.0,0.0032
3784.0,0.0032
3783.0,0.0032
3782.0,0.0032
3781.0,0.0031
3780.0,0.0031
3779.0,0.003
3778.0,0.0031
3777.0,0.0031
3776.0,0.0031
3775.0,0.0031
3774.0,0.0031
3773.0,0.0031
3772.0,0.0032
3771.0,0.0032
3770.0,0.0032
3769.0,0.0033
3768.0,0.0032
3767.0,0.0032
3766.0,0.0031
3765.0,0.0031
3764.0,0.0031
3763.0,0.0032
3762.0,0.0032
3761.0,0.0032
3760.0,0.0033
3759.0,0.0033
3758.0,0.0033
3757.0,0.0033
3756.0,0.0032
3755.0,0.0031
3754.0,0.0031
3753.0,0.003
3752.0,0.003
3751.0,0.003
3750.0,0.0029
3749.0,0.0029
3748.0,0.003
3747.0,0.003
3746.0,0.0031
3745.0,0.003
3744.0,0.003
3743.0,0.0031
3742.0,0.0032
3741.0,0.0031
3740.0,0.003
3739.0,0.0028
3738.0,0.0026
3737.0,0.0026
3736.0,0.0027
3735.0,0.0028
3734.0,0.0027
3733.0,0.0026
3732.0,0.0026
3731.0,0.0026
3730.0,0.0026
3729.0,0.0026
3728.0,0.0025
3727.0,0.0024
3726.0,0.0025
3725.0,0.0025
3724.0,0.0026
3723.0,0.0026
3722.0,0.0026
3721.0,0.0027
3720.0,0.0029
3719.0,0.003
3718.0,0.003
3717.0,0.003
3716.0,0.0029
3715.0,0.0028
3714.0,0.0028
3713.0,0.0029
3712.0,0.003
3711.0,0.003
3710.0,0.003
3709.0,0.003
3708.0,0.0031
3707.0,0.0031
3706.0,0.0031
3705.0,0.0031
3704.0,0.0031
3703.0,0.003
3702.0,0.0029
3701.0,0.0028
3700.0,0.0029
3699.0,0.0029
3698.0,0.003
3697.0,0.0029
3696.0,0.0029
3695.0,0.0029
3694.0,0.0029
3693.0,0.0029
3692.0,0.0029
3691.0,0.0028
3690.0,0.0028
3689.0,0.0028
3688.0,0.0028
3687.0,0.003
3686.0,0.0031
3685.0,0.0031
3684.0,0.0032
3683.0,0.0032
3682.0,0.0032
3681.0,0.0032
3680.0,0.0031
3679.0,0.0031
3678.0,0.003
3677.0,0.0029
3676.0,0.0028
3675.0,0.0027
3674.0,0.0028
3673.0,0.0029
3672.0,0.003
3671.0,0.0031
3670.0,0.0032
3669.0,0.0033
3668.0,0.0034
3667.0,0.0034
3666.0,0.0034
3665.0,0.0034
3664.0,0.0034
3663.0,0.0034
3662.0,0.0033
3661.0,0.0032
3660.0,0.0032
3659.0,0.0031
3658.0,0.0031
3657.0,0.003
3656.0,0.003
3655.0,0.0031
3654.0,0.0031
3653.0,0.0032
3652.0,0.0032
3651.0,0.0033
3650.0,0.0034
3649.0,0.0034
3648.0,0.0033
3647.0,0.0033
3646.0,0.0034
3645.0,0.0035
3644.0,0.0035
3643.0,0.0035
3642.0,0.0035
3641.0,0.0035
3640.0,0.0034
3639.0,0.0034
3638.0,0.0034
3637.0,0.0033
3636.0,0.0032
3635.0,0.0032
3634.0,0.0032
3633.0,0.0033
3632.0,0.0033
3631.0,0.0033
3630.0,0.0034
3629.0,0.0034
3628.0,0.0034
3627.0,0.0034
3626.0,0.0034
3625.0,0.0034
3624.0,0.0033
3623.0,0.0033
3622.0,0.0032
3621.0,0.003
3620.0,0.0029
3619.0,0.0028
3618.0,0.0029
3617.0,0.0031
3616.0,0.0033
3615.0,0.0035
3614.0,0.0036
3613.0,0.0036
3612.0,0.0036
3611.0,0.0036
3610.0,0.0036
3609.0,0.0036
3608.0,0.0037
3607.0,0.0037
3606.0,0.0037
3605.0,0.0036
3604.0,0.0036
3603.0,0.0036
3602.0,0.0036
3601.0,0.0036
3600.0,0.0035
3599.0,0.0033
3598.0,0.0033
3597.0,0.0033
3596.0,0.0034
3595.0,0.0035
3594.0,0.0036
3593.0,0.0036
3592.0,0.0036
3591.0,0.0036
3590.0,0.0035
3589.0,0.0035
3588.0,0.0035
3587.0,0.0036
3586.0,0.0036
3585.0,0.0036
3584.0,0.0037
3583.0,0.0037
3582.0,0.0038
3581.0,0.0038
3580.0,0.0039
3579.0,0.004
3578.0,0.0041
3577.0,0.0041
3576.0,0.0041
3575.0,0.0041
3574.0,0.0041
3573.0,0.004
3572.0,0.0039
3571.0,0.0038
3570.0,0.0037
3569.0,0.0037
3568.0,0.0039
3567.0,0.004
3566.0,0.0041
3565.0,0.0042
3564.0,0.0041
3563.0,0.0041
3562.0,0.0042
3561.0,0.0042
3560.0,0.0042
3559.0,0.0042
3558.0,0.0042
3557.0,0.0042
3556.0,0.0042
3555.0,0.0042
3554.0,0.0041
3553.0,0.004
3552.0,0.004
3551.0,0.0042
3550.0,0.0043
3549.0,0.0045
3548.0,0.0046
3547.0,0.0046
3546.0,0.0046
3545.0,0.0046
3544.0,0.0046
3543.0,0.0045
3542.0,0.0045
3541.0,0.0045
3540.0,0.0046
3539.0,0.0046
3538.0,0.0047
3537.0,0.0046
3536.0,0.0045
3535.0,0.0045
3534.0,0.0045
3533.0,0.0046
3532.0,0.0046
3531.0,0.0046
3530.0,0.0046
3529.0,0.0046
3528.0,0.0046
3527.0,0.0046
3526.0,0.0046
3525.0,0.0046
3524.0,0.0046
3523.0,0.0047
3522.0,0.0047
3521.0,0.0048
3520.0,0.0049
3519.0,0.0049
3518.0,0.0049
3517.0,0.0049
3516.0,0.0048
3515.0,0.0048
3514.0,0.0048
3513.0,0.0048
3512.0,0.0049
3511.0,0.0049
3510.0,0.0049
3509.0,0.0048
3508.0,0.0048
3507.0,0.0047
3506.0,0.0047
3505.0,0.0047
3504.0,0.0048
3503.0,0.0049
3502.0,0.005
3501.0,0.005
3500.0,0.005
3499.0,0.0049
3498.0,0.0049
3497.0,0.0049
3496.0,0.0049
3495.0,0.0049
3494.0,0.005
3493.0,0.005
3492.0,0.005
3491.0,0.0051
3490.0,0.0051
3489.0,0.0052
3488.0,0.0052
3487.0,0.0052
3486.0,0.0052
3485.0,0.0052
3484.0,0.0052
3483.0,0.0052
3482.0,0.0053
3481.0,0.0053
3480.0,0.0053
3479.0,0.0052
3478.0,0.005
3477.0,0.005
3476.0,0.0049
3475.0,0.005
3474.0,0.005
3473.0,0.0051
3472.0,0.0052
3471.0,0.0053
3470.0,0.0053
3469.0,0.0054
3468.0,0.0054
3467.0,0.0055
3466.0,0.0055
3465.0,0.0055
3464.0,0.0055
3463.0,0.0055
3462.0,0.0055
3461.0,0.0056
3460.0,0.0056
3459.0,0.0057
3458.0,0.0058
3457.0,0.0058
3456.0,0.0058
3455.0,0.0057
3454.0,0.0056
3453.0,0.0056
3452.0,0.0055
3451.0,0.0055
3450.0,0.0055
3449.0,0.0055
3448.0,0.0054
3447.0,0.0053
3446.0,0.0052
3445.0,0.0052
3444.0,0.0053
3443.0,0.0054
3442.0,0.0055
3441.0,0.0057
3440.0,0.0057
3439.0,0.0057
3438.0,0.0057
3437.0,0.0057
3436.0,0.0057
3435.0,0.0057
3434.0,0.0057
3433.0,0.0057
3432.0,0.0056
3431.0,0.0055
3430.0,0.0054
3429.0,0.0054
3428.0,0.0054
3427.0,0.0054
3426.0,0.0054
3425.0,0.0055
3424.0,0.0056
3423.0,0.0058
3422.0,0.0059
3421.0,0.0059
3420.0,0.0059
3419.0,0.0059
3418.0,0.0059
3417.0,0.0059
3416.0,0.0058
3415.0,0.0058
3414.0,0.0057
3413.0,0.0056
3412.0,0.0056
3411.0,0.0057
3410.0,0.0058
3409.0,0.0059
3408.0,0.006
3407.0,0.006
3406.0,0.0059
3405.0,0.0059
3404.0,0.0059
3403.0,0.0059
3402.0,0.006
3401.0,0.006
3400.0,0.006
3399.0,0.006
3398.0,0.006
3397.0,0.0059
3396.0,0.0059
3395.0,0.0058
3394.0,0.0059
3393.0,0.006
3392.0,0.0061
3391.0,0.0061
3390.0,0.0061
3389.0,0.0061
3388.0,0.0061
3387.0,0.006
3386.0,0.006
3385.0,0.006
3384.0,0.006
3383.0,0.006
3382.0,0.0061
3381.0,0.0061
3380.0,0.0061
3379.0,0.0061
3378.0,0.0061
3377.0,0.0061
3376.0,0.0061
3375.0,0.0061
3374.0,0.006
3373.0,0.006
3372.0,0.006
3371.0,0.006
3370.0,0.006
3369.0,0.0061
3368.0,0.006
3367.0,0.006
3366.0,0.006
3365.0,0.006
3364.0,0.0061
3363.0,0.0062
3362.0,0.0063
3361.0,0.0063
3360.0,0.0062
3359.0,0.0062
3358.0,0.0061
3357.0,0.006
3356.0,0.0059
3355.0,0.0059
3354.0,0.006
3353.0,0.0061
3352.0,0.0062
3351.0,0.0062
3350.0,0.0061
3349.0,0.0061
3348.0,0.0061
3347.0,0.006
3346.0,0.006
3345.0,0.006
3344.0,0.006
3343.0,0.006
3342.0,0.006
3341.0,0.006
3340.0,0.0061
3339.0,0.0061
3338.0,0.0061
3337.0,0.0061
3336.0,0.006
3335.0,0.0059
3334.0,0.0059
3333.0,0.006
3332.0,0.006
3331.0,0.0061
3330.0,0.0061
3329.0,0.0061
3328.0,0.0061
3327.0,0.0062
3326.0,0.0062
3325.0,0.0062
3324.0,0.0062
3323.0,0.0061
3322.0,0.006
3321.0,0.006
3320.0,0.006
3319.0,0.006
3318.0,0.0061
3317.0,0.0061
3316.0,0.0061
3315.0,0.006
3314.0,0.006
3313.0,0.006
3312.0,0.0061
3311.0,0.0061
3310.0,0.0061
3309.0,0.0062
3308.0,0.0061
3307.0,0.0061
3306.0,0.006
3305.0,0.006
3304.0,0.006
3303.0,0.006
3302.0,0.0061
3301.0,0.0061
3300.0,0.0062
3299.0,0.0062
3298.0,0.0063
3297.0,0.0063
3296.0,0.0062
3295.0,0.0061
3294.0,0.0061
3293.0,0.006
3292.0,0.0061
3291.0,0.0061
3290.0,0.006
3289.0,0.006
3288.0,0.006
3287.0,0.006
3286.0,0.0061
3285.0,0.0061
3284.0,0.0061
3283.0,0.0061
3282.0,0.0062
3281.0,0.0062
3280.0,0.0063
3279.0,0.0062
3278.0,0.0062
3277.0,0.0061
3276.0,0.006
3275.0,0.006
3274.0,0.006
3273.0,0.0061
3272.0,0.0061
3271.0,0.0062
3270.0,0.0061
3269.0,0.0061
3268.0,0.006
3267.0,0.0061
3266.0,0.0061
3265.0,0.006
3264.0,0.0059
3263.0,0.0058
3262.0,0.0058
3261.0,0.0058
3260.0,0.0059
3259.0,0.006
3258.0,0.006
3257.0,0.0061
3256.0,0.0061
3255.0,0.0061
3254.0,0.0061
3253.0,0.0061
3252.0,0.0061
3251.0,0.0061
3250.0,0.006
3249.0,0.006
3248.0,0.006
3247.0,0.0059
3246.0,0.0059
3245.0,0.006
3244.0,0.0061
3243.0,0.0061
3242.0,0.0062
3241.0,0.0062
3240.0,0.0061
3239.0,0.0061
3238.0,0.006
3237.0,0.0059
3236.0,0.0059
3235.0,0.0059
3234.0,0.0059
3233.0,0.0059
3232.0,0.0059
3231.0,0.0059
3230.0,0.0058
3229.0,0.0058
3228.0,0.0058
3227.0,0.0059
3226.0,0.006
3225.0,0.0061
3224.0,0.0061
3223.0,0.0061
3222.0,0.006
3221.0,0.0059
3220.0,0.0058
3219.0,0.0058
3218.0,0.0059
3217.0,0.0058
3216.0,0.0058
3215.0,0.0058
3214.0,0.0059
3213.0,0.0059
3212.0,0.0059
3211.0,0.0059
3210.0,0.006
3209.0,0.006
3208.0,0.006
3207.0,0.006
3206.0,0.006
3205.0,0.006
3204.0,0.006
3203.0,0.0059
3202.0,0.0059
3201.0,0.0059
3200.0,0.0059
3199.0,0.0058
3198.0,0.0058
3197.0,0.0058
3196.0,0.0057
3195.0,0.0056
3194.0,0.0056
3193.0,0.0056
3192.0,0.0056
3191.0,0.0057
3190.0,0.0059
3189.0,0.0059
3188.0,0.0059
3187.0,0.0059
3186.0,0.0059
3185.0,0.0059
3184.0,0.0058
3183.0,0.0058
3182.0,0.0057
3181.0,0.0056
3180.0,0.0056
3179.0,0.0056
3178.0,0.0056
3177.0,0.0056
3176.0,0.0056
3175.0,0.0057
3174.0,0.0057
3173.0,0.0057
3172.0,0.0057
3171.0,0.0057
3170.0,0.0057
3169.0,0.0057
3168.0,0.0057
3167.0,0.0056
3166.0,0.0056
3165.0,0.0057
3164.0,0.0057
3163.0,0.0058
3162.0,0.0058
3161.0,0.0058
3160.0,0.0058
3159.0,0.0058
3158.0,0.0058
3157.0,0.0058
3156.0,0.0058
3155.0,0.0057
3154.0,0.0056
3153.0,0.0055
3152.0,0.0055
3151.0,0.0055
3150.0,0.0055
3149.0,0.0055
3148.0,0.0054
3147.0,0.0054
3146.0,0.0055
3145.0,0.0055
3144.0,0.0056
3143.0,0.0056
3142.0,0.0056
3141.0,0.0055
3140.0,0.0055
3139.0,0.0055
3138.0,0.0055
3137.0,0.0055
3136.0,0.0055
3135.0,0.0054
3134.0,0.0054
3133.0,0.0053
3132.0,0.0052
3131.0,0.0052
3130.0,0.0053
3129.0,0.0054
3128.0,0.0054
3127.0,0.0055
3126.0,0.0055
3125.0,0.0055
3124.0,0.0055
3123.0,0.0055
3122.0,0.0055
3121.0,0.0055
3120.0,0.0054
3119.0,0.0054
3118.0,0.0053
3117.0,0.0053
3116.0,0.0053
3115.0,0.0053
3114.0,0.0054
3113.0,0.0054
3112.0,0.0054
3111.0,0.0054
3110.0,0.0053
3109.0,0.0052
3108.0,0.0052
3107.0,0.0052
3106.0,0.0051
3105.0,0.0051
3104.0,0.0051
3103.0,0.0051
3102.0,0.0052
3101.0,0.0053
3100.0,0.0053
3099.0,0.0054
3098.0,0.0054
3097.0,0.0053
3096.0,0.0053
3095.0,0.0053
3094.0,0.0053
3093.0,0.0053
3092.0,0.0053
3091.0,0.0052
3090.0,0.0052
3089.0,0.0053
3088.0,0.0053
3087.0,0.0054
3086.0,0.0055
3085.0,0.0056
3084.0,0.0057
3083.0,0.0058
3082.0,0.0058
3081.0,0.0058
3080.0,0.0058
3079.0,0.0057
3078.0,0.0057
3077.0,0.0056
3076.0,0.0056
3075.0,0.0056
3074.0,0.0056
3073.0,0.0055
3072.0,0.0055
3071.0,0.0055
3070.0,0.0054
3069.0,0.0054
3068.0,0.0055
3067.0,0.0056
3066.0,0.0057
3065.0,0.0058
3064.0,0.0059
3063.0,0.0059
3062.0,0.0059
3061.0,0.0059
3060.0,0.0059
3059.0,0.0059
3058.0,0.0058
3057.0,0.0057
3056.0,0.0057
3055.0,0.0057
3054.0,0.0057
3053.0,0.0056
3052.0,0.0055
3051.0,0.0054
3050.0,0.0053
3049.0,0.0053
3048.0,0.0053
3047.0,0.0053
3046.0,0.0053
3045.0,0.0053
3044.0,0.0053
3043.0,0.0053
3042.0,0.0053
3041.0,0.0053
3040.0,0.0053
3039.0,0.0053
3038.0,0.0053
3037.0,0.0054
3036.0,0.0056
3035.0,0.0057
3034.0,0.0058
3033.0,0.006
3032.0,0.0061
3031.0,0.0063
3030.0,0.0065
3029.0,0.0068
3028.0,0.0069
3027.0,0.0069
3026.0,0.0069
3025.0,0.0068
3024.0,0.0068
3023.0,0.0067
3022.0,0.0065
3021.0,0.0063
3020.0,0.0061
3019.0,0.006
3018.0,0.0059
3017.0,0.0058
3016.0,0.0057
3015.0,0.0056
3014.0,0.0054
3013.0,0.0054
3012.0,0.0053
3011.0,0.0053
3010.0,0.0053
3009.0,0.0054
3008.0,0.0054
3007.0,0.0054
3006.0,0.0054
3005.0,0.0054
3004.0,0.0054
3003.0,0.0054
3002.0,0.0054
3001.0,0.0054
3000.0,0.0054
2999.0,0.0054
2998.0,0.0054
2997.0,0.0053
2996.0,0.0053
2995.0,0.0053
2994.0,0.0052
2993.0,0.0053
2992.0,0.0053
2991.0,0.0053
2990.0,0.0053
2989.0,0.0053
2988.0,0.0053
2987.0,0.0053
2986.0,0.0053
2985.0,0.0053
2984.0,0.0054
2983.0,0.0055
2982.0,0.0055
2981.0,0.0055
2980.0,0.0055
2979.0,0.0054
2978.0,0.0054
2977.0,0.0054
2976.0,0.0054
2975.0,0.0054
2974.0,0.0053
2973.0,0.0053
2972.0,0.0053
2971.0,0.0053
2970.0,0.0053
2969.0,0.0054
2968.0,0.0054
2967.0,0.0054
2966.0,0.0054
2965.0,0.0054
2964.0,0.0054
2963.0,0.0054
2962.0,0.0055
2961.0,0.0055
2960.0,0.0056
2959.0,0.0056
2958.0,0.0057
2957.0,0.0057
2956.0,0.0057
2955.0,0.0057
2954.0,0.0058
2953.0,0.0058
2952.0,0.0058
2951.0,0.0058
2950.0,0.0058
2949.0,0.0058
2948.0,0.0059
2947.0,0.006
2946.0,0.0061
2945.0,0.0062
2944.0,0.0063
2943.0,0.0064
2942.0,0.0065
2941.0,0.0065
2940.0,0.0066
2939.0,0.0067
2938.0,0.0068
2937.0,0.0069
2936.0,0.0071
2935.0,0.0073
2934.0,0.0075
2933.0,0.0077
2932.0,0.0078
2931.0,0.0079
2930.0,0.008
2929.0,0.0082
2928.0,0.0084
2927.0,0.0086
2926.0,0.0087
2925.0,0.0088
2924.0,0.0088
2923.0,0.0089
2922.0,0.0089
2921.0,0.0089
2920.0,0.0089
2919.0,0.0088
2918.0,0.0088
2917.0,0.0087
2916.0,0.0086
2915.0,0.0085
2914.0,0.0084
2913.0,0.0083
2912.0,0.0082
2911.0,0.0081
2910.0,0.0081
2909.0,0.008
2908.0,0.0078
2907.0,0.0077
2906.0,0.0075
2905.0,0.0074
2904.0,0.0072
2903.0,0.0072
2902.0,0.007
2901.0,0.0069
2900.0,0.0068
2899.0,0.0068
2898.0,0.0068
2897.0,0.0067
2896.0,0.0067
2895.0,0.0066
2894.0,0.0065
2893.0,0.0065
2892.0,0.0064
2891.0,0.0063
2890.0,0.0061
2889.0,0.006
2888.0,0.006
2887.0,0.006
2886.0,0.006
2885.0,0.006
2884.0,0.006
2883.0,0.006
2882.0,0.006
2881.0,0.006
2880.0,0.006
2879.0,0.006
2878.0,0.006
2877.0,0.006
2876.0,0.006
2875.0,0.006
2874.0,0.006
2873.0,0.006
2872.0,0.006
2871.0,0.006
2870.0,0.006
2869.0,0.006
2868.0,0.006
2867.0,0.006
2866.0,0.0061
2865.0,0.0062
2864.0,0.0062
2863.0,0.0063
2862.0,0.0064
2861.0,0.0064
2860.0,0.0064
2859.0,0.0065
2858.0,0.0066
2857.0,0.0067
2856.0,0.0067
2855.0,0.0068
2854.0,0.0068
2853.0,0.0069
2852.0,0.007
2851.0,0.0071
2850.0,0.0071
2849.0,0.007
2848.0,0.0069
2847.0,0.0068
2846.0,0.0067
2845.0,0.0066
2844.0,0.0065
2843.0,0.0064
2842.0,0.0062
2841.0,0.0061
2840.0,0.0061
2839.0,0.006
2838.0,0.0059
2837.0,0.0058
2836.0,0.0057
2835.0,0.0056
2834.0,0.0056
2833.0,0.0055
2832.0,0.0055
2831.0,0.0055
2830.0,0.0054
2829.0,0.0054
2828.0,0.0053
2827.0,0.0053
2826.0,0.0054
2825.0,0.0054
2824.0,0.0054
2823.0,0.0054
2822.0,0.0053
2821.0,0.0053
2820.0,0.0053
2819.0,0.0053
2818.0,0.0053
2817.0,0.0054
2816.0,0.0054
2815.0,0.0054
2814.0,0.0054
2813.0,0.0054
2812.0,0.0054
2811.0,0.0053
2810.0,0.0052
2809.0,0.0051
2808.0,0.0051
2807.0,0.0052
2806.0,0.0052
2805.0,0.0052
2804.0,0.0053
2803.0,0.0053
2802.0,0.0053
2801.0,0.0052
2800.0,0.0052
2799.0,0.0051
2798.0,0.0051
2797.0,0.0051
2796.0,0.0051
2795.0,0.005
2794.0,0.005
2793.0,0.005
2792.0,0.005
2791.0,0.005
2790.0,0.005
2789.0,0.005
2788.0,0.005
2787.0,0.005
2786.0,0.005
2785.0,0.005
2784.0,0.0051
2783.0,0.0051
2782.0,0.0051
2781.0,0.0051
2780.0,0.0051
2779.0,0.0051
2778.0,0.0051
2777.0,0.0051
2776.0,0.0051
2775.0,0.005
2774.0,0.005
2773.0,0.005
2772.0,0.005
2771.0,0.005
2770.0,0.0051
2769.0,0.0051
2768.0,0.0051
2767.0,0.0051
2766.0,0.0051
2765.0,0.0052
2764.0,0.0052
2763.0,0.0053
2762.0,0.0052
2761.0,0.0052
2760.0,0.0052
2759.0,0.0052
2758.0,0.0052
2757.0,0.0053
2756.0,0.0053
2755.0,0.0052
2754.0,0.0051
2753.0,0.0049
2752.0,0.0049
2751.0,0.0049
2750.0,0.0049
2749.0,0.005
2748.0,0.0051
2747.0,0.0051
2746.0,0.0051
2745.0,0.005
2744.0,0.005
2743.0,0.005
2742.0,0.005
2741.0,0.0051
2740.0,0.0051
2739.0,0.0052
2738.0,0.0052
2737.0,0.0051
2736.0,0.0051
2735.0,0.005
2734.0,0.005
2733.0,0.005
2732.0,0.005
2731.0,0.005
2730.0,0.005
2729.0,0.0049
2728.0,0.0049
2727.0,0.0049
2726.0,0.0049
2725.0,0.0049
2724.0,0.0049
2723.0,0.0049
2722.0,0.0049
2721.0,0.0049
2720.0,0.0049
2719.0,0.005
2718.0,0.005
2717.0,0.005
2716.0,0.005
2715.0,0.0049
2714.0,0.0049
2713.0,0.0049
2712.0,0.0049
2711.0,0.0049
2710.0,0.0049
2709.0,0.0049
2708.0,0.0049
2707.0,0.0049
2706.0,0.0049
2705.0,0.005
2704.0,0.005
2703.0,0.005
2702.0,0.005
2701.0,0.005
2700.0,0.005
2699.0,0.0049
2698.0,0.0049
2697.0,0.005
2696.0,0.005
2695.0,0.005
2694.0,0.005
2693.0,0.0049
2692.0,0.0048
2691.0,0.0048
2690.0,0.0048
2689.0,0.0049
2688.0,0.0049
2687.0,0.0049
2686.0,0.0049
2685.0,0.005
2684.0,0.005
2683.0,0.005
2682.0,0.005
2681.0,0.005
2680.0,0.005
2679.0,0.0049
2678.0,0.0049
2677.0,0.0049
2676.0,0.0049
2675.0,0.005
2674.0,0.005
2673.0,0.0051
2672.0,0.005
2671.0,0.005
2670.0,0.0049
2669.0,0.0049
2668.0,0.0049
2667.0,0.0049
2666.0,0.0049
2665.0,0.0048
2664.0,0.0049
2663.0,0.0049
2662.0,0.0049
2661.0,0.0049
2660.0,0.0049
2659.0,0.0049
2658.0,0.005
2657.0,0.0051
2656.0,0.0051
2655.0,0.0051
2654.0,0.005
2653.0,0.005
2652.0,0.0049
2651.0,0.0048
2650.0,0.0048
2649.0,0.0048
2648.0,0.0048
2647.0,0.0048
2646.0,0.0048
2645.0,0.0049
2644.0,0.0049
2643.0,0.005
2642.0,0.005
2641.0,0.005
2640.0,0.0049
2639.0,0.0049
2638.0,0.0048
2637.0,0.0047
2636.0,0.0047
2635.0,0.0046
2634.0,0.0046
2633.0,0.0048
2632.0,0.0049
2631.0,0.0049
2630.0,0.005
2629.0,0.0049
2628.0,0.0049
2627.0,0.0049
2626.0,0.0049
2625.0,0.0049
2624.0,0.0049
2623.0,0.0048
2622.0,0.0048
2621.0,0.0048
2620.0,0.0048
2619.0,0.0049
2618.0,0.0049
2617.0,0.0049
2616.0,0.0049
2615.0,0.0049
2614.0,0.0049
2613.0,0.0049
2612.0,0.0049
2611.0,0.0049
2610.0,0.0049
2609.0,0.0049
2608.0,0.0049
2607.0,0.0049
2606.0,0.0049
2605.0,0.0049
2604.0,0.0049
2603.0,0.0049
2602.0,0.0049
2601.0,0.0049
2600.0,0.005
2599.0,0.005
2598.0,0.0049
2597.0,0.0049
2596.0,0.0049
2595.0,0.0049
2594.0,0.0048
2593.0,0.0049
2592.0,0.0049
2591.0,0.005
2590.0,0.005
2589.0,0.005
2588.0,0.005
2587.0,0.005
2586.0,0.005
2585.0,0.0049
2584.0,0.0048
2583.0,0.0047
2582.0,0.0047
2581.0,0.0047
2580.0,0.0048
2579.0,0.0048
2578.0,0.0049
2577.0,0.0048
2576.0,0.0048
2575.0,0.0047
2574.0,0.0047
2573.0,0.0047
2572.0,0.0047
2571.0,0.0047
2570.0,0.0047
2569.0,0.0047
2568.0,0.0048
2567.0,0.0048
2566.0,0.0048
2565.0,0.0048
2564.0,0.0048
2563.0,0.0048
2562.0,0.0048
2561.0,0.0049
2560.0,0.0049
2559.0,0.0049
2558.0,0.0049
2557.0,0.0049
2556.0,0.0049
2555.0,0.0048
2554.0,0.0048
2553.0,0.0048
2552.0,0.0047
2551.0,0.0047
2550.0,0.0047
2549.0,0.0047
2548.0,0.0048
2547.0,0.0048
2546.0,0.0048
2545.0,0.0048
2544.0,0.0048
2543.0,0.0048
2542.0,0.0048
2541.0,0.0048
2540.0,0.0047
2539.0,0.0047
2538.0,0.0046
2537.0,0.0046
2536.0,0.0047
2535.0,0.0047
2534.0,0.0048
2533.0,0.0048
2532.0,0.0049
2531.0,0.0049
2530.0,0.0049
2529.0,0.0048
2528.0,0.0048
2527.0,0.0047
2526.0,0.0047
2525.0,0.0047
2524.0,0.0048
2523.0,0.0048
2522.0,0.0049
2521.0,0.0049
2520.0,0.0049
2519.0,0.0048
2518.0,0.0048
2517.0,0.0048
2516.0,0.0048
2515.0,0.0049
2514.0,0.0049
2513.0,0.0049
2512.0,0.0049
2511.0,0.0048
2510.0,0.0047
2509.0,0.0047
2508.0,0.0047
2507.0,0.0048
2506.0,0.0048
2505.0,0.0048
2504.0,0.0048
2503.0,0.0048
2502.0,0.0048
2501.0,0.0049
2500.0,0.0049
2499.0,0.0049
2498.0,0.0049
2497.0,0.0049
2496.0,0.0049
2495.0,0.0049
2494.0,0.0049
2493.0,0.0048
2492.0,0.0048
2491.0,0.0047
2490.0,0.0047
2489.0,0.0046
2488.0,0.0047
2487.0,0.0047
2486.0,0.0048
2485.0,0.0048
2484.0,0.0048
2483.0,0.0048
2482.0,0.0048
2481.0,0.0048
2480.0,0.0048
2479.0,0.0048
2478.0,0.0047
2477.0,0.0047
2476.0,0.0046
2475.0,0.0046
2474.0,0.0046
2473.0,0.0047
2472.0,0.0047
2471.0,0.0048
2470.0,0.0048
2469.0,0.0047
2468.0,0.0047
2467.0,0.0047
2466.0,0.0047
2465.0,0.0048
2464.0,0.0048
2463.0,0.0049
2462.0,0.0049
2461.0,0.0049
2460.0,0.0049
2459.0,0.0049
2458.0,0.0049
2457.0,0.0049
2456.0,0.0048
2455.0,0.0048
2454.0,0.0048
2453.0,0.0048
2452.0,0.0049
2451.0,0.005
2450.0,0.005
2449.0,0.005
2448.0,0.005
2447.0,0.005
2446.0,0.0049
2445.0,0.0048
2444.0,0.0048
2443.0,0.0048
2442.0,0.0048
2441.0,0.0049
2440.0,0.0049
2439.0,0.005
2438.0,0.0049
2437.0,0.0049
2436.0,0.0049
2435.0,0.0049
2434.0,0.0049
2433.0,0.0049
2432.0,0.0049
2431.0,0.0049
2430.0,0.005
2429.0,0.005
2428.0,0.005
2427.0,0.0049
2426.0,0.0049
2425.0,0.0049
2424.0,0.0049
2423.0,0.0049
2422.0,0.0049
2421.0,0.0049
2420.0,0.005
2419.0,0.005
2418.0,0.005
2417.0,0.0049
2416.0,0.0048
2415.0,0.0048
2414.0,0.0047
2413.0,0.0047
2412.0,0.0047
2411.0,0.0048
2410.0,0.0048
2409.0,0.0048
2408.0,0.0048
2407.0,0.0049
2406.0,0.0049
2405.0,0.0049
2404.0,0.0049
2403.0,0.0048
2402.0,0.0048
2401.0,0.0048
2400.0,0.0049
2399.0,0.0049
2398.0,0.0049
2397.0,0.0048
2396.0,0.0048
2395.0,0.0048
2394.0,0.0047
2393.0,0.0047
2392.0,0.0048
2391.0,0.0048
2390.0,0.0048
2389.0,0.0048
2388.0,0.0048
2387.0,0.0049
2386.0,0.0049
2385.0,0.0049
2384.0,0.0048
2383.0,0.0048
2382.0,0.0047
2381.0,0.0045
2380.0,0.0044
2379.0,0.0043
2378.0,0.0044
2377.0,0.0045
2376.0,0.0046
2375.0,0.0045
2374.0,0.0043
2373.0,0.0039
2372.0,0.0036
2371.0,0.0036
2370.0,0.0039
2369.0,0.0045
2368.0,0.0048
2367.0,0.0044
2366.0,0.0029
2365.0,0.0013
2364.0,0.0012
2363.0,0.0026
2362.0,0.0046
2361.0,0.0056
2360.0,0.0056
2359.0,0.0054
2358.0,0.0051
2357.0,0.0044
2356.0,0.0034
2355.0,0.0025
2354.0,0.0017
2353.0,0.0014
2352.0,0.0015
2351.0,0.0018
2350.0,0.0021
2349.0,0.0023
2348.0,0.0025
2347.0,0.0025
2346.0,0.0021
2345.0,0.0016
2344.0,0.0016
2343.0,0.0023
2342.0,0.0028
2341.0,0.0028
2340.0,0.0022
2339.0,0.0018
2338.0,0.0015
2337.0,0.0013
2336.0,0.0013
2335.0,0.0013
2334.0,0.0012
2333.0,0.0009
2332.0,0.0004
2331.0,-0.0001
2330.0,-0.0002
2329.0,0.0001
2328.0,0.0008
2327.0,0.0014
2326.0,0.0018
2325.0,0.0021
2324.0,0.0024
2323.0,0.0029
2322.0,0.0034
2321.0,0.0039
2320.0,0.0042
2319.0,0.0044
2318.0,0.0045
2317.0,0.0044
2316.0,0.0044
2315.0,0.0045
2314.0,0.0046
2313.0,0.0047
2312.0,0.0048
2311.0,0.0048
2310.0,0.0047
2309.0,0.0047
2308.0,0.0047
2307.0,0.0048
2306.0,0.0048
2305.0,0.0047
2304.0,0.0046
2303.0,0.0046
2302.0,0.0046
2301.0,0.0046
2300.0,0.0047
2299.0,0.0048
2298.0,0.0049
2297.0,0.0049
2296.0,0.0049
2295.0,0.0049
2294.0,0.0048
2293.0,0.0048
2292.0,0.0049
2291.0,0.0049
2290.0,0.0049
2289.0,0.005
2288.0,0.005
2287.0,0.005
2286.0,0.005
2285.0,0.005
2284.0,0.0049
2283.0,0.0049
2282.0,0.0049
2281.0,0.0049
2280.0,0.0049
2279.0,0.0049
2278.0,0.0049
2277.0,0.0048
2276.0,0.0048
2275.0,0.0048
2274.0,0.0048
2273.0,0.0047
2272.0,0.0047
2271.0,0.0047
2270.0,0.0048
2269.0,0.0047
2268.0,0.0047
2267.0,0.0047
2266.0,0.0047
2265.0,0.0047
2264.0,0.0047
2263.0,0.0047
2262.0,0.0048
2261.0,0.0048
2260.0,0.0049
2259.0,0.005
2258.0,0.005
2257.0,0.005
2256.0,0.005
2255.0,0.005
2254.0,0.0049
2253.0,0.0049
2252.0,0.0049
2251.0,0.0049
2250.0,0.0049
2249.0,0.0049
2248.0,0.0049
2247.0,0.0048
2246.0,0.0048
2245.0,0.0049
2244.0,0.0049
2243.0,0.0049
2242.0,0.0049
2241.0,0.0049
2240.0,0.0049
2239.0,0.0049
2238.0,0.0049
2237.0,0.0049
2236.0,0.0049
2235.0,0.0049
2234.0,0.0049
2233.0,0.0049
2232.0,0.0049
2231.0,0.0049
2230.0,0.0049
2229.0,0.0049
2228.0,0.0049
2227.0,0.005
2226.0,0.005
2225.0,0.005
2224.0,0.005
2223.0,0.005
2222.0,0.005
2221.0,0.0049
2220.0,0.0049
2219.0,0.0049
2218.0,0.005
2217.0,0.005
2216.0,0.005
2215.0,0.005
2214.0,0.005
2213.0,0.005
2212.0,0.005
2211.0,0.005
2210.0,0.005
2209.0,0.0051
2208.0,0.0051
2207.0,0.0051
2206.0,0.0052
2205.0,0.0052
2204.0,0.0051
2203.0,0.0051
2202.0,0.005
2201.0,0.005
2200.0,0.0049
2199.0,0.0049
2198.0,0.0049
2197.0,0.0049
2196.0,0.0049
2195.0,0.0049
2194.0,0.0049
2193.0,0.0049
2192.0,0.0049
2191.0,0.0049
2190.0,0.0049
2189.0,0.0049
2188.0,0.005
2187.0,0.005
2186.0,0.005
2185.0,0.0049
2184.0,0.0049
2183.0,0.0049
2182.0,0.0049
2181.0,0.0049
2180.0,0.005
2179.0,0.005
2178.0,0.0051
2177.0,0.0051
2176.0,0.005
2175.0,0.005
2174.0,0.005
2173.0,0.005
2172.0,0.0051
2171.0,0.0051
2170.0,0.0052
2169.0,0.0052
2168.0,0.0052
2167.0,0.0051
2166.0,0.0051
2165.0,0.0051
2164.0,0.0051
2163.0,0.0051
2162.0,0.0051
2161.0,0.0051
2160.0,0.005
2159.0,0.005
2158.0,0.005
2157.0,0.005
2156.0,0.0051
2155.0,0.0051
2154.0,0.0051
2153.0,0.0051
2152.0,0.0051
2151.0,0.0051
2150.0,0.0051
2149.0,0.0051
2148.0,0.0051
2147.0,0.0051
2146.0,0.0051
2145.0,0.005
2144.0,0.005
2143.0,0.005
2142.0,0.005
2141.0,0.005
2140.0,0.0051
2139.0,0.0051
2138.0,0.0051
2137.0,0.0051
2136.0,0.005
2135.0,0.005
2134.0,0.0051
2133.0,0.0051
2132.0,0.0051
2131.0,0.0051
2130.0,0.005
2129.0,0.005
2128.0,0.005
2127.0,0.005
2126.0,0.005
2125.0,0.0051
2124.0,0.0051
2123.0,0.0051
2122.0,0.0051
2121.0,0.0051
2120.0,0.0051
2119.0,0.0051
2118.0,0.005
2117.0,0.005
2116.0,0.005
2115.0,0.005
2114.0,0.005
2113.0,0.005
2112.0,0.0051
2111.0,0.0051
2110.0,0.0051
2109.0,0.0051
2108.0,0.0051
2107.0,0.0051
2106.0,0.0051
2105.0,0.0051
2104.0,0.0051
2103.0,0.0051
2102.0,0.0051
2101.0,0.0052
2100.0,0.0052
2099.0,0.0051
2098.0,0.0051
2097.0,0.0051
2096.0,0.005
2095.0,0.005
2094.0,0.005
2093.0,0.0051
2092.0,0.0051
2091.0,0.0051
2090.0,0.005
2089.0,0.005
2088.0,0.005
2087.0,0.0051
2086.0,0.0052
2085.0,0.0052
2084.0,0.0051
2083.0,0.0051
2082.0,0.0052
2081.0,0.0052
2080.0,0.0053
2079.0,0.0052
2078.0,0.0052
2077.0,0.0052
2076.0,0.0052
2075.0,0.0052
2074.0,0.0052
2073.0,0.0052
2072.0,0.0052
2071.0,0.0051
2070.0,0.0051
2069.0,0.0051
2068.0,0.0051
2067.0,0.0051
2066.0,0.0051
2065.0,0.0051
2064.0,0.0052
2063.0,0.0052
2062.0,0.0052
2061.0,0.0052
2060.0,0.0052
2059.0,0.0052
2058.0,0.0052
2057.0,0.0052
2056.0,0.0052
2055.0,0.0051
2054.0,0.0051
2053.0,0.0052
2052.0,0.0052
2051.0,0.0053
2050.0,0.0053
2049.0,0.0052
2048.0,0.0052
2047.0,0.0053
2046.0,0.0053
2045.0,0.0053
2044.0,0.0053
2043.0,0.0052
2042.0,0.0052
2041.0,0.0052
2040.0,0.0052
2039.0,0.0052
2038.0,0.0052
2037.0,0.0052
2036.0,0.0052
2035.0,0.0052
2034.0,0.0052
2033.0,0.0052
2032.0,0.0052
2031.0,0.0052
2030.0,0.0052
2029.0,0.0053
2028.0,0.0053
2027.0,0.0053
2026.0,0.0053
2025.0,0.0053
2024.0,0.0053
2023.0,0.0053
2022.0,0.0052
2021.0,0.0052
2020.0,0.0052
2019.0,0.0052
2018.0,0.0051
2017.0,0.0051
2016.0,0.0051
2015.0,0.0052
2014.0,0.0052
2013.0,0.0052
2012.0,0.0052
2011.0,0.0052
2010.0,0.0053
2009.0,0.0053
2008.0,0.0052
2007.0,0.0052
2006.0,0.0052
2005.0,0.0053
2004.0,0.0053
2003.0,0.0053
2002.0,0.0053
2001.0,0.0053
2000.0,0.0053
1999.0,0.0052
1998.0,0.0053
1997.0,0.0053
1996.0,0.0053
1995.0,0.0053
1994.0,0.0053
1993.0,0.0053
1992.0,0.0053
1991.0,0.0053
1990.0,0.0053
1989.0,0.0053
1988.0,0.0053
1987.0,0.0053
1986.0,0.0053
1985.0,0.0053
1984.0,0.0053
1983.0,0.0053
1982.0,0.0053
1981.0,0.0053
1980.0,0.0054
1979.0,0.0054
1978.0,0.0054
1977.0,0.0054
1976.0,0.0054
1975.0,0.0054
1974.0,0.0053
1973.0,0.0053
1972.0,0.0053
1971.0,0.0053
1970.0,0.0053
1969.0,0.0053
1968.0,0.0053
1967.0,0.0053
1966.0,0.0053
1965.0,0.0053
1964.0,0.0053
1963.0,0.0054
1962.0,0.0054
1961.0,0.0053
1960.0,0.0053
1959.0,0.0053
1958.0,0.0053
1957.0,0.0054
1956.0,0.0054
1955.0,0.0055
1954.0,0.0055
1953.0,0.0056
1952.0,0.0056
1951.0,0.0056
1950.0,0.0056
1949.0,0.0056
1948.0,0.0056
1947.0,0.0056
1946.0,0.0056
1945.0,0.0056
1944.0,0.0055
1943.0,0.0055
1942.0,0.0055
1941.0,0.0056
1940.0,0.0056
1939.0,0.0057
1938.0,0.0057
1937.0,0.0056
1936.0,0.0056
1935.0,0.0056
1934.0,0.0056
1933.0,0.0056
1932.0,0.0055
1931.0,0.0055
1930.0,0.0055
1929.0,0.0054
1928.0,0.0054
1927.0,0.0054
1926.0,0.0054
1925.0,0.0054
1924.0,0.0054
1923.0,0.0055
1922.0,0.0055
1921.0,0.0055
1920.0,0.0055
1919.0,0.0055
1918.0,0.0054
1917.0,0.0054
1916.0,0.0053
1915.0,0.0053
1914.0,0.0053
1913.0,0.0054
1912.0,0.0054
1911.0,0.0054
1910.0,0.0054
1909.0,0.0054
1908.0,0.0055
1907.0,0.0054
1906.0,0.0054
1905.0,0.0054
1904.0,0.0054
1903.0,0.0054
1902.0,0.0054
1901.0,0.0054
1900.0,0.0054
1899.0,0.0054
1898.0,0.0055
1897.0,0.0055
1896.0,0.0055
1895.0,0.0055
1894.0,0.0054
1893.0,0.0054
1892.0,0.0054
1891.0,0.0054
1890.0,0.0054
1889.0,0.0055
1888.0,0.0055
1887.0,0.0056
1886.0,0.0055
1885.0,0.0055
1884.0,0.0055
1883.0,0.0055
1882.0,0.0055
1881.0,0.0056
1880.0,0.0056
1879.0,0.0056
1878.0,0.0057
1877.0,0.0058
1876.0,0.0058
1875.0,0.0057
1874.0,0.0057
1873.0,0.0056
1872.0,0.0056
1871.0,0.0057
1870.0,0.0057
1869.0,0.0057
1868.0,0.0057
1867.0,0.0057
1866.0,0.0058
1865.0,0.0058
1864.0,0.0057
1863.0,0.0057
1862.0,0.0056
1861.0,0.0055
1860.0,0.0055
1859.0,0.0055
1858.0,0.0055
1857.0,0.0055
1856.0,0.0055
1855.0,0.0055
1854.0,0.0055
1853.0,0.0055
1852.0,0.0055
1851.0,0.0055
1850.0,0.0055
1849.0,0.0054
1848.0,0.0055
1847.0,0.0056
1846.0,0.0056
1845.0,0.0057
1844.0,0.0056
1843.0,0.0055
1842.0,0.0054
1841.0,0.0054
1840.0,0.0053
1839.0,0.0053
1838.0,0.0054
1837.0,0.0054
1836.0,0.0054
1835.0,0.0055
1834.0,0.0055
1833.0,0.0055
1832.0,0.0055
1831.0,0.0055
1830.0,0.0055
1829.0,0.0055
1828.0,0.0055
1827.0,0.0056
1826.0,0.0056
1825.0,0.0056
1824.0,0.0057
1823.0,0.0057
1822.0,0.0057
1821.0,0.0056
1820.0,0.0056
1819.0,0.0056
1818.0,0.0056
1817.0,0.0056
1816.0,0.0056
1815.0,0.0056
1814.0,0.0055
1813.0,0.0055
1812.0,0.0055
1811.0,0.0056
1810.0,0.0056
1809.0,0.0057
1808.0,0.0058
1807.0,0.0059
1806.0,0.0059
1805.0,0.0059
1804.0,0.0059
1803.0,0.0058
1802.0,0.0058
1801.0,0.0058
1800.0,0.0058
1799.0,0.0058
1798.0,0.0058
1797.0,0.0058
1796.0,0.0058
1795.0,0.0058
1794.0,0.0058
1793.0,0.0058
1792.0,0.0057
1791.0,0.0057
1790.0,0.0056
1789.0,0.0056
1788.0,0.0056
1787.0,0.0056
1786.0,0.0056
1785.0,0.0057
1784.0,0.0057
1783.0,0.0057
1782.0,0.0057
1781.0,0.0057
1780.0,0.0057
1779.0,0.0057
1778.0,0.0056
1777.0,0.0056
1776.0,0.0056
1775.0,0.0057
1774.0,0.0057
1773.0,0.0057
1772.0,0.0057
1771.0,0.0058
1770.0,0.0058
1769.0,0.0058
1768.0,0.0057
1767.0,0.0057
1766.0,0.0057
1765.0,0.0057
1764.0,0.0057
1763.0,0.0057
1762.0,0.0057
1761.0,0.0058
1760.0,0.0058
1759.0,0.0058
1758.0,0.0058
1757.0,0.0059
1756.0,0.006
1755.0,0.006
1754.0,0.006
1753.0,0.0061
1752.0,0.0061
1751.0,0.0061
1750.0,0.0062
1749.0,0.0062
1748.0,0.0062
1747.0,0.0062
1746.0,0.0063
1745.0,0.0063
1744.0,0.0063
1743.0,0.0063
1742.0,0.0063
1741.0,0.0064
1740.0,0.0064
1739.0,0.0065
1738.0,0.0065
1737.0,0.0065
1736.0,0.0065
1735.0,0.0064
1734.0,0.0063
1733.0,0.0062
1732.0,0.0062
1731.0,0.0063
1730.0,0.0063
1729.0,0.0063
1728.0,0.0064
1727.0,0.0064
1726.0,0.0064
1725.0,0.0065
1724.0,0.0065
1723.0,0.0065
1722.0,0.0064
1721.0,0.0064
1720.0,0.0064
1719.0,0.0064
1718.0,0.0063
1717.0,0.0063
1716.0,0.0063
1715.0,0.0064
1714.0,0.0064
1713.0,0.0065
1712.0,0.0065
1711.0,0.0064
1710.0,0.0064
1709.0,0.0064
1708.0,0.0064
1707.0,0.0064
1706.0,0.0064
1705.0,0.0064
1704.0,0.0065
1703.0,0.0066
1702.0,0.0066
1701.0,0.0066
1700.0,0.0066
1699.0,0.0066
1698.0,0.0067
1697.0,0.0067
1696.0,0.0067
1695.0,0.0067
1694.0,0.0067
1693.0,0.0067
1692.0,0.0067
1691.0,0.0066
1690.0,0.0067
1689.0,0.0067
1688.0,0.0068
1687.0,0.0069
1686.0,0.007
1685.0,0.0071
1684.0,0.0072
1683.0,0.0073
1682.0,0.0073
1681.0,0.0073
1680.0,0.0073
1679.0,0.0073
1678.0,0.0074
1677.0,0.0074
1676.0,0.0074
1675.0,0.0074
1674.0,0.0073
1673.0,0.0074
1672.0,0.0074
1671.0,0.0076
1670.0,0.0077
1669.0,0.0077
1668.0,0.0076
1667.0,0.0076
1666.0,0.0076
1665.0,0.0076
1664.0,0.0076
1663.0,0.0076
1662.0,0.0077
1661.0,0.0078
1660.0,0.0078
1659.0,0.0078
1658.0,0.0078
1657.0,0.0078
1656.0,0.0078
1655.0,0.0078
1654.0,0.0078
1653.0,0.0079
1652.0,0.0079
1651.0,0.008
1650.0,0.008
1649.0,0.0081
1648.0,0.0081
1647.0,0.0082
1646.0,0.0082
1645.0,0.0083
1644.0,0.0083
1643.0,0.0082
1642.0,0.0082
1641.0,0.0082
1640.0,0.0083
1639.0,0.0083
1638.0,0.0084
1637.0,0.0085
1636.0,0.0087
1635.0,0.0087
1634.0,0.0087
1633.0,0.0087
1632.0,0.0087
1631.0,0.0088
1630.0,0.0088
1629.0,0.0088
1628.0,0.0089
1627.0,0.009
1626.0,0.0091
1625.0,0.0091
1624.0,0.0092
1623.0,0.0093
1622.0,0.0094
1621.0,0.0094
1620.0,0.0095
1619.0,0.0095
1618.0,0.0095
1617.0,0.0098
1616.0,0.01
1615.0,0.0103
1614.0,0.0104
1613.0,0.0105
1612.0,0.0107
1611.0,0.0108
1610.0,0.0111
1609.0,0.0113
1608.0,0.0116
1607.0,0.0119
1606.0,0.0123
1605.0,0.0126
1604.0,0.013
1603.0,0.0135
1602.0,0.0138
1601.0,0.0139
1600.0,0.014
1599.0,0.014
1598.0,0.0139
1597.0,0.0138
1596.0,0.0137
1595.0,0.0136
1594.0,0.0135
1593.0,0.0134
1592.0,0.0134
1591.0,0.0134
1590.0,0.0134
1589.0,0.0134
1588.0,0.0134
1587.0,0.0135
1586.0,0.0136
1585.0,0.0136
1584.0,0.0136
1583.0,0.0136
1582.0,0.0135
1581.0,0.0133
1580.0,0.0131
1579.0,0.013
1578.0,0.0127
1577.0,0.0125
1576.0,0.0123
1575.0,0.0121
1574.0,0.012
1573.0,0.0119
1572.0,0.0117
1571.0,0.0115
1570.0,0.0114
1569.0,0.0114
1568.0,0.0113
1567.0,0.0113
1566.0,0.0112
1565.0,0.0112
1564.0,0.0112
1563.0,0.0112
1562.0,0.0112
1561.0,0.0111
1560.0,0.011
1559.0,0.0111
1558.0,0.0108
1557.0,0.0106
1556.0,0.0104
1555.0,0.0102
1554.0,0.01
1553.0,0.0099
1552.0,0.0098
1551.0,0.0098
1550.0,0.0096
1549.0,0.0095
1548.0,0.0093
1547.0,0.0093
1546.0,0.0092
1545.0,0.0092
1544.0,0.0092
1543.0,0.0091
1542.0,0.009
1541.0,0.0088
1540.0,0.0087
1539.0,0.0086
1538.0,0.0085
1537.0,0.0085
1536.0,0.0085
1535.0,0.0084
1534.0,0.0082
1533.0,0.0081
1532.0,0.0081
1531.0,0.0081
1530.0,0.008
1529.0,0.008
1528.0,0.008
1527.0,0.008
1526.0,0.008
1525.0,0.008
1524.0,0.008
1523.0,0.008
1522.0,0.008
1521.0,0.0078
1520.0,0.0077
1519.0,0.0077
1518.0,0.0077
1517.0,0.0077
1516.0,0.0076
1515.0,0.0076
1514.0,0.0076
1513.0,0.0076
1512.0,0.0076
1511.0,0.0076
1510.0,0.0076
1509.0,0.0076
1508.0,0.0076
1507.0,0.0077
1506.0,0.0076
1505.0,0.0075
1504.0,0.0076
1503.0,0.0076
1502.0,0.0077
1501.0,0.0078
1500.0,0.008
1499.0,0.0084
1498.0,0.0091
1497.0,0.0104
1496.0,0.0119
1495.0,0.0131
1494.0,0.014
1493.0,0.0145
1492.0,0.0144
1491.0,0.0137
1490.0,0.0125
1489.0,0.0114
1488.0,0.0106
1487.0,0.0101
1486.0,0.0098
1485.0,0.0096
1484.0,0.0093
1483.0,0.0092
1482.0,0.009
1481.0,0.0089
1480.0,0.0088
1479.0,0.0088
1478.0,0.0087
1477.0,0.0087
1476.0,0.0087
1475.0,0.0087
1474.0,0.0087
1473.0,0.0088
1472.0,0.0089
1471.0,0.009
1470.0,0.0089
1469.0,0.0089
1468.0,0.0089
1467.0,0.0089
1466.0,0.0089
1465.0,0.009
1464.0,0.0091
1463.0,0.0092
1462.0,0.0092
1461.0,0.0091
1460.0,0.0092
1459.0,0.0094
1458.0,0.01
1457.0,0.0114
1456.0,0.0128
1455.0,0.0139
1454.0,0.0147
1453.0,0.0153
1452.0,0.0156
1451.0,0.0154
1450.0,0.015
1449.0,0.0145
1448.0,0.0139
1447.0,0.0135
1446.0,0.013
1445.0,0.0127
1444.0,0.0123
1443.0,0.0119
1442.0,0.0116
1441.0,0.0114
1440.0,0.0113
1439.0,0.0111
1438.0,0.011
1437.0,0.0108
1436.0,0.0106
1435.0,0.0104
1434.0,0.0103
1433.0,0.0102
1432.0,0.0101
1431.0,0.0101
1430.0,0.0101
1429.0,0.0101
1428.0,0.0101
1427.0,0.0101
1426.0,0.0102
1425.0,0.0102
1424.0,0.0103
1423.0,0.0104
1422.0,0.0104
1421.0,0.0104
1420.0,0.0104
1419.0,0.0105
1418.0,0.0106
1417.0,0.0105
1416.0,0.0105
1415.0,0.0104
1414.0,0.0104
1413.0,0.0103
1412.0,0.0102
1411.0,0.0102
1410.0,0.0102
1409.0,0.0101
1408.0,0.0101
1407.0,0.0101
1406.0,0.01
1405.0,0.01
1404.0,0.0099
1403.0,0.0098
1402.0,0.0098
1401.0,0.0098
1400.0,0.0098
1399.0,0.0098
1398.0,0.0097
1397.0,0.0097
1396.0,0.0097
1395.0,0.0098
1394.0,0.0098
1393.0,0.0098
1392.0,0.0097
1391.0,0.0097
1390.0,0.0097
1389.0,0.0098
1388.0,0.0098
1387.0,0.0099
1386.0,0.0099
1385.0,0.01
1384.0,0.0101
1383.0,0.0101
1382.0,0.0101
1381.0,0.0102
1380.0,0.0102
1379.0,0.0103
1378.0,0.0104
1377.0,0.0104
1376.0,0.0104
1375.0,0.0105
1374.0,0.0105
1373.0,0.0105
1372.0,0.0105
1371.0,0.0105
1370.0,0.0106
1369.0,0.0106
1368.0,0.0105
1367.0,0.0105
1366.0,0.0105
1365.0,0.0105
1364.0,0.0106
1363.0,0.0107
1362.0,0.0107
1361.0,0.0107
1360.0,0.0107
1359.0,0.0106
1358.0,0.0105
1357.0,0.0104
1356.0,0.0104
1355.0,0.0103
1354.0,0.0103
1353.0,0.0103
1352.0,0.0102
1351.0,0.0102
1350.0,0.0102
1349.0,0.0103
1348.0,0.0103
1347.0,0.0102
1346.0,0.0102
1345.0,0.0101
1344.0,0.0101
1343.0,0.01
1342.0,0.0099
1341.0,0.0099
1340.0,0.0098
1339.0,0.0098
1338.0,0.0098
1337.0,0.0098
1336.0,0.0097
1335.0,0.0098
1334.0,0.0098
1333.0,0.0099
1332.0,0.0099
1331.0,0.0099
1330.0,0.0099
1329.0,0.0099
1328.0,0.0099
1327.0,0.0099
1326.0,0.0099
1325.0,0.01
1324.0,0.0101
1323.0,0.0101
1322.0,0.0101
1321.0,0.0101
1320.0,0.0101
1319.0,0.0101
1318.0,0.0102
1317.0,0.0102
1316.0,0.0102
1315.0,0.0103
1314.0,0.0103
1313.0,0.0103
1312.0,0.0103
1311.0,0.0103
1310.0,0.0103
1309.0,0.0103
1308.0,0.0102
1307.0,0.0101
1306.0,0.0101
1305.0,0.01
1304.0,0.0101
1303.0,0.0101
1302.0,0.0101
1301.0,0.01
1300.0,0.0099
1299.0,0.0099
1298.0,0.0098
1297.0,0.0098
1296.0,0.0097
1295.0,0.0097
1294.0,0.0097
1293.0,0.0098
1292.0,0.0098
1291.0,0.0098
1290.0,0.0098
1289.0,0.0098
1288.0,0.0097
1287.0,0.0096
1286.0,0.0096
1285.0,0.0096
1284.0,0.0097
1283.0,0.0098
1282.0,0.0098
1281.0,0.0098
1280.0,0.0098
1279.0,0.0097
1278.0,0.0097
1277.0,0.0097
1276.0,0.0097
1275.0,0.0096
1274.0,0.0096
1273.0,0.0096
1272.0,0.0096
1271.0,0.0096
1270.0,0.0096
1269.0,0.0096
1268.0,0.0096
1267.0,0.0097
1266.0,0.0097
1265.0,0.0097
1264.0,0.0097
1263.0,0.0097
1262.0,0.0096
1261.0,0.0096
1260.0,0.0095
1259.0,0.0094
1258.0,0.0094
1257.0,0.0094
1256.0,0.0094
1255.0,0.0095
1254.0,0.0095
1253.0,0.0095
1252.0,0.0095
1251.0,0.0095
1250.0,0.0094
1249.0,0.0094
1248.0,0.0094
1247.0,0.0094
1246.0,0.0094
1245.0,0.0094
1244.0,0.0093
1243.0,0.0093
1242.0,0.0093
1241.0,0.0093
1240.0,0.0093
1239.0,0.0093
1238.0,0.0093
1237.0,0.0093
1236.0,0.0093
1235.0,0.0093
1234.0,0.0092
1233.0,0.0092
1232.0,0.0092
1231.0,0.0092
1230.0,0.0092
1229.0,0.0092
1228.0,0.0092
1227.0,0.0092
1226.0,0.0091
1225.0,0.0091
1224.0,0.009
1223.0,0.0091
1222.0,0.0091
1221.0,0.0092
1220.0,0.0093
1219.0,0.0093
1218.0,0.0092
1217.0,0.0092
1216.0,0.0092
1215.0,0.0092
1214.0,0.0092
1213.0,0.0092
1212.0,0.0093
1211.0,0.0093
1210.0,0.0094
1209.0,0.0094
1208.0,0.0095
1207.0,0.0095
1206.0,0.0096
1205.0,0.0097
1204.0,0.0098
1203.0,0.0099
1202.0,0.0099
1201.0,0.01
1200.0,0.01
1199.0,0.0101
1198.0,0.0101
1197.0,0.0102
1196.0,0.0103
1195.0,0.0104
1194.0,0.0105
1193.0,0.0106
1192.0,0.0106
1191.0,0.0106
1190.0,0.0107
1189.0,0.0107
1188.0,0.0109
1187.0,0.011
1186.0,0.0112
1185.0,0.0113
1184.0,0.0114
1183.0,0.0115
1182.0,0.0116
1181.0,0.0117
1180.0,0.0117
1179.0,0.0116
1178.0,0.0115
1177.0,0.0114
1176.0,0.0114
1175.0,0.0113
1174.0,0.0112
1173.0,0.0111
1172.0,0.011
1171.0,0.011
1170.0,0.011
1169.0,0.0109
1168.0,0.0109
1167.0,0.0109
1166.0,0.0109
1165.0,0.0108
1164.0,0.0108
1163.0,0.0108
1162.0,0.0109
1161.0,0.011
1160.0,0.0111
1159.0,0.0112
1158.0,0.0113
1157.0,0.0114
1156.0,0.0115
1155.0,0.0116
1154.0,0.0118
1153.0,0.0119
1152.0,0.0119
1151.0,0.0118
1150.0,0.0117
1149.0,0.0115
1148.0,0.0115
1147.0,0.0115
1146.0,0.0116
1145.0,0.0117
1144.0,0.0118
1143.0,0.0118
1142.0,0.0119
1141.0,0.0119
1140.0,0.012
1139.0,0.0121
1138.0,0.0123
1137.0,0.0125
1136.0,0.0127
1135.0,0.013
1134.0,0.0132
1133.0,0.0135
1132.0,0.0137
1131.0,0.0138
1130.0,0.014
1129.0,0.0141
1128.0,0.0143
1127.0,0.0144
1126.0,0.0145
1125.0,0.0146
1124.0,0.0146
1123.0,0.0147
1122.0,0.0148
1121.0,0.0148
1120.0,0.0148
1119.0,0.0148
1118.0,0.0148
1117.0,0.0146
1116.0,0.0145
1115.0,0.0144
1114.0,0.0143
1113.0,0.0142
1112.0,0.0141
1111.0,0.014
1110.0,0.0138
1109.0,0.0137
1108.0,0.0136
1107.0,0.0135
1106.0,0.0134
1105.0,0.0133
1104.0,0.0133
1103.0,0.0133
1102.0,0.0132
1101.0,0.0132
1100.0,0.0131
1099.0,0.013
1098.0,0.0129
1097.0,0.0128
1096.0,0.0128
1095.0,0.0127
1094.0,0.0126
1093.0,0.0124
1092.0,0.0122
1091.0,0.0121
1090.0,0.012
1089.0,0.0119
1088.0,0.0119
1087.0,0.0119
1086.0,0.0118
1085.0,0.0118
1084.0,0.0117
1083.0,0.0116
1082.0,0.0115
1081.0,0.0114
1080.0,0.0114
1079.0,0.0115
1078.0,0.0116
1077.0,0.0116
1076.0,0.0117
1075.0,0.0117
1074.0,0.0117
1073.0,0.0117
1072.0,0.0117
1071.0,0.0118
1070.0,0.0119
1069.0,0.012
1068.0,0.012
1067.0,0.0119
1066.0,0.0119
1065.0,0.0118
1064.0,0.0116
1063.0,0.0115
1062.0,0.0114
1061.0,0.0113
1060.0,0.0113
1059.0,0.0112
1058.0,0.0112
1057.0,0.0112
1056.0,0.0112
1055.0,0.0113
1054.0,0.0113
1053.0,0.0114
1052.0,0.0114
1051.0,0.0115
1050.0,0.0115
1049.0,0.0115
1048.0,0.0116
1047.0,0.0116
1046.0,0.0117
1045.0,0.0117
1044.0,0.0118
1043.0,0.0118
1042.0,0.0118
1041.0,0.0117
1040.0,0.0117
1039.0,0.0117
1038.0,0.0117
1037.0,0.0118
1036.0,0.012
1035.0,0.0122
1034.0,0.0125
1033.0,0.0128
1032.0,0.0132
1031.0,0.0135
1030.0,0.0138
1029.0,0.014
1028.0,0.014
1027.0,0.0139
1026.0,0.0137
1025.0,0.0134
1024.0,0.0131
1023.0,0.0129
1022.0,0.0126
1021.0,0.0124
1020.0,0.0122
1019.0,0.0121
1018.0,0.0119
1017.0,0.0118
1016.0,0.0118
1015.0,0.0118
1014.0,0.0117
1013.0,0.0117
1012.0,0.0117
1011.0,0.0117
1010.0,0.0118
1009.0,0.0118
1008.0,0.0118
1007.0,0.0118
1006.0,0.0118
1005.0,0.0118
1004.0,0.0119
1003.0,0.0119
1002.0,0.0119
1001.0,0.0118
1000.0,0.0117
999.0,0.0116
998.0,0.0115
997.0,0.0115
996.0,0.0115
995.0,0.0116
994.0,0.0116
993.0,0.0115
992.0,0.0114
991.0,0.0114
990.0,0.0114
989.0,0.0114
988.0,0.0114
987.0,0.0114
986.0,0.0114
985.0,0.0114
984.0,0.0113
983.0,0.0114
982.0,0.0115
981.0,0.0116
980.0,0.0117
979.0,0.0118
978.0,0.0117
977.0,0.0116
976.0,0.0115
975.0,0.0113
974.0,0.0113
973.0,0.0113
972.0,0.0113
971.0,0.0114
970.0,0.0115
969.0,0.0115
968.0,0.0116
967.0,0.0117
966.0,0.0118
965.0,0.0119
964.0,0.0119
963.0,0.0119
962.0,0.0118
961.0,0.0117
960.0,0.0116
959.0,0.0116
958.0,0.0114
957.0,0.0113
956.0,0.0112
955.0,0.0112
954.0,0.0113
953.0,0.0113
952.0,0.0113
951.0,0.0113
950.0,0.0113
949.0,0.0113
948.0,0.0113
947.0,0.0113
946.0,0.0113
945.0,0.0114
944.0,0.0115
943.0,0.0117
942.0,0.0118
941.0,0.0118
940.0,0.0117
939.0,0.0115
938.0,0.0114
937.0,0.0113
936.0,0.0113
935.0,0.0113
934.0,0.0114
933.0,0.0114
932.0,0.0114
931.0,0.0114
930.0,0.0114
929.0,0.0114
928.0,0.0114
927.0,0.0114
926.0,0.0114
925.0,0.0114
924.0,0.0114
923.0,0.0114
922.0,0.0115
921.0,0.0116
920.0,0.0117
919.0,0.0118
918.0,0.0117
917.0,0.0115
916.0,0.0114
915.0,0.0115
914.0,0.0116
913.0,0.0118
912.0,0.0119
911.0,0.0121
910.0,0.0123
909.0,0.0126
908.0,0.0128
907.0,0.0129
906.0,0.0129
905.0,0.0129
904.0,0.0128
903.0,0.0127
902.0,0.0125
901.0,0.0123
900.0,0.0121
899.0,0.0119
898.0,0.0119
897.0,0.0119
896.0,0.0118
895.0,0.0117
894.0,0.0116
893.0,0.0114
892.0,0.0114
891.0,0.0114
890.0,0.0113
889.0,0.0113
888.0,0.0112
887.0,0.0112
886.0,0.0112
885.0,0.0113
884.0,0.0113
883.0,0.0113
882.0,0.0113
881.0,0.0113
880.0,0.0113
879.0,0.0113
878.0,0.0112
877.0,0.0112
876.0,0.0113
875.0,0.0113
874.0,0.0113
873.0,0.0113
872.0,0.0112
871.0,0.0113
870.0,0.0114
869.0,0.0115
868.0,0.0116
867.0,0.0116
866.0,0.0117
865.0,0.0118
864.0,0.0119
863.0,0.012
862.0,0.0121
861.0,0.0121
860.0,0.0121
859.0,0.012
858.0,0.0121
857.0,0.0121
856.0,0.0122
855.0,0.0123
854.0,0.0122
853.0,0.0122
852.0,0.0123
851.0,0.0124
850.0,0.0125
849.0,0.0124
848.0,0.0123
847.0,0.0123
846.0,0.0123
845.0,0.0123
844.0,0.0124
843.0,0.0125
842.0,0.0125
841.0,0.0126
840.0,0.0127
839.0,0.0128
838.0,0.0128
837.0,0.0127
836.0,0.0126
835.0,0.0125
834.0,0.0125
833.0,0.0124
832.0,0.0122
831.0,0.0121
830.0,0.012
829.0,0.012
828.0,0.0121
827.0,0.0121
826.0,0.012
825.0,0.0119
824.0,0.0118
823.0,0.0118
822.0,0.0119
821.0,0.0119
820.0,0.0119
819.0,0.0119
818.0,0.0119
817.0,0.012
816.0,0.012
815.0,0.0121
814.0,0.0121
813.0,0.0121
812.0,0.0122
811.0,0.0123
810.0,0.0123
809.0,0.0122
808.0,0.0121
807.0,0.012
806.0,0.0119
805.0,0.0119
804.0,0.0118
803.0,0.0118
802.0,0.0117
801.0,0.0117
800.0,0.0118
799.0,0.0119
798.0,0.0119
797.0,0.012
796.0,0.012
795.0,0.012
794.0,0.0119
793.0,0.0119
792.0,0.012
791.0,0.012
790.0,0.0121
789.0,0.0122
788.0,0.0122
787.0,0.0122
786.0,0.0123
785.0,0.0124
784.0,0.0125
783.0,0.0127
782.0,0.0128
781.0,0.013
780.0,0.0132
779.0,0.0135
778.0,0.0137
777.0,0.0139
776.0,0.0142
775.0,0.0146
774.0,0.0151
773.0,0.0156
772.0,0.0161
771.0,0.0167
770.0,0.0174
769.0,0.0181
768.0,0.0188
767.0,0.0194
766.0,0.02
765.0,0.0207
764.0,0.0215
763.0,0.0224
762.0,0.0232
761.0,0.024
760.0,0.0246
759.0,0.0252
758.0,0.0257
757.0,0.026
756.0,0.0262
755.0,0.0264
754.0,0.0266
753.0,0.0268
752.0,0.0269
751.0,0.027
750.0,0.027
749.0,0.027
748.0,0.0268
747.0,0.0265
746.0,0.0259
745.0,0.0252
744.0,0.0243
743.0,0.0234
742.0,0.0226
741.0,0.0218
740.0,0.0211
739.0,0.0203
738.0,0.0195
737.0,0.0188
736.0,0.0181
735.0,0.0173
734.0,0.0165
733.0,0.0158
732.0,0.0151
731.0,0.0147
730.0,0.0143
729.0,0.0139
728.0,0.0136
727.0,0.0133
726.0,0.0129
725.0,0.0126
724.0,0.0124
723.0,0.0123
722.0,0.0122
721.0,0.012
720.0,0.0116
719.0,0.0111
718.0,0.0106
717.0,0.0102
716.0,0.0097
715.0,0.0094
714.0,0.0092
713.0,0.0089
712.0,0.0088
711.0,0.009
710.0,0.0098
709.0,0.0112
708.0,0.0135
707.0,0.0166
706.0,0.0206
705.0,0.0256
704.0,0.0314
703.0,0.0376
702.0,0.0441
701.0,0.0509
700.0,0.0577
699.0,0.0643
698.0,0.0699
697.0,0.0735
696.0,0.074
695.0,0.0711
694.0,0.0653
693.0,0.0583
692.0,0.0514
691.0,0.0456
690.0,0.0413
689.0,0.0383
688.0,0.0361
687.0,0.0342
686.0,0.0326
685.0,0.0315
684.0,0.0309
683.0,0.0304
682.0,0.0293
681.0,0.0278
680.0,0.0262
679.0,0.0248
678.0,0.0234
677.0,0.0222
676.0,0.0212
675.0,0.021
674.0,0.0215
673.0,0.0222
672.0,0.0227
671.0,0.0228
670.0,0.0226
669.0,0.0212
668.0,0.0191
667.0,0.0188
666.0,0.0193
665.0,0.0198
664.0,0.0204
663.0,0.021
662.0,0.0212
661.0,0.021
660.0,0.0207
659.0,0.0203
658.0,0.0201
657.0,0.0202
656.0,0.0204
655.0,0.0206
654.0,0.0207
653.0,0.0208
652.0,0.021
651.0,0.0211
650.0,0.021
649.0,0.0209
648.0,0.0207
647.0,0.0204
646.0,0.0198
645.0,0.0193
644.0,0.0191
643.0,0.0195
642.0,0.0201
641.0,0.0205
640.0,0.0205
639.0,0.0203
638.0,0.0202
637.0,0.0202
636.0,0.0203
635.0,0.0205
634.0,0.021
633.0,0.0216
632.0,0.0223
631.0,0.0227
630.0,0.0228
629.0,0.0226
628.0,0.0225
627.0,0.0228
626.0,0.0235
625.0,0.0243
624.0,0.0248
623.0,0.0249
622.0,0.0249
621.0,0.0252
620.0,0.0259
619.0,0.0265
618.0,0.0264
617.0,0.0255
616.0,0.024
615.0,0.0226
614.0,0.0214
613.0,0.0208
612.0,0.0207
611.0,0.0213
610.0,0.022
609.0,0.0225
608.0,0.0224
607.0,0.022
606.0,0.0214
605.0,0.0209
604.0,0.0204
603.0,0.02
602.0,0.0197
601.0,0.0198
600.0,0.0205
