nm,Intensity
526.532,830.517
526.669,830.034
526.805,830.345
526.942,830.609
527.079,829.517
527.216,830.161
527.352,830.425
527.489,830.138
527.625,830.425
527.762,830.391
527.899,829.609
528.035,829.908
528.172,830.241
528.309,830.287
528.445,830.483
528.582,830.379
528.718,829.943
528.855,830.172
528.992,830.448
529.128,830.057
529.265,830.0
529.401,829.793
529.538,830.241
529.674,830.172
529.811,830.08
529.947,830.322
530.084,830.057
530.22,829.92
530.357,830.517
530.493,830.172
530.63,830.218
530.766,830.448
530.903,830.0
531.039,830.517
531.176,830.057
531.312,829.908
531.449,830.103
531.585,830.0
531.721,829.724
531.858,830.69
531.994,834.448
532.131,849.299
532.267,845.092
532.403,832.586
532.54,830.287
532.676,830.517
532.812,829.977
532.949,830.253
533.085,830.138
533.221,830.172
533.358,830.322
533.494,830.517
533.63,832.092
533.767,846.218
533.903,898.115
534.039,957.793
534.176,981.563
534.312,984.563
534.448,983.598
534.584,986.356
534.721,988.103
534.857,988.368
534.993,986.241
535.129,984.207
535.266,986.276
535.402,987.149
535.538,990.322
535.674,990.759
535.81,991.333
535.947,991.172
536.083,990.966
536.219,992.368
536.355,991.885
536.491,993.437
536.627,994.034
536.764,993.322
536.9,994.839
537.036,995.103
537.172,996.862
537.308,997.08
537.444,997.54
537.58,1000.47
537.716,1000.45
537.852,1000.0
537.988,1004.17
538.125,1002.99
538.261,1004.08
538.397,1006.15
538.533,1006.48
538.669,1007.54
538.805,1005.8
538.941,1007.16
539.077,1008.77
539.213,1008.87
539.349,1010.94
539.485,1009.72
539.621,1012.63
539.757,1011.38
539.893,1013.2
540.029,1014.3
540.165,1013.79
540.301,1015.69
540.437,1014.36
540.572,1015.89
540.708,1017.07
540.844,1018.49
540.98,1017.47
541.116,1018.89
541.252,1020.47
541.388,1021.45
541.524,1022.31
541.66,1024.85
541.795,1022.17
541.931,1023.23
542.067,1024.93
542.203,1028.1
542.339,1024.7
542.475,1027.89
542.611,1030.95
542.746,1030.22
542.882,1030.37
543.018,1033.14
543.154,1034.15
543.289,1031.52
543.425,1035.03
543.561,1035.05
543.697,1036.98
543.833,1037.76
543.968,1039.72
544.104,1040.69
544.24,1040.59
544.375,1041.11
544.511,1040.85
544.647,1042.21
544.783,1042.72
544.918,1045.99
545.054,1046.92
545.19,1050.38
545.325,1046.87
545.461,1047.64
545.597,1047.77
545.732,1050.57
545.868,1051.55
546.004,1050.93
546.139,1052.61
546.275,1052.37
546.41,1052.95
546.546,1053.68
546.682,1056.3
546.817,1056.86
546.953,1056.57
547.088,1057.83
547.224,1056.84
547.36,1057.37
547.495,1057.38
547.631,1058.23
547.766,1057.72
547.902,1062.25
548.037,1061.25
548.173,1059.47
548.308,1062.84
548.444,1061.79
548.579,1063.52
548.715,1065.79
548.85,1064.33
548.986,1067.89
549.121,1070.6
549.257,1069.57
549.392,1070.49
549.528,1068.56
549.663,1071.31
549.798,1070.67
549.934,1072.61
550.069,1070.95
550.205,1070.11
550.34,1071.62
550.475,1073.34
550.611,1074.39
550.746,1075.01
550.882,1075.93
551.017,1075.78
551.152,1075.33
551.288,1078.36
551.423,1079.66
551.558,1078.95
551.694,1082.06
551.829,1082.41
551.964,1082.68
552.1,1082.28
552.235,1084.06
552.37,1080.9
552.505,1084.89
552.641,1084.87
552.776,1084.22
552.911,1086.67
553.047,1087.57
553.182,1083.14
553.317,1084.97
553.452,1087.85
553.588,1088.07
553.723,1091.22
553.858,1090.05
553.993,1092.53
554.128,1092.78
554.264,1094.23
554.399,1093.99
554.534,1093.53
554.669,1093.56
554.804,1096.16
554.939,1094.37
555.075,1093.75
555.21,1095.49
555.345,1094.4
555.48,1095.78
555.615,1095.56
555.75,1093.68
555.885,1098.26
556.02,1098.25
556.155,1095.6
556.291,1098.59
556.426,1097.23
556.561,1097.68
556.696,1098.95
556.831,1100.31
556.966,1100.06
557.101,1104.25
557.236,1101.86
557.371,1102.31
557.506,1103.86
557.641,1104.23
557.776,1105.66
557.911,1104.07
558.046,1105.3
558.181,1102.78
558.316,1104.47
558.451,1104.08
558.586,1103.9
558.721,1104.23
558.856,1102.94
558.991,1104.78
559.126,1107.17
559.261,1106.33
559.396,1107.82
559.531,1108.68
559.665,1109.97
559.8,1110.26
559.935,1111.61
560.07,1113.91
560.205,1113.45
560.34,1115.75
560.475,1115.68
560.61,1114.51
560.745,1114.79
560.879,1115.6
561.014,1117.74
561.149,1116.03
561.284,1116.63
561.419,1115.29
561.553,1115.9
561.688,1117.07
561.823,1116.57
561.958,1117.21
562.093,1118.28
562.227,1119.32
562.362,1119.82
562.497,1123.61
562.632,1121.09
562.767,1123.95
562.901,1123.91
563.036,1125.78
563.171,1127.49
563.305,1128.22
563.44,1130.51
563.575,1133.1
563.71,1135.91
563.844,1141.93
563.979,1152.37
564.114,1157.95
564.248,1149.87
564.383,1141.72
564.518,1138.31
564.652,1142.0
564.787,1141.06
564.922,1141.26
565.056,1143.83
565.191,1143.99
565.325,1142.4
565.46,1142.41
565.595,1144.08
565.729,1146.05
565.864,1148.57
565.999,1154.69
566.133,1165.48
566.268,1169.07
566.402,1155.74
566.537,1149.03
566.671,1145.89
566.806,1146.01
566.94,1145.2
567.075,1148.31
567.21,1144.44
567.344,1148.68
567.479,1147.13
567.613,1149.24
567.748,1147.18
567.882,1147.53
568.017,1145.38
568.151,1147.43
568.285,1149.95
568.42,1149.11
568.554,1153.7
568.689,1152.95
568.823,1155.53
568.958,1155.01
569.092,1158.47
569.227,1159.43
569.361,1159.52
569.495,1163.52
569.63,1159.55
569.764,1161.39
569.899,1161.72
570.033,1160.97
570.167,1164.63
570.302,1163.46
570.436,1165.64
570.571,1165.53
570.705,1165.79
570.839,1165.03
570.974,1165.05
571.108,1164.29
571.242,1168.51
571.377,1174.09
571.511,1197.85
571.645,1206.98
571.78,1182.39
571.914,1176.36
572.048,1175.24
572.182,1176.33
572.317,1174.05
572.451,1173.52
572.585,1174.8
572.719,1174.44
572.854,1176.41
572.988,1177.36
573.122,1177.61
573.256,1179.89
573.391,1178.46
573.525,1181.93
573.659,1179.82
573.793,1182.43
573.927,1183.0
574.062,1186.32
574.196,1183.46
574.33,1185.79
574.464,1184.55
574.598,1183.72
574.733,1184.94
574.867,1186.07
575.001,1184.78
575.135,1182.68
575.269,1185.4
575.403,1188.94
575.537,1200.46
575.671,1204.36
575.806,1197.92
575.94,1197.98
576.074,1205.99
576.208,1214.17
576.342,1226.37
576.476,1219.09
576.61,1212.75
576.744,1212.13
576.878,1212.97
577.012,1215.29
577.146,1212.99
577.28,1212.09
577.414,1206.74
577.548,1204.74
577.682,1202.64
577.817,1201.25
577.951,1199.17
578.085,1198.87
578.219,1201.15
578.353,1202.25
578.486,1198.4
578.62,1200.91
578.754,1204.06
578.888,1203.94
579.022,1203.26
579.156,1204.34
579.29,1205.74
579.424,1204.79
579.558,1205.3
579.692,1206.51
579.826,1207.14
579.96,1206.22
580.094,1205.95
580.228,1207.41
580.362,1207.54
580.496,1211.1
580.629,1208.1
580.763,1208.09
580.897,1209.91
581.031,1210.26
581.165,1209.63
581.299,1209.28
581.433,1210.99
581.566,1210.86
581.7,1215.75
581.834,1213.37
581.968,1216.47
582.102,1216.22
582.236,1214.75
582.369,1215.2
582.503,1218.9
582.637,1219.31
582.771,1219.09
582.905,1220.74
583.038,1220.3
583.172,1221.11
583.306,1222.13
583.44,1221.76
583.573,1224.86
583.707,1227.08
583.841,1223.16
583.975,1226.68
584.108,1226.01
584.242,1225.55
584.376,1224.0
584.509,1227.03
584.643,1227.6
584.777,1224.82
584.911,1230.6
585.044,1228.01
585.178,1229.14
585.312,1228.74
585.445,1230.0
585.579,1226.34
585.713,1232.29
585.846,1232.0
585.98,1232.94
586.113,1235.62
586.247,1237.02
586.381,1235.2
586.514,1237.69
586.648,1238.95
586.782,1238.22
586.915,1240.72
587.049,1239.49
587.182,1240.3
587.316,1239.76
587.45,1242.39
587.583,1243.53
587.717,1242.8
587.85,1242.68
587.984,1241.99
588.117,1242.46
588.251,1239.52
588.384,1243.14
588.518,1242.97
588.651,1240.74
588.785,1238.32
588.919,1237.34
589.052,1241.16
589.186,1238.99
589.319,1241.01
589.453,1240.85
589.586,1240.18
589.72,1241.92
589.853,1242.53
589.986,1244.57
590.12,1240.69
590.253,1244.1
590.387,1246.56
590.52,1245.72
590.654,1245.97
590.787,1248.39
590.921,1249.92
591.054,1249.87
591.187,1249.07
591.321,1247.83
591.454,1251.29
591.588,1250.25
591.721,1248.28
591.854,1249.82
591.988,1249.98
592.121,1248.33
592.255,1248.18
592.388,1248.78
592.521,1250.64
592.655,1251.31
592.788,1247.68
592.921,1248.31
593.055,1249.79
593.188,1250.07
593.321,1247.38
593.455,1248.62
593.588,1247.2
593.721,1251.86
593.855,1248.29
593.988,1250.67
594.121,1248.25
594.255,1249.98
594.388,1250.37
594.521,1250.85
594.654,1250.95
594.788,1252.61
594.921,1253.13
595.054,1254.71
595.187,1254.47
595.321,1255.74
595.454,1254.15
595.587,1257.39
595.72,1259.08
595.854,1258.05
595.987,1258.82
596.12,1259.43
596.253,1262.08
596.387,1258.67
596.52,1259.54
596.653,1258.86
596.786,1260.84
596.919,1262.79
597.052,1264.62
597.186,1265.47
597.319,1265.37
597.452,1262.86
597.585,1265.16
597.718,1262.39
597.851,1264.95
597.985,1267.2
598.118,1268.41
598.251,1267.86
598.384,1271.29
598.517,1269.49
598.65,1269.95
598.783,1272.84
598.916,1273.09
599.049,1272.11
599.183,1273.85
599.316,1273.46
599.449,1274.32
599.582,1274.3
599.715,1272.84
599.848,1275.8
599.981,1270.61
600.114,1272.43
600.247,1271.11
600.38,1271.17
600.513,1271.31
600.646,1267.54
600.779,1265.98
600.912,1266.97
601.045,1267.14
601.178,1268.29
601.311,1265.99
601.444,1265.6
601.577,1264.22
601.71,1266.11
601.843,1262.95
601.976,1263.72
602.109,1262.4
602.242,1264.23
602.375,1265.57
602.508,1262.92
602.641,1265.55
602.774,1262.89
602.907,1259.95
603.04,1261.47
603.173,1260.32
603.306,1256.8
603.439,1259.95
603.572,1255.74
603.705,1258.07
603.838,1256.57
603.971,1254.05
604.103,1252.59
604.236,1251.72
604.369,1252.29
604.502,1247.13
604.635,1247.15
604.768,1243.41
604.901,1243.0
605.034,1244.46
605.167,1238.05
605.299,1237.69
605.432,1233.8
605.565,1233.09
605.698,1227.68
605.831,1227.8
605.964,1227.78
606.096,1227.17
606.229,1225.22
606.362,1223.6
606.495,1223.77
606.628,1220.29
606.761,1221.16
606.893,1221.57
607.026,1219.86
607.159,1219.17
607.292,1218.76
607.425,1218.87
607.557,1217.76
607.69,1219.54
607.823,1216.3
607.956,1218.85
608.088,1219.05
608.221,1220.15
608.354,1217.93
608.487,1216.72
608.619,1216.46
608.752,1214.84
608.885,1215.53
609.018,1213.95
609.15,1216.4
609.283,1214.86
609.416,1213.79
609.548,1209.55
609.681,1209.74
609.814,1210.71
609.947,1209.15
610.079,1208.29
610.212,1207.24
610.345,1205.02
610.477,1205.97
610.61,1203.87
610.743,1204.41
610.875,1205.74
611.008,1202.9
611.141,1201.41
611.273,1203.25
611.406,1203.56
611.539,1199.92
611.671,1204.0
611.804,1200.16
611.936,1201.3
612.069,1201.53
612.202,1204.29
612.334,1203.31
612.467,1205.29
612.6,1203.29
612.732,1203.03
612.865,1206.91
612.997,1205.3
613.13,1207.41
613.263,1204.77
613.395,1206.9
613.528,1207.31
613.66,1204.32
613.793,1204.8
613.925,1204.95
614.058,1202.99
614.19,1203.45
614.323,1203.69
614.456,1202.74
614.588,1202.0
614.721,1199.82
614.853,1203.67
614.986,1201.86
615.118,1198.95
615.251,1195.39
615.383,1197.06
615.516,1195.82
615.648,1195.26
615.781,1195.54
615.913,1196.63
616.046,1194.46
616.178,1190.13
616.311,1190.69
616.443,1195.02
616.576,1191.68
616.708,1190.92
616.841,1194.44
616.973,1192.51
617.106,1193.99
617.238,1192.08
617.37,1195.14
617.503,1195.31
617.635,1190.05
617.768,1190.7
617.9,1190.93
618.033,1191.76
618.165,1192.47
618.297,1193.25
618.43,1189.6
618.562,1192.17
618.695,1189.78
618.827,1189.14
618.96,1188.47
619.092,1189.55
619.224,1185.52
619.357,1187.21
619.489,1186.33
619.621,1186.8
619.754,1185.29
619.886,1186.71
620.019,1183.83
620.151,1184.26
620.283,1185.07
620.416,1182.17
620.548,1182.8
620.68,1182.28
620.813,1182.44
620.945,1179.82
621.077,1183.0
621.21,1182.98
621.342,1183.74
621.474,1184.56
621.607,1186.37
621.739,1186.14
621.871,1184.74
622.004,1187.92
622.136,1189.69
622.268,1190.36
622.401,1189.99
622.533,1191.06
622.665,1186.29
622.797,1185.64
622.93,1183.76
623.062,1182.51
623.194,1182.11
623.326,1180.18
623.459,1182.61
623.591,1179.11
623.723,1179.69
623.856,1179.69
623.988,1178.09
624.12,1177.23
624.252,1177.43
624.384,1176.45
624.517,1178.78
624.649,1176.13
624.781,1177.74
624.913,1175.94
625.046,1175.91
625.178,1176.13
625.31,1174.03
625.442,1173.23
625.574,1172.43
625.707,1173.48
625.839,1173.44
625.971,1174.3
626.103,1177.33
626.235,1177.34
626.368,1182.44
626.5,1185.69
626.632,1196.28
626.764,1216.56
626.896,1245.64
627.028,1301.44
627.161,1341.6
627.293,1360.17
627.425,1342.76
627.557,1318.62
627.689,1298.53
627.821,1282.93
627.953,1272.21
628.086,1270.9
628.218,1278.21
628.35,1304.14
628.482,1355.26
628.614,1391.07
628.746,1343.13
628.878,1299.24
629.01,1285.48
629.143,1272.45
629.275,1272.45
629.407,1263.07
629.539,1257.7
629.671,1247.83
629.803,1238.52
629.935,1233.28
630.067,1233.45
630.199,1225.95
630.331,1230.03
630.463,1226.41
630.596,1223.08
630.728,1215.17
630.86,1207.95
630.992,1198.3
631.124,1186.97
631.256,1178.45
631.388,1173.66
631.52,1172.11
631.652,1168.52
631.784,1165.37
631.916,1165.13
632.048,1161.64
632.18,1160.94
632.312,1158.38
632.444,1157.52
632.576,1155.39
632.708,1154.06
632.84,1151.45
632.972,1154.34
633.104,1149.84
633.236,1150.95
633.368,1151.32
633.5,1148.47
633.632,1148.54
633.764,1148.22
633.896,1146.03
634.028,1146.43
634.16,1148.37
634.292,1144.22
634.424,1143.67
634.556,1142.66
634.688,1142.47
634.82,1143.14
634.952,1143.01
635.084,1145.03
635.216,1142.72
635.348,1141.32
635.48,1138.46
635.612,1141.14
635.744,1143.09
635.876,1142.09
636.007,1143.53
636.139,1141.44
636.271,1143.26
636.403,1138.78
636.535,1139.49
636.667,1141.59
636.799,1138.92
636.931,1139.84
637.063,1138.98
637.195,1138.11
637.327,1138.89
637.459,1137.59
637.59,1135.93
637.722,1137.33
637.854,1135.31
637.986,1133.6
638.118,1136.82
638.25,1133.3
638.382,1135.41
638.514,1133.87
638.645,1135.66
638.777,1133.93
638.909,1134.59
639.041,1131.86
639.173,1134.22
639.305,1130.68
639.437,1132.41
639.568,1131.74
639.7,1132.56
639.832,1131.56
639.964,1129.4
640.096,1129.79
640.228,1131.43
640.36,1130.26
640.491,1131.08
640.623,1130.89
640.755,1132.05
640.887,1129.51
641.019,1130.75
641.15,1129.08
641.282,1127.92
641.414,1128.53
641.546,1129.11
641.678,1127.78
641.81,1128.31
641.941,1127.99
642.073,1123.85
642.205,1127.77
642.337,1126.1
642.468,1124.44
642.6,1123.6
642.732,1125.83
642.864,1122.94
642.996,1121.33
643.127,1120.41
643.259,1121.41
643.391,1118.08
643.523,1117.9
643.654,1120.47
643.786,1115.74
643.918,1116.43
644.05,1114.32
644.181,1113.06
644.313,1114.95
644.445,1114.63
644.577,1114.9
644.708,1112.61
644.84,1112.38
644.972,1112.45
645.104,1110.95
645.235,1110.08
645.367,1110.64
645.499,1111.17
645.631,1109.13
645.762,1110.57
645.894,1109.11
646.026,1110.77
646.157,1108.34
646.289,1110.09
646.421,1108.6
646.553,1109.08
646.684,1108.72
646.816,1109.4
646.948,1106.84
647.079,1109.06
647.211,1108.37
647.343,1105.41
647.474,1104.82
647.606,1105.2
647.738,1107.17
647.869,1103.8
648.001,1105.9
648.133,1105.31
648.265,1104.23
648.396,1104.07
648.528,1101.11
648.66,1102.3
648.791,1103.28
648.923,1101.56
649.054,1102.72
649.186,1099.8
649.318,1099.78
649.449,1097.0
649.581,1096.72
649.713,1099.32
649.844,1098.8
649.976,1097.95
650.108,1097.37
650.239,1097.67
650.371,1096.46
650.503,1098.4
650.634,1095.6
650.766,1093.77
650.897,1094.17
651.029,1093.4
651.161,1093.51
651.292,1092.74
651.424,1092.9
651.556,1091.8
651.687,1093.25
651.819,1094.03
651.95,1094.6
652.082,1092.72
652.214,1091.69
652.345,1092.18
652.477,1092.99
652.608,1092.14
652.74,1091.8
652.872,1092.3
653.003,1093.33
653.135,1091.55
653.266,1091.57
653.398,1090.74
653.529,1092.01
653.661,1091.31
653.793,1090.9
653.924,1090.64
654.056,1091.6
654.187,1090.63
654.319,1089.3
654.45,1089.99
654.582,1087.9
654.714,1087.94
654.845,1085.86
654.977,1086.36
655.108,1088.9
655.24,1086.48
655.371,1085.63
655.503,1087.46
655.634,1085.17
655.766,1083.03
655.897,1082.14
656.029,1081.52
656.161,1080.37
656.292,1079.99
656.424,1083.05
656.555,1080.46
656.687,1082.1
656.818,1082.15
656.95,1080.75
657.081,1079.85
657.213,1082.33
657.344,1079.83
657.476,1077.85
657.607,1082.01
657.739,1078.64
657.87,1078.33
658.002,1078.25
658.133,1079.49
658.265,1078.1
658.396,1079.43
658.528,1078.6
658.659,1076.79
658.791,1076.18
658.922,1075.26
659.054,1075.33
659.185,1077.48
659.317,1076.77
659.448,1076.02
659.58,1075.94
659.711,1073.25
659.843,1074.18
659.974,1073.07
660.106,1073.95
660.237,1071.44
660.368,1069.77
660.5,1069.93
660.631,1070.92
660.763,1069.74
660.894,1066.66
661.026,1065.67
661.157,1066.1
661.289,1065.8
661.42,1066.08
661.552,1062.11
661.683,1061.95
661.815,1063.39
661.946,1063.07
662.077,1061.24
662.209,1061.29
662.34,1059.02
662.472,1058.6
662.603,1060.1
662.735,1059.47
662.866,1058.07
662.997,1057.15
663.129,1057.23
