nm,Intensity
526.495,828.9
526.632,830.1
526.768,828.5
526.905,830.4
527.042,829.0
527.179,828.5
527.315,830.5
527.452,830.0
527.589,828.4
527.725,828.7
527.862,830.1
527.999,829.7
528.136,828.7
528.272,828.5
528.409,830.7
528.546,829.1
528.682,828.9
528.819,827.8
528.955,829.5
529.092,828.7
529.229,827.7
529.365,828.6
529.502,829.2
529.639,829.9
529.775,828.6
529.912,829.4
530.048,828.7
530.185,829.4
530.321,829.7
530.458,827.8
530.594,828.6
530.731,829.7
530.867,829.0
531.004,829.4
531.14,827.5
531.277,828.6
531.413,827.9
531.55,828.5
531.686,828.4
531.823,829.5
531.959,830.7
532.096,842.4
532.232,847.8
532.369,833.3
532.505,830.0
532.641,828.9
532.778,828.7
532.914,829.3
533.051,828.7
533.187,828.6
533.323,827.5
533.46,830.2
533.596,829.9
533.732,834.2
533.869,858.6
534.005,893.6
534.141,903.3
534.278,898.8
534.414,892.4
534.55,895.0
534.687,899.8
534.823,908.1
534.959,916.4
535.095,930.5
535.232,932.5
535.368,911.3
535.504,891.9
535.64,876.8
535.777,868.6
535.913,862.1
536.049,858.9
536.185,859.3
536.321,857.7
536.457,853.2
536.594,858.6
536.73,861.0
536.866,872.1
537.002,884.9
537.138,889.6
537.274,886.9
537.41,873.6
537.547,861.9
537.683,859.1
537.819,853.1
537.955,853.5
538.091,854.7
538.227,853.0
538.363,852.7
538.499,852.6
538.635,853.8
538.771,854.0
538.907,854.4
539.043,856.7
539.179,862.0
539.315,865.8
539.451,865.2
539.587,861.3
539.723,855.1
539.859,851.7
539.995,848.4
540.131,848.6
540.267,844.2
540.403,845.5
540.539,845.2
540.675,846.7
540.811,844.9
540.947,846.9
541.083,849.3
541.219,853.7
541.354,858.1
541.49,858.7
541.626,850.9
541.762,848.0
541.898,847.8
542.034,844.9
542.17,843.2
542.305,843.5
542.441,841.0
542.577,841.6
542.713,841.7
542.849,844.2
542.984,844.1
543.12,845.5
543.256,849.8
543.392,858.6
543.528,892.2
543.663,940.0
543.799,937.7
543.935,889.6
544.071,867.0
544.206,856.1
544.342,852.4
544.478,850.2
544.613,847.7
544.749,849.9
544.885,849.8
545.02,850.3
545.156,858.8
545.292,872.1
545.427,877.0
545.563,868.9
545.699,858.5
545.834,850.6
545.97,847.1
546.106,844.3
546.241,842.2
546.377,843.3
546.512,841.1
546.648,842.3
546.784,842.0
546.919,842.1
547.055,844.3
547.19,847.2
547.326,854.6
547.461,862.8
547.597,865.0
547.732,862.2
547.868,853.7
548.003,847.8
548.139,843.5
548.274,841.6
548.41,842.2
548.545,841.7
548.681,840.3
548.816,837.9
548.952,839.5
549.087,838.8
549.223,836.7
549.358,835.5
549.494,837.9
549.629,837.7
549.764,835.7
549.9,838.7
550.035,838.3
550.171,835.8
550.306,837.3
550.441,836.5
550.577,837.1
550.712,837.1
550.847,836.1
550.983,837.4
551.118,837.4
551.253,835.4
551.389,837.7
551.524,836.1
551.659,837.9
551.795,837.0
551.93,837.8
552.065,835.6
552.201,836.7
552.336,837.0
552.471,837.1
552.606,837.4
552.742,836.8
552.877,836.8
553.012,838.7
553.147,837.1
553.283,837.0
553.418,837.0
553.553,836.5
553.688,837.4
553.823,838.5
553.959,837.4
554.094,837.8
554.229,839.7
554.364,840.9
554.499,838.5
554.634,839.5
554.769,841.5
554.905,841.8
555.04,844.6
555.175,844.2
555.31,846.5
555.445,849.1
555.58,854.4
555.715,865.3
555.85,886.5
555.985,963.1
556.121,1060.4
556.256,987.8
556.391,904.3
556.526,880.8
556.661,883.1
556.796,893.7
556.931,916.6
557.066,953.5
557.201,951.2
557.336,899.3
557.471,873.4
557.606,863.9
557.741,857.2
557.876,850.5
558.011,852.5
558.146,850.3
558.281,851.0
558.416,847.2
558.551,847.6
558.685,849.1
558.82,856.3
558.955,861.3
559.09,855.7
559.225,848.9
559.36,847.1
559.495,846.8
559.63,845.5
559.765,846.4
559.9,850.7
560.034,855.2
560.169,869.3
560.304,873.3
560.439,861.4
560.574,855.7
560.709,854.2
560.843,856.2
560.978,869.2
561.113,908.2
561.248,951.0
561.383,921.2
561.517,871.2
561.652,857.9
561.787,861.5
561.922,874.7
562.057,885.9
562.191,872.8
562.326,862.8
562.461,855.7
562.596,855.0
562.73,855.6
562.865,854.9
563.0,861.6
563.134,877.8
563.269,891.0
563.404,884.7
563.539,874.6
563.673,865.9
563.808,858.4
563.943,854.5
564.077,849.7
564.212,849.1
564.346,849.3
564.481,847.9
564.616,848.2
564.75,849.0
564.885,848.2
565.02,851.7
565.154,854.0
565.289,857.0
565.423,860.8
565.558,856.0
565.693,853.9
565.827,850.9
565.962,852.9
566.096,851.4
566.231,851.1
566.365,852.8
566.5,861.5
566.634,875.1
566.769,905.2
566.903,945.6
567.038,956.9
567.172,937.0
567.307,942.9
567.441,967.1
567.576,944.8
567.71,893.2
567.845,865.6
567.979,855.2
568.114,854.7
568.248,852.5
568.383,855.4
568.517,857.1
568.652,859.5
568.786,863.8
568.92,877.4
569.055,897.8
569.189,900.0
569.324,879.8
569.458,865.1
569.592,860.6
569.727,853.5
569.861,856.3
569.996,858.9
570.13,865.6
570.264,877.5
570.399,871.3
570.533,862.3
570.667,855.2
570.802,853.2
570.936,852.1
571.07,855.4
571.205,857.1
571.339,863.8
571.473,867.0
571.607,872.3
571.742,875.1
571.876,879.6
572.01,874.9
572.144,868.0
572.279,877.4
572.413,899.4
572.547,937.5
572.681,996.4
572.816,980.6
572.95,921.7
573.084,890.9
573.218,879.2
573.353,874.6
573.487,885.6
573.621,914.1
573.755,921.2
573.889,897.6
574.023,881.6
574.158,882.6
574.292,874.7
574.426,865.7
574.56,855.5
574.694,852.3
574.828,850.4
574.963,852.7
575.097,851.4
575.231,849.7
575.365,850.0
575.499,851.1
575.633,850.5
575.767,854.3
575.901,859.6
576.035,879.9
576.169,919.5
576.303,926.7
576.438,913.8
576.572,922.5
576.706,953.8
576.84,1004.4
576.974,1053.0
577.108,1038.5
577.242,966.8
577.376,905.2
577.51,877.6
577.644,867.1
577.778,860.6
577.912,856.3
578.046,855.2
578.18,853.1
578.314,851.4
578.448,849.9
578.582,851.5
578.716,850.0
578.85,849.7
578.984,850.5
579.117,848.7
579.251,847.9
579.385,847.0
579.519,848.5
579.653,847.1
579.787,849.4
579.921,849.5
580.055,850.1
580.189,847.2
580.323,848.9
580.456,847.1
580.59,847.3
580.724,849.7
580.858,845.8
580.992,846.4
581.126,846.3
581.26,845.1
581.393,847.4
581.527,846.6
581.661,848.6
581.795,847.6
581.929,847.1
582.063,847.1
582.196,847.5
582.33,846.9
582.464,848.5
582.598,850.2
582.731,849.3
582.865,849.1
582.999,849.2
583.133,850.2
583.267,848.5
583.4,849.2
583.534,848.8
583.668,847.9
583.801,849.7
583.935,847.7
584.069,847.8
584.203,848.9
584.336,849.7
584.47,848.9
584.604,849.3
584.737,848.2
584.871,849.6
585.005,850.9
585.138,849.9
585.272,850.6
585.406,848.6
585.539,849.8
585.673,850.1
585.807,849.3
585.94,848.5
586.074,847.4
586.208,847.0
586.341,848.3
586.475,847.3
586.608,847.5
586.742,848.8
586.876,848.1
587.009,847.3
587.143,848.2
587.276,845.1
587.41,846.5
587.543,844.3
587.677,847.8
587.811,846.7
587.944,848.0
588.078,846.3
588.211,847.7
588.345,847.0
588.478,846.3
588.612,847.9
588.745,848.0
588.879,847.0
589.012,845.1
589.146,847.9
589.279,847.3
589.413,846.9
589.546,846.2
589.68,846.1
589.813,845.4
589.947,846.3
590.08,848.4
590.214,849.6
590.347,845.7
590.48,847.7
590.614,847.8
590.747,846.7
590.881,845.7
591.014,847.3
591.148,847.6
591.281,847.1
591.414,845.8
591.548,846.0
591.681,847.1
591.815,846.5
591.948,846.8
592.081,846.7
592.215,846.5
592.348,847.0
592.481,847.9
592.615,848.0
592.748,848.7
592.881,848.5
593.015,847.1
593.148,847.4
593.281,848.3
593.415,847.3
593.548,846.6
593.681,847.4
593.815,846.0
593.948,849.7
594.081,846.8
594.215,847.2
594.348,849.5
594.481,848.2
594.614,846.3
594.748,845.5
594.881,848.2
595.014,846.8
595.147,846.5
595.281,846.0
595.414,848.8
595.547,847.1
595.68,848.2
595.814,848.9
595.947,846.8
596.08,848.1
596.213,846.5
596.347,845.6
596.48,846.2
596.613,848.6
596.746,846.6
596.879,848.9
597.012,847.9
597.146,846.3
597.279,848.1
597.412,848.8
597.545,849.1
597.678,848.3
597.811,849.3
597.945,847.4
598.078,847.0
598.211,846.7
598.344,846.9
598.477,848.7
598.61,846.5
598.743,848.0
598.876,847.8
599.009,849.3
599.143,849.4
599.276,848.0
599.409,846.3
599.542,848.6
599.675,848.2
599.808,848.2
599.941,847.7
600.074,847.4
600.207,847.0
600.34,848.2
600.473,846.9
600.606,845.5
600.739,846.5
600.872,847.8
601.005,844.8
601.138,847.8
601.271,848.3
601.404,847.2
601.537,848.3
601.67,844.9
601.803,846.8
601.936,846.1
602.069,844.8
602.202,847.5
602.335,845.8
602.468,847.5
602.601,846.9
602.734,845.8
602.867,845.9
603.0,848.7
603.133,848.0
603.266,847.6
603.399,847.0
603.532,846.2
603.665,846.4
603.798,847.4
603.931,849.0
604.064,847.2
604.196,847.0
604.329,848.1
604.462,848.1
604.595,845.8
604.728,846.5
604.861,848.6
604.994,848.5
605.127,847.1
605.259,849.0
605.392,846.9
605.525,847.3
605.658,849.3
605.791,846.4
605.924,846.7
606.057,849.4
606.189,848.8
606.322,847.8
606.455,847.8
606.588,848.4
606.721,848.6
606.853,849.0
606.986,847.5
607.119,849.4
607.252,848.2
607.385,849.2
607.517,848.1
607.65,847.5
607.783,848.3
607.916,849.0
608.049,847.7
608.181,848.8
608.314,846.3
608.447,846.2
608.58,844.2
608.712,847.4
608.845,847.2
608.978,846.9
609.111,844.4
609.243,848.3
609.376,847.5
609.509,847.0
609.641,846.6
609.774,846.3
609.907,846.1
610.039,847.1
610.172,846.1
610.305,848.1
610.438,847.7
610.57,847.0
610.703,846.9
610.836,844.6
610.968,846.3
611.101,847.2
611.234,846.7
611.366,845.4
611.499,844.9
611.631,847.7
611.764,845.8
611.897,847.8
612.029,847.8
612.162,844.9
612.295,847.9
612.427,846.7
612.56,846.2
612.692,844.8
612.825,846.2
612.958,848.2
613.09,846.4
613.223,848.2
613.355,846.1
613.488,845.5
613.621,846.7
613.753,845.2
613.886,849.6
614.018,846.2
614.151,849.1
614.283,847.0
614.416,849.4
614.548,846.7
614.681,848.2
614.814,848.8
614.946,848.0
615.079,849.8
615.211,849.4
615.344,848.7
615.476,848.8
615.609,849.1
615.741,848.1
615.874,848.8
616.006,848.2
616.139,847.6
616.271,848.0
616.404,846.5
616.536,850.4
616.669,849.6
616.801,851.5
616.933,851.5
617.066,852.6
617.198,853.5
617.331,853.8
617.463,852.3
617.596,851.7
617.728,853.1
617.861,854.1
617.993,853.4
618.125,853.4
618.258,855.4
618.39,855.4
618.523,852.3
618.655,853.6
618.788,852.4
618.92,850.8
619.052,855.1
619.185,854.4
619.317,857.2
619.45,861.1
619.582,863.0
619.714,863.1
619.847,862.6
619.979,865.2
620.111,860.9
620.244,861.3
620.376,863.6
620.509,862.6
620.641,861.8
620.773,861.4
620.906,863.4
621.038,859.9
621.17,864.5
621.303,864.8
621.435,868.4
621.567,871.1
621.7,879.8
621.832,885.8
621.964,891.5
622.096,897.6
622.229,910.1
622.361,923.8
622.493,920.4
622.626,902.2
622.758,895.6
622.89,886.3
623.022,879.6
623.155,877.5
623.287,871.7
623.419,869.1
623.552,868.4
623.684,868.1
623.816,862.6
623.948,858.2
624.081,860.3
624.213,861.4
624.345,859.2
624.477,857.5
624.61,858.9
624.742,858.2
624.874,860.1
625.006,862.2
625.138,862.4
625.271,863.9
625.403,863.6
625.535,866.7
625.667,870.3
625.799,874.8
625.932,876.9
626.064,885.4
626.196,889.7
626.328,900.4
626.46,929.8
626.593,984.8
626.725,1082.7
626.857,1200.9
626.989,1245.4
627.121,1189.6
627.253,1098.6
627.386,1033.3
627.518,1018.2
627.65,1032.3
627.782,1133.7
627.914,1313.8
628.046,1448.6
628.178,1467.7
628.311,1481.0
628.443,1572.5
628.575,1662.7
628.707,1705.7
628.839,1671.8
628.971,1571.4
629.103,1484.7
629.235,1440.0
629.367,1450.4
629.5,1475.8
629.632,1465.7
629.764,1384.6
629.896,1319.1
630.028,1294.1
630.16,1310.8
630.292,1328.0
630.424,1298.2
630.556,1240.4
630.688,1150.1
630.82,1089.4
630.952,1065.2
631.084,1099.7
631.216,1195.5
631.349,1304.2
631.481,1348.6
631.613,1349.8
631.745,1374.6
631.877,1357.5
632.009,1269.6
632.141,1184.0
632.273,1088.0
632.405,1010.6
632.537,960.6
632.669,930.4
632.801,909.1
632.933,899.8
633.065,888.0
633.197,881.6
633.329,875.6
633.461,874.0
633.593,870.2
633.725,868.2
633.857,864.6
633.989,861.0
634.121,860.6
634.253,858.6
634.385,855.6
634.517,853.6
634.649,854.5
634.781,854.3
634.912,854.5
635.044,853.0
635.176,852.1
635.308,850.8
635.44,852.3
635.572,853.2
635.704,852.6
635.836,851.6
635.968,850.5
636.1,848.6
636.232,847.8
636.364,850.1
636.496,849.7
636.628,848.0
636.76,847.9
636.891,849.8
637.023,848.6
637.155,848.1
637.287,846.0
637.419,846.7
637.551,847.0
637.683,847.8
637.815,845.8
637.947,848.5
638.078,848.7
638.21,849.1
638.342,849.2
638.474,849.7
638.606,847.7
638.738,848.4
638.87,849.8
639.002,849.9
639.133,847.1
639.265,850.8
639.397,848.9
639.529,849.1
639.661,849.4
639.793,847.3
639.924,848.3
640.056,849.0
640.188,846.9
640.32,848.1
640.452,847.5
640.584,848.1
640.715,849.2
640.847,850.5
640.979,847.2
641.111,849.5
641.243,849.4
641.374,850.9
641.506,850.2
641.638,849.3
641.77,848.2
641.902,849.3
642.033,850.2
642.165,847.7
642.297,847.2
642.429,848.4
642.561,845.9
642.692,844.9
642.824,845.7
642.956,845.1
643.088,844.6
643.219,844.4
643.351,843.7
643.483,844.5
643.615,844.2
643.746,844.4
643.878,845.3
644.01,842.7
644.142,842.9
644.273,844.8
644.405,843.8
644.537,843.2
644.669,843.6
644.8,843.6
644.932,842.5
645.064,844.3
645.195,842.8
645.327,842.7
645.459,841.8
645.591,840.9
645.722,841.4
645.854,842.4
645.986,841.8
646.117,842.9
646.249,842.2
646.381,841.9
646.512,841.4
646.644,841.9
646.776,840.3
646.908,842.5
647.039,843.1
647.171,842.3
647.303,842.9
647.434,842.5
647.566,844.4
647.698,841.7
647.829,841.2
647.961,842.1
648.093,842.4
648.224,841.8
648.356,841.3
648.488,839.8
648.619,840.0
648.751,841.6
648.883,841.4
649.014,842.9
649.146,840.9
649.277,842.2
649.409,841.6
649.541,841.4
649.672,841.2
649.804,841.3
649.936,840.9
650.067,840.3
650.199,840.1
650.33,841.2
650.462,841.6
650.594,841.1
650.725,842.0
650.857,839.8
650.988,840.0
651.12,842.7
651.252,839.5
651.383,839.1
651.515,840.5
651.646,840.5
651.778,839.8
651.91,839.8
652.041,839.5
652.173,840.6
652.304,839.8
652.436,839.9
652.568,840.3
652.699,840.0
652.831,840.9
652.962,840.1
653.094,839.1
653.225,840.2
653.357,840.6
653.489,840.4
653.62,837.5
653.752,839.9
653.883,837.3
654.015,840.2
654.146,840.8
654.278,838.9
654.409,839.7
654.541,839.8
654.672,838.1
654.804,838.1
654.935,837.3
655.067,839.3
655.199,838.9
655.33,837.5
655.462,838.4
655.593,838.9
655.725,840.1
655.856,838.1
655.988,837.4
656.119,838.3
656.251,840.4
656.382,839.3
656.514,838.9
656.645,838.0
656.777,837.8
656.908,839.1
657.04,838.1
657.171,838.5
657.303,838.3
657.434,836.2
657.566,838.7
657.697,836.8
657.829,838.7
657.96,839.6
658.092,838.4
658.223,839.5
658.355,839.3
658.486,839.3
658.617,837.4
658.749,839.0
658.88,839.5
659.012,838.6
659.143,837.0
659.275,839.1
659.406,839.9
659.538,837.5
659.669,837.5
659.801,837.5
659.932,836.7
660.064,838.4
660.195,839.0
660.326,838.0
660.458,837.6
660.589,838.2
660.721,837.7
660.852,836.8
660.984,838.3
661.115,837.7
661.246,837.2
661.378,836.2
661.509,837.2
661.641,839.2
661.772,837.1
661.904,837.4
662.035,838.2
662.166,837.5
662.298,838.4
662.429,838.4
662.561,836.5
662.692,839.6
662.823,836.8
662.955,835.7
663.086,836.9
