nm,Intensity
791.588,6006.9
791.862,5881.7
792.136,5856.1
792.411,5896.7
792.685,5829.6
792.959,5833.0
793.233,5811.4
793.507,5811.2
793.781,5812.9
794.056,5802.1
794.33,5846.6
794.604,5901.5
794.878,5816.5
795.152,5782.6
795.426,5815.0
795.701,5789.8
795.975,5879.4
796.249,5901.2
796.523,5807.8
796.797,5802.6
797.071,5777.4
797.345,5803.8
797.619,5827.1
797.894,5809.5
798.168,5802.8
798.442,5747.0
798.716,5712.7
798.99,5752.3
799.264,5772.9
799.538,5775.4
799.812,5737.9
800.086,5755.7
800.36,5764.0
800.634,5746.6
800.908,5727.2
801.182,5736.7
801.456,5746.4
801.73,5725.6
802.004,5685.8
802.278,5712.8
802.552,5650.6
802.826,5656.5
803.1,5682.1
803.374,5621.8
803.648,5614.3
803.922,5660.0
804.196,5646.9
804.47,5618.1
804.744,5593.9
805.018,5638.8
805.292,5615.2
805.566,5611.0
805.84,5616.5
806.114,5573.0
806.388,5523.3
806.662,5506.5
806.936,5559.8
807.209,5590.1
807.483,5514.0
807.757,5501.2
808.031,5502.5
808.305,5491.5
808.579,5480.4
808.853,5516.3
809.127,5502.5
809.4,5526.8
809.674,5495.4
809.948,5471.0
810.222,5539.6
810.496,5501.5
810.77,5449.1
811.043,5414.8
811.317,5469.8
811.591,5411.1
811.865,5399.0
812.139,5381.4
812.412,5400.5
812.686,5341.0
812.96,5331.5
813.234,5408.6
813.507,5404.5
813.781,5407.9
814.055,5342.6
814.329,5335.6
814.602,5308.5
814.876,5300.6
815.15,5315.6
815.424,5304.8
815.697,5255.7
815.971,5252.5
816.245,5286.4
816.518,5286.8
816.792,5227.3
817.066,5215.0
817.34,5229.8
817.613,5215.7
817.887,5239.2
818.161,5196.4
818.434,5173.7
818.708,5217.5
818.981,5228.8
819.255,5199.1
819.529,5186.7
819.802,5127.3
820.076,5136.2
820.35,5159.5
820.623,5134.0
820.897,5110.1
821.17,5123.0
821.444,5124.4
821.718,5090.2
821.991,5117.1
822.265,5100.9
822.538,5079.6
822.812,5078.2
823.085,5059.1
823.359,5022.3
823.632,5043.5
823.906,5066.8
824.179,5052.2
824.453,5074.6
824.727,5042.1
825.0,5029.8
825.274,5001.1
825.547,4998.1
825.821,4984.2
826.094,5014.9
826.367,5010.9
826.641,4999.9
826.914,4981.2
827.188,4960.3
827.461,4965.4
827.735,4973.4
828.008,4951.8
828.282,4923.3
828.555,4923.7
828.828,4926.0
829.102,4929.2
829.375,4925.2
829.649,4961.3
829.922,4879.7
830.195,4862.3
830.469,4881.3
830.742,4890.3
831.016,4902.0
831.289,4870.5
831.562,4842.5
831.836,4858.4
832.109,4825.7
832.382,4855.7
832.656,4849.9
832.929,4849.9
833.202,4874.7
833.476,4834.1
833.749,4822.6
834.022,4822.0
834.295,4844.5
834.569,4817.8
834.842,4804.1
835.115,4745.3
835.388,4792.5
835.662,4811.9
835.935,4817.2
836.208,4817.1
836.481,4802.9
836.755,4792.2
837.028,4777.8
837.301,4791.3
837.574,4816.8
837.848,4882.2
838.121,4891.6
838.394,4843.7
838.667,4791.4
838.94,4791.9
839.213,4747.2
839.487,4754.5
839.76,4743.6
840.033,4769.6
840.306,4786.8
840.579,4770.8
840.852,4750.1
841.125,4708.7
841.399,4703.1
841.672,4687.0
841.945,4714.1
842.218,4720.1
842.491,4715.4
842.764,4687.2
843.037,4657.1
843.31,4662.9
843.583,4697.3
843.856,4666.5
844.129,4652.2
844.402,4668.2
844.675,4662.8
844.948,4667.5
845.221,4671.3
845.495,4639.0
845.768,4652.4
846.041,4638.7
846.314,4643.2
846.586,4601.4
846.859,4621.2
847.132,4632.4
847.405,4662.5
847.678,4633.2
847.951,4639.0
848.224,4623.1
848.497,4629.1
848.77,4638.8
849.043,4616.4
849.316,4642.0
849.589,4653.0
849.862,4638.6
850.135,4636.2
850.408,4635.7
850.68,4612.1
850.953,4587.3
851.226,4607.5
851.499,4621.2
851.772,4596.5
852.045,4597.4
852.318,4615.5
852.591,4593.9
852.863,4590.2
853.136,4584.7
853.409,4578.4
853.682,4595.6
853.955,4594.9
854.227,4597.8
854.5,4578.4
854.773,4593.1
855.046,4580.6
855.318,4582.4
855.591,4572.5
855.864,4565.6
856.137,4550.8
856.409,4544.7
856.682,4537.9
856.955,4546.7
857.228,4563.2
857.5,4538.9
857.773,4558.8
858.046,4561.0
858.318,4562.5
858.591,4559.1
858.864,4548.2
859.136,4559.3
859.409,4544.7
859.682,4524.2
859.954,4531.7
860.227,4530.4
860.5,4525.3
860.772,4534.0
861.045,4549.0
861.318,4540.7
861.59,4530.0
861.863,4547.7
862.135,4549.1
862.408,4551.3
862.681,4585.4
862.953,4586.3
863.226,4558.2
863.498,4546.3
863.771,4555.3
864.043,4558.0
864.316,4591.6
864.588,4568.6
864.861,4538.6
865.133,4517.0
865.406,4526.1
865.678,4495.1
865.951,4498.8
866.223,4513.1
866.496,4501.8
866.768,4498.7
867.041,4532.5
867.313,4529.6
867.586,4540.6
867.858,4519.9
868.131,4492.7
868.403,4497.8
868.675,4504.4
868.948,4498.4
869.22,4505.5
869.493,4494.0
869.765,4489.5
870.037,4477.0
870.31,4497.2
870.582,4510.0
870.854,4493.9
871.127,4501.7
871.399,4510.2
871.672,4489.3
871.944,4473.0
872.216,4466.8
872.488,4483.2
872.761,4480.3
873.033,4465.9
873.305,4469.1
873.578,4507.3
873.85,4509.0
874.122,4495.6
874.394,4496.5
874.667,4494.0
874.939,4467.0
875.211,4477.3
875.483,4477.6
875.756,4471.8
876.028,4492.7
876.3,4496.5
876.572,4513.2
876.845,4508.3
877.117,4522.6
877.389,4468.0
877.661,4458.5
877.933,4482.8
878.205,4472.6
878.478,4479.6
878.75,4458.6
879.022,4438.7
879.294,4441.6
879.566,4428.3
879.838,4420.5
880.11,4448.2
880.382,4435.2
880.654,4416.6
880.927,4414.6
881.199,4414.5
881.471,4403.5
881.743,4390.2
882.015,4392.2
882.287,4406.6
882.559,4405.5
882.831,4415.8
883.103,4417.3
883.375,4403.6
883.647,4381.9
883.919,4385.8
884.191,4416.8
884.463,4439.2
884.735,4424.9
885.007,4431.4
885.279,4422.3
885.551,4430.0
885.823,4450.2
886.095,4459.6
886.367,4433.2
886.639,4399.4
886.91,4394.9
887.182,4400.8
887.454,4391.5
887.726,4377.1
887.998,4341.8
888.27,4340.1
888.542,4363.7
888.814,4342.9
889.085,4339.7
889.357,4353.9
889.629,4339.8
889.901,4325.7
890.173,4321.0
890.445,4328.7
890.716,4329.4
890.988,4311.0
891.26,4314.7
891.532,4303.3
891.804,4326.3
892.075,4325.0
892.347,4320.7
892.619,4326.4
892.891,4322.2
893.162,4286.8
893.434,4284.4
893.706,4289.3
893.978,4286.6
894.249,4282.5
894.521,4277.7
894.793,4281.4
895.064,4273.5
895.336,4278.3
895.608,4265.3
895.879,4267.5
896.151,4248.0
896.423,4239.7
896.694,4233.0
896.966,4240.5
897.237,4246.3
897.509,4244.6
897.781,4250.3
898.052,4244.4
898.324,4236.1
898.595,4233.5
898.867,4237.2
899.139,4233.7
899.41,4215.8
899.682,4225.5
899.953,4208.5
900.225,4211.6
900.496,4217.2
900.768,4213.1
901.039,4196.3
901.311,4209.8
901.582,4206.4
901.854,4208.3
902.125,4183.9
902.397,4193.2
902.668,4195.1
902.94,4199.1
903.211,4189.4
903.482,4160.9
903.754,4166.6
904.025,4170.9
904.297,4177.5
904.568,4167.7
904.839,4182.5
905.111,4175.5
905.382,4166.3
905.654,4144.2
905.925,4146.8
906.196,4132.7
906.468,4149.3
906.739,4135.6
907.01,4133.9
907.282,4131.3
907.553,4128.8
907.824,4117.9
908.096,4126.2
908.367,4127.0
908.638,4127.4
908.909,4127.2
909.181,4131.3
909.452,4127.2
909.723,4122.7
909.994,4111.3
910.266,4101.9
910.537,4103.9
910.808,4105.7
911.079,4096.2
911.35,4097.8
911.622,4097.3
911.893,4082.5
912.164,4072.3
912.435,4075.2
912.706,4079.2
912.977,4083.2
913.249,4081.2
913.52,4066.5
913.791,4062.6
914.062,4062.3
914.333,4066.9
914.604,4061.6
914.875,4050.0
915.146,4073.6
915.417,4065.1
915.688,4055.8
915.959,4052.7
916.231,4047.5
916.502,4045.8
916.773,4047.9
917.044,4044.7
917.315,4050.1
917.586,4050.9
917.857,4035.0
918.128,4028.5
918.399,4027.9
918.67,4028.0
918.941,4024.0
919.211,4028.3
919.482,4027.1
919.753,4022.4
920.024,4022.3
920.295,4023.9
920.566,4022.5
920.837,4009.8
921.108,4005.3
921.379,4006.5
921.65,4007.0
921.921,4009.1
922.191,4009.7
922.462,4003.0
922.733,3992.2
923.004,3993.1
923.275,3991.7
923.546,3984.5
923.816,3983.6
924.087,3980.2
924.358,3989.4
924.629,3984.6
924.9,3981.1
925.17,3978.7
925.441,3976.4
925.712,3969.4
925.983,3972.5
926.253,3965.4
926.524,3971.0
926.795,3975.2
927.065,3973.6
927.336,3961.7
927.607,3954.2
927.877,3962.8
928.148,3966.0
928.419,3955.6
928.689,3955.4
928.96,3951.0
929.231,3940.1
929.501,3941.1
929.772,3946.2
930.043,3941.6
930.313,3930.1
930.584,3934.6
930.854,3933.5
931.125,3934.3
931.396,3926.3
931.666,3931.4
931.937,3930.8
932.207,3923.6
932.478,3931.8
932.748,3921.6
933.019,3923.2
933.289,3922.3
933.56,3922.8
933.83,3916.8
934.101,3912.3
934.371,3913.1
934.642,3913.4
934.912,3916.0
935.183,3913.8
935.453,3919.1
935.723,3905.6
935.994,3909.5
936.264,3907.0
936.535,3911.5
936.805,3907.5
937.075,3906.0
937.346,3902.7
937.616,3894.1
937.886,3887.5
938.157,3896.1
938.427,3890.8
938.697,3886.1
938.968,3893.0
939.238,3892.3
939.508,3888.4
939.779,3887.9
940.049,3886.8
940.319,3884.8
940.59,3885.3
940.86,3884.2
941.13,3885.7
941.4,3879.9
941.671,3877.9
941.941,3883.2
942.211,3876.6
942.481,3880.9
942.751,3876.9
943.022,3875.8
943.292,3874.3
943.562,3865.7
943.832,3867.6
944.102,3868.6
944.372,3867.6
944.642,3869.5
944.913,3866.1
945.183,3863.9
945.453,3866.7
945.723,3861.8
945.993,3864.4
946.263,3864.9
946.533,3865.2
946.803,3857.1
947.073,3856.5
947.343,3849.0
947.613,3861.9
947.883,3859.0
948.153,3854.5
948.423,3852.2
948.693,3854.1
948.963,3848.3
949.233,3857.5
949.503,3850.7
949.773,3849.0
950.043,3846.5
950.313,3845.6
950.583,3849.1
950.853,3850.0
951.123,3845.4
951.393,3842.2
951.663,3844.6
951.933,3841.1
952.202,3843.8
952.472,3842.7
952.742,3839.6
953.012,3839.1
953.282,3839.8
953.552,3838.5
953.822,3836.8
954.091,3839.7
954.361,3832.5
954.631,3830.4
954.901,3834.5
955.17,3832.4
955.44,3831.7
955.71,3827.3
955.98,3830.9
956.25,3829.9
956.519,3824.7
956.789,3830.3
957.059,3823.6
957.328,3828.5
957.598,3830.3
957.868,3831.8
958.137,3824.6
958.407,3823.6
958.677,3829.0
958.946,3824.0
959.216,3826.7
959.486,3828.5
959.755,3816.4
960.025,3819.3
960.294,3816.8
960.564,3821.2
960.834,3826.2
961.103,3817.5
961.373,3823.4
961.642,3815.8
961.912,3815.4
962.181,3816.5
962.451,3816.1
962.72,3814.6
962.99,3817.6
963.259,3812.7
963.529,3813.3
963.798,3813.4
964.068,3809.6
964.337,3813.4
964.607,3813.7
964.876,3810.8
965.146,3812.4
965.415,3810.2
965.684,3811.4
965.954,3810.9
966.223,3808.0
966.493,3808.3
966.762,3807.9
967.031,3810.1
967.301,3812.2
967.57,3806.7
967.839,3807.3
968.109,3806.1
968.378,3803.2
968.647,3807.8
968.917,3805.6
969.186,3802.0
969.455,3807.0
969.724,3799.8
969.994,3798.7
970.263,3802.7
970.532,3800.8
970.801,3800.1
971.071,3800.6
971.34,3801.3
971.609,3802.2
971.878,3801.9
972.147,3799.2
972.417,3800.3
972.686,3799.1
972.955,3797.9
973.224,3800.9
973.493,3795.9
973.762,3798.1
974.031,3795.6
974.3,3798.8
974.57,3795.1
974.839,3793.8
975.108,3793.2
975.377,3796.9
975.646,3796.4
975.915,3795.1
976.184,3794.4
976.453,3795.4
976.722,3794.2
976.991,3790.9
977.26,3791.3
977.529,3794.0
977.798,3790.5
978.067,3790.8
978.336,3793.1
978.605,3794.8
978.874,3792.5
979.143,3788.8
979.412,3790.8
979.68,3789.3
979.949,3788.1
980.218,3787.5
980.487,3786.1
980.756,3788.9
981.025,3784.2
981.294,3789.0
981.563,3787.1
981.831,3786.3
982.1,3784.0
982.369,3786.7
982.638,3787.6
982.907,3787.8
983.175,3789.9
983.444,3787.3
983.713,3786.5
983.982,3786.9
984.25,3785.7
984.519,3783.8
984.788,3784.5
985.057,3783.8
985.325,3783.9
985.594,3781.1
985.863,3782.6
986.131,3781.7
986.4,3782.2
986.669,3783.0
986.937,3784.3
987.206,3780.4
987.475,3782.1
987.743,3778.9
988.012,3778.8
988.28,3780.1
988.549,3781.1
988.817,3783.2
989.086,3779.5
989.355,3781.1
989.623,3776.5
989.892,3775.0
990.16,3777.9
990.429,3780.3
990.697,3776.6
990.966,3777.1
991.234,3778.3
991.503,3777.4
991.771,3778.2
992.04,3777.9
992.308,3775.8
992.576,3774.7
992.845,3776.5
993.113,3776.8
993.382,3778.0
993.65,3779.1
993.918,3774.6
994.187,3777.1
994.455,3776.4
994.723,3775.8
994.992,3777.4
995.26,3777.6
995.528,3777.0
995.797,3779.3
996.065,3776.0
996.333,3773.0
996.602,3777.2
996.87,3775.8
997.138,3771.2
997.406,3775.3
997.675,3774.0
997.943,3773.9
998.211,3773.7
998.479,3775.2
998.747,3772.8
999.016,3774.9
999.284,3772.5
999.552,3772.1
999.82,3773.5
1000.09,3771.9
1000.36,3771.7
1000.62,3770.6
1000.89,3771.2
1001.16,3773.2
1001.43,3772.6
1001.7,3770.3
1001.97,3771.5
1002.23,3770.4
1002.5,3767.8
1002.77,3770.2
1003.04,3766.7
1003.31,3769.2
1003.57,3766.9
1003.84,3767.5
1004.11,3768.0
1004.38,3766.3
1004.65,3763.9
1004.91,3766.4
1005.18,3766.9
1005.45,3768.0
1005.72,3767.9
1005.98,3768.4
1006.25,3765.9
1006.52,3768.9
1006.79,3768.5
1007.06,3767.2
1007.32,3766.6
1007.59,3767.6
1007.86,3766.2
1008.13,3771.3
1008.4,3768.0
1008.66,3770.3
1008.93,3769.9
1009.2,3771.7
1009.47,3770.1
1009.73,3770.7
1010.0,3772.6
1010.27,3772.8
1010.54,3775.5
1010.81,3772.1
1011.07,3772.5
1011.34,3775.5
1011.61,3778.2
1011.88,3775.5
1012.14,3777.1
1012.41,3779.4
1012.68,3781.0
1012.95,3779.8
1013.21,3778.6
1013.48,3781.7
1013.75,3782.6
1014.02,3783.7
1014.29,3786.1
1014.55,3783.2
1014.82,3782.0
1015.09,3784.3
1015.36,3780.7
1015.62,3784.6
1015.89,3782.7
1016.16,3779.5
1016.43,3781.5
1016.69,3779.0
1016.96,3774.4
1017.23,3773.8
1017.5,3777.1
1017.76,3777.7
1018.03,3775.2
1018.3,3772.6
1018.57,3772.9
1018.83,3771.2
1019.1,3767.5
1019.37,3771.9
1019.63,3768.9
1019.9,3772.8
1020.17,3768.7
1020.44,3767.9
1020.7,3766.6
1020.97,3768.9
1021.24,3768.8
1021.51,3766.2
1021.77,3767.1
1022.04,3767.7
1022.31,3766.7
1022.58,3766.7
1022.84,3765.4
1023.11,3764.6
1023.38,3764.8
1023.64,3764.6
1023.91,3764.7
1024.18,3765.0
1024.45,3764.5
1024.71,3760.5
1024.98,3759.6
1025.25,3760.2
1025.51,3760.0
1025.78,3758.2
1026.05,3758.7
1026.32,3761.1
1026.58,3759.0
1026.85,3756.2
1027.12,3756.0
1027.38,3758.5
1027.65,3756.0
1027.92,3760.9
1028.19,3757.0
1028.45,3757.0
1028.72,3757.0
1028.99,3755.4
1029.25,3755.0
1029.52,3756.7
1029.79,3759.1
1030.05,3755.9
1030.32,3756.2
1030.59,3756.2
1030.85,3754.7
1031.12,3756.7
1031.39,3757.4
1031.66,3755.1
1031.92,3755.7
1032.19,3755.7
1032.46,3756.4
1032.72,3757.4
1032.99,3755.8
1033.26,3755.1
1033.52,3754.6
1033.79,3756.3
1034.06,3756.6
1034.32,3756.7
1034.59,3754.6
1034.86,3756.3
1035.12,3754.1
1035.39,3755.4
1035.66,3756.7
1035.92,3755.5
1036.19,3756.7
1036.46,3754.7
1036.72,3754.5
1036.99,3754.4
1037.26,3756.1
1037.52,3754.4
1037.79,3754.1
1038.06,3757.7
1038.32,3753.8
1038.59,3756.2
1038.86,3754.6
1039.12,3754.8
1039.39,3755.3
1039.66,3754.7
1039.92,3754.8
1040.19,3754.2
1040.46,3754.1
1040.72,3755.1
1040.99,3755.1
1041.26,3753.9
1041.52,3753.3
1041.79,3754.5
1042.06,3753.5
1042.32,3753.6
1042.59,3753.4
1042.86,3754.1
1043.12,3753.6
1043.39,3755.1
1043.65,3752.4
1043.92,3753.5
1044.19,3752.4
1044.45,3751.9
1044.72,3753.5
1044.99,3752.8
1045.25,3752.3
1045.52,3753.4
1045.79,3753.0
1046.05,3751.9
1046.32,3752.7
1046.58,3752.9
1046.85,3752.7
1047.12,3753.5
1047.38,3753.3
1047.65,3753.9
1047.92,3753.6
1048.18,3753.5
1048.45,3753.2
1048.71,3752.2
1048.98,3752.5
1049.25,3751.2
1049.51,3752.8
1049.78,3751.6
1050.04,3754.4
1050.31,3756.2
1050.58,3752.7
1050.84,3751.7
1051.11,3751.3
1051.37,3752.7
1051.64,3753.8
1051.91,3755.0
1052.17,3752.5
1052.44,3752.1
1052.7,3752.6
1052.97,3752.1
1053.24,3754.1
1053.5,3753.7
1053.77,3751.7
1054.03,3752.3
1054.3,3751.6
1054.57,3752.9
1054.83,3752.2
1055.1,3753.1
1055.36,3753.3
1055.63,3753.4
1055.9,3752.1
1056.16,3753.7
1056.43,3752.4
1056.69,3753.9
1056.96,3752.0
1057.23,3751.0
1057.49,3751.0
1057.76,3750.5
1058.02,3751.5
1058.29,3753.1
1058.55,3753.7
1058.82,3751.8
1059.09,3751.7
1059.35,3751.4
1059.62,3751.3
1059.88,3754.1
1060.15,3753.9
1060.41,3754.0
1060.68,3754.2
1060.95,3752.0
1061.21,3750.6
1061.48,3753.0
1061.74,3752.5
1062.01,3752.4
1062.27,3752.8
1062.54,3753.9
1062.8,3751.3
1063.07,3752.7
1063.34,3751.4
1063.6,3754.0
1063.87,3751.6
1064.13,3749.8
1064.4,3751.6
1064.66,3753.0
1064.93,3751.6
1065.19,3752.2
1065.46,3750.9
1065.73,3750.4
1065.99,3752.4
1066.26,3751.5
1066.52,3750.2
1066.79,3751.9
1067.05,3751.5
1067.32,3751.8
1067.58,3750.9
1067.85,3751.8
1068.11,3750.7
