cm-1,A
4000.0,-0.0069
3999.0,-0.0069
3998.0,-0.0069
3997.0,-0.007
3996.0,-0.007
3995.0,-0.007
3994.0,-0.007
3993.0,-0.007
3992.0,-0.007
3991.0,-0.0071
3990.0,-0.0072
3989.0,-0.0072
3988.0,-0.0072
3987.0,-0.0072
3986.0,-0.0073
3985.0,-0.0073
3984.0,-0.0073
3983.0,-0.0072
3982.0,-0.0072
3981.0,-0.0071
3980.0,-0.0071
3979.0,-0.0071
3978.0,-0.0071
3977.0,-0.007
3976.0,-0.0071
3975.0,-0.0071
3974.0,-0.0071
3973.0,-0.0072
3972.0,-0.0072
3971.0,-0.0072
3970.0,-0.0071
3969.0,-0.0071
3968.0,-0.0072
3967.0,-0.0072
3966.0,-0.0073
3965.0,-0.0073
3964.0,-0.0073
3963.0,-0.0072
3962.0,-0.0072
3961.0,-0.0072
3960.0,-0.0071
3959.0,-0.0071
3958.0,-0.0071
3957.0,-0.007
3956.0,-0.007
3955.0,-0.007
3954.0,-0.007
3953.0,-0.0069
3952.0,-0.0069
3951.0,-0.0069
3950.0,-0.007
3949.0,-0.007
3948.0,-0.007
3947.0,-0.007
3946.0,-0.007
3945.0,-0.007
3944.0,-0.0071
3943.0,-0.0071
3942.0,-0.0072
3941.0,-0.0071
3940.0,-0.0072
3939.0,-0.0072
3938.0,-0.0072
3937.0,-0.0072
3936.0,-0.0072
3935.0,-0.0071
3934.0,-0.0071
3933.0,-0.007
3932.0,-0.0069
3931.0,-0.0068
3930.0,-0.0068
3929.0,-0.0068
3928.0,-0.0069
3927.0,-0.0069
3926.0,-0.007
3925.0,-0.0071
3924.0,-0.0072
3923.0,-0.0072
3922.0,-0.0072
3921.0,-0.0072
3920.0,-0.0071
3919.0,-0.0071
3918.0,-0.0071
3917.0,-0.0072
3916.0,-0.0072
3915.0,-0.0071
3914.0,-0.007
3913.0,-0.007
3912.0,-0.007
3911.0,-0.007
3910.0,-0.007
3909.0,-0.007
3908.0,-0.007
3907.0,-0.0071
3906.0,-0.0072
3905.0,-0.0072
3904.0,-0.007
3903.0,-0.0068
3902.0,-0.0067
3901.0,-0.0067
3900.0,-0.0067
3899.0,-0.0068
3898.0,-0.0069
3897.0,-0.007
3896.0,-0.007
3895.0,-0.007
3894.0,-0.007
3893.0,-0.007
3892.0,-0.0071
3891.0,-0.0072
3890.0,-0.0072
3889.0,-0.0071
3888.0,-0.0071
3887.0,-0.007
3886.0,-0.0071
3885.0,-0.0071
3884.0,-0.0071
3883.0,-0.007
3882.0,-0.007
3881.0,-0.007
3880.0,-0.007
3879.0,-0.007
3878.0,-0.007
3877.0,-0.0071
3876.0,-0.0072
3875.0,-0.0072
3874.0,-0.0073
3873.0,-0.0072
3872.0,-0.0072
3871.0,-0.0073
3870.0,-0.0073
3869.0,-0.0072
3868.0,-0.0071
3867.0,-0.007
3866.0,-0.007
3865.0,-0.007
3864.0,-0.007
3863.0,-0.007
3862.0,-0.007
3861.0,-0.0071
3860.0,-0.0071
3859.0,-0.0072
3858.0,-0.0072
3857.0,-0.0073
3856.0,-0.0073
3855.0,-0.0073
3854.0,-0.0072
3853.0,-0.0072
3852.0,-0.0072
3851.0,-0.0071
3850.0,-0.0071
3849.0,-0.0071
3848.0,-0.0071
3847.0,-0.0071
3846.0,-0.0072
3845.0,-0.0073
3844.0,-0.0074
3843.0,-0.0075
3842.0,-0.0075
3841.0,-0.0074
3840.0,-0.0074
3839.0,-0.0073
3838.0,-0.0073
3837.0,-0.0073
3836.0,-0.0074
3835.0,-0.0075
3834.0,-0.0075
3833.0,-0.0074
3832.0,-0.0073
3831.0,-0.0072
3830.0,-0.0071
3829.0,-0.0071
3828.0,-0.0072
3827.0,-0.0072
3826.0,-0.0073
3825.0,-0.0072
3824.0,-0.0072
3823.0,-0.0072
3822.0,-0.0072
3821.0,-0.0072
3820.0,-0.0072
3819.0,-0.0071
3818.0,-0.0071
3817.0,-0.0072
3816.0,-0.0073
3815.0,-0.0072
3814.0,-0.0071
3813.0,-0.0071
3812.0,-0.0071
3811.0,-0.0071
3810.0,-0.0071
3809.0,-0.0072
3808.0,-0.0073
3807.0,-0.0074
3806.0,-0.0074
3805.0,-0.0074
3804.0,-0.0074
3803.0,-0.0075
3802.0,-0.0075
3801.0,-0.0074
3800.0,-0.0072
3799.0,-0.0071
3798.0,-0.0071
3797.0,-0.0072
3796.0,-0.0073
3795.0,-0.0072
3794.0,-0.0071
3793.0,-0.007
3792.0,-0.0069
3791.0,-0.0069
3790.0,-0.0069
3789.0,-0.007
3788.0,-0.0071
3787.0,-0.0072
3786.0,-0.0072
3785.0,-0.0072
3784.0,-0.0073
3783.0,-0.0073
3782.0,-0.0074
3781.0,-0.0074
3780.0,-0.0074
3779.0,-0.0073
3778.0,-0.0073
3777.0,-0.0073
3776.0,-0.0073
3775.0,-0.0073
3774.0,-0.0073
3773.0,-0.0073
3772.0,-0.0073
3771.0,-0.0073
3770.0,-0.0073
3769.0,-0.0072
3768.0,-0.0072
3767.0,-0.0072
3766.0,-0.0072
3765.0,-0.0073
3764.0,-0.0073
3763.0,-0.0074
3762.0,-0.0075
3761.0,-0.0076
3760.0,-0.0076
3759.0,-0.0075
3758.0,-0.0074
3757.0,-0.0073
3756.0,-0.0073
3755.0,-0.0072
3754.0,-0.0072
3753.0,-0.0072
3752.0,-0.0072
3751.0,-0.0072
3750.0,-0.0073
3749.0,-0.0072
3748.0,-0.0072
3747.0,-0.0071
3746.0,-0.0071
3745.0,-0.007
3744.0,-0.007
3743.0,-0.0069
3742.0,-0.0069
3741.0,-0.007
3740.0,-0.0071
3739.0,-0.0071
3738.0,-0.0071
3737.0,-0.007
3736.0,-0.0069
3735.0,-0.0068
3734.0,-0.0069
3733.0,-0.007
3732.0,-0.0071
3731.0,-0.0072
3730.0,-0.0072
3729.0,-0.0071
3728.0,-0.0072
3727.0,-0.0072
3726.0,-0.0073
3725.0,-0.0073
3724.0,-0.0073
3723.0,-0.0073
3722.0,-0.0074
3721.0,-0.0074
3720.0,-0.0074
3719.0,-0.0075
3718.0,-0.0075
3717.0,-0.0074
3716.0,-0.0074
3715.0,-0.0073
3714.0,-0.0073
3713.0,-0.0074
3712.0,-0.0074
3711.0,-0.0074
3710.0,-0.0074
3709.0,-0.0074
3708.0,-0.0075
3707.0,-0.0075
3706.0,-0.0075
3705.0,-0.0074
3704.0,-0.0074
3703.0,-0.0073
3702.0,-0.0073
3701.0,-0.0072
3700.0,-0.0072
3699.0,-0.0073
3698.0,-0.0074
3697.0,-0.0075
3696.0,-0.0075
3695.0,-0.0075
3694.0,-0.0074
3693.0,-0.0075
3692.0,-0.0075
3691.0,-0.0075
3690.0,-0.0076
3689.0,-0.0076
3688.0,-0.0076
3687.0,-0.0075
3686.0,-0.0074
3685.0,-0.0074
3684.0,-0.0074
3683.0,-0.0074
3682.0,-0.0074
3681.0,-0.0074
3680.0,-0.0074
3679.0,-0.0073
3678.0,-0.0072
3677.0,-0.0072
3676.0,-0.0073
3675.0,-0.0074
3674.0,-0.0075
3673.0,-0.0075
3672.0,-0.0076
3671.0,-0.0077
3670.0,-0.0078
3669.0,-0.0078
3668.0,-0.0078
3667.0,-0.0078
3666.0,-0.0079
3665.0,-0.0079
3664.0,-0.0078
3663.0,-0.0078
3662.0,-0.0078
3661.0,-0.0078
3660.0,-0.0078
3659.0,-0.0078
3658.0,-0.0078
3657.0,-0.0078
3656.0,-0.0078
3655.0,-0.0078
3654.0,-0.0077
3653.0,-0.0077
3652.0,-0.0076
3651.0,-0.0075
3650.0,-0.0075
3649.0,-0.0075
3648.0,-0.0075
3647.0,-0.0075
3646.0,-0.0075
3645.0,-0.0076
3644.0,-0.0077
3643.0,-0.0078
3642.0,-0.0079
3641.0,-0.008
3640.0,-0.008
3639.0,-0.008
3638.0,-0.008
3637.0,-0.0079
3636.0,-0.0079
3635.0,-0.0079
3634.0,-0.0079
3633.0,-0.008
3632.0,-0.008
3631.0,-0.0081
3630.0,-0.0081
3629.0,-0.008
3628.0,-0.0079
3627.0,-0.0077
3626.0,-0.0077
3625.0,-0.0078
3624.0,-0.0079
3623.0,-0.0079
3622.0,-0.008
3621.0,-0.0081
3620.0,-0.0081
3619.0,-0.0081
3618.0,-0.0081
3617.0,-0.0081
3616.0,-0.008
3615.0,-0.0079
3614.0,-0.0078
3613.0,-0.0078
3612.0,-0.0077
3611.0,-0.0077
3610.0,-0.0077
3609.0,-0.0077
3608.0,-0.0077
3607.0,-0.0077
3606.0,-0.0077
3605.0,-0.0077
3604.0,-0.0078
3603.0,-0.0079
3602.0,-0.0081
3601.0,-0.0082
3600.0,-0.0084
3599.0,-0.0085
3598.0,-0.0084
3597.0,-0.0083
3596.0,-0.0082
3595.0,-0.0081
3594.0,-0.008
3593.0,-0.008
3592.0,-0.008
3591.0,-0.008
3590.0,-0.008
3589.0,-0.0081
3588.0,-0.0081
3587.0,-0.0081
3586.0,-0.0081
3585.0,-0.008
3584.0,-0.008
3583.0,-0.008
3582.0,-0.0081
3581.0,-0.0081
3580.0,-0.0081
3579.0,-0.0081
3578.0,-0.0081
3577.0,-0.0081
3576.0,-0.0081
3575.0,-0.0081
3574.0,-0.0081
3573.0,-0.0081
3572.0,-0.0081
3571.0,-0.0081
3570.0,-0.0082
3569.0,-0.0082
3568.0,-0.0081
3567.0,-0.008
3566.0,-0.0078
3565.0,-0.0078
3564.0,-0.0078
3563.0,-0.0078
3562.0,-0.0078
3561.0,-0.0079
3560.0,-0.0079
3559.0,-0.0079
3558.0,-0.0079
3557.0,-0.0078
3556.0,-0.0077
3555.0,-0.0076
3554.0,-0.0076
3553.0,-0.0077
3552.0,-0.0077
3551.0,-0.0077
3550.0,-0.0076
3549.0,-0.0076
3548.0,-0.0076
3547.0,-0.0076
3546.0,-0.0075
3545.0,-0.0075
3544.0,-0.0074
3543.0,-0.0073
3542.0,-0.0073
3541.0,-0.0073
3540.0,-0.0072
3539.0,-0.0072
3538.0,-0.0072
3537.0,-0.0073
3536.0,-0.0074
3535.0,-0.0075
3534.0,-0.0075
3533.0,-0.0075
3532.0,-0.0074
3531.0,-0.0073
3530.0,-0.0073
3529.0,-0.0072
3528.0,-0.0071
3527.0,-0.007
3526.0,-0.0068
3525.0,-0.0066
3524.0,-0.0065
3523.0,-0.0065
3522.0,-0.0065
3521.0,-0.0065
3520.0,-0.0065
3519.0,-0.0065
3518.0,-0.0065
3517.0,-0.0065
3516.0,-0.0065
3515.0,-0.0064
3514.0,-0.0064
3513.0,-0.0063
3512.0,-0.0062
3511.0,-0.0061
3510.0,-0.0061
3509.0,-0.0061
3508.0,-0.006
3507.0,-0.006
3506.0,-0.0059
3505.0,-0.0057
3504.0,-0.0055
3503.0,-0.0053
3502.0,-0.0052
3501.0,-0.0051
3500.0,-0.005
3499.0,-0.0048
3498.0,-0.0047
3497.0,-0.0047
3496.0,-0.0046
3495.0,-0.0045
3494.0,-0.0044
3493.0,-0.0042
3492.0,-0.004
3491.0,-0.0039
3490.0,-0.0037
3489.0,-0.0036
3488.0,-0.0035
3487.0,-0.0035
3486.0,-0.0036
3485.0,-0.0036
3484.0,-0.0035
3483.0,-0.0032
3482.0,-0.003
3481.0,-0.0027
3480.0,-0.0025
3479.0,-0.0023
3478.0,-0.0022
3477.0,-0.0021
3476.0,-0.002
3475.0,-0.0019
3474.0,-0.0017
3473.0,-0.0014
3472.0,-0.0011
3471.0,-0.0009
3470.0,-0.0009
3469.0,-0.0008
3468.0,-0.0006
3467.0,-0.0003
3466.0,0.0001
3465.0,0.0004
3464.0,0.0006
3463.0,0.0007
3462.0,0.0009
3461.0,0.001
3460.0,0.0011
3459.0,0.0012
3458.0,0.0013
3457.0,0.0014
3456.0,0.0017
3455.0,0.0019
3454.0,0.0021
3453.0,0.0023
3452.0,0.0025
3451.0,0.0026
3450.0,0.0027
3449.0,0.0029
3448.0,0.0032
3447.0,0.0035
3446.0,0.0038
3445.0,0.004
3444.0,0.0042
3443.0,0.0043
3442.0,0.0045
3441.0,0.0048
3440.0,0.005
3439.0,0.0052
3438.0,0.0054
3437.0,0.0055
3436.0,0.0057
3435.0,0.006
3434.0,0.0063
3433.0,0.0067
3432.0,0.0071
3431.0,0.0074
3430.0,0.0076
3429.0,0.0079
3428.0,0.0083
3427.0,0.0088
3426.0,0.0093
3425.0,0.0097
3424.0,0.01
3423.0,0.0103
3422.0,0.0107
3421.0,0.0111
3420.0,0.0116
3419.0,0.0121
3418.0,0.0126
3417.0,0.0132
3416.0,0.0138
3415.0,0.0145
3414.0,0.015
3413.0,0.0154
3412.0,0.0157
3411.0,0.0162
3410.0,0.0168
3409.0,0.0175
3408.0,0.0182
3407.0,0.0189
3406.0,0.0195
3405.0,0.0199
3404.0,0.0204
3403.0,0.0209
3402.0,0.0214
3401.0,0.0219
3400.0,0.0222
3399.0,0.0225
3398.0,0.0226
3397.0,0.0228
3396.0,0.023
3395.0,0.0233
3394.0,0.0238
3393.0,0.0244
3392.0,0.025
3391.0,0.0255
3390.0,0.0259
3389.0,0.026
3388.0,0.026
3387.0,0.0261
3386.0,0.0263
3385.0,0.0265
3384.0,0.0267
3383.0,0.0266
3382.0,0.0265
3381.0,0.0264
3380.0,0.0265
3379.0,0.0266
3378.0,0.0265
3377.0,0.0264
3376.0,0.0262
3375.0,0.0262
3374.0,0.0262
3373.0,0.0263
3372.0,0.0263
3371.0,0.0261
3370.0,0.0259
3369.0,0.0258
3368.0,0.0256
3367.0,0.0255
3366.0,0.0253
3365.0,0.025
3364.0,0.0245
3363.0,0.024
3362.0,0.0236
3361.0,0.0234
3360.0,0.0233
3359.0,0.0232
3358.0,0.0229
3357.0,0.0225
3356.0,0.0221
3355.0,0.0216
3354.0,0.0212
3353.0,0.0208
3352.0,0.0204
3351.0,0.0201
3350.0,0.0196
3349.0,0.0191
3348.0,0.0187
3347.0,0.0184
3346.0,0.0181
3345.0,0.0179
3344.0,0.0176
3343.0,0.0172
3342.0,0.0167
3341.0,0.0162
3340.0,0.0157
3339.0,0.0153
3338.0,0.0149
3337.0,0.0145
3336.0,0.0141
3335.0,0.0139
3334.0,0.0137
3333.0,0.0134
3332.0,0.0129
3331.0,0.0124
3330.0,0.0119
3329.0,0.0114
3328.0,0.011
3327.0,0.0107
3326.0,0.0104
3325.0,0.0101
3324.0,0.0098
3323.0,0.0095
3322.0,0.0091
3321.0,0.0087
3320.0,0.0084
3319.0,0.0081
3318.0,0.0078
3317.0,0.0075
3316.0,0.0072
3315.0,0.0068
3314.0,0.0064
3313.0,0.006
3312.0,0.0057
3311.0,0.0054
3310.0,0.0051
3309.0,0.0048
3308.0,0.0046
3307.0,0.0042
3306.0,0.0039
3305.0,0.0036
3304.0,0.0032
3303.0,0.0029
3302.0,0.0026
3301.0,0.0024
3300.0,0.0022
3299.0,0.0021
3298.0,0.002
3297.0,0.0019
3296.0,0.0018
3295.0,0.0016
3294.0,0.0015
3293.0,0.0013
3292.0,0.001
3291.0,0.0007
3290.0,0.0004
3289.0,0.0002
3288.0,0.0001
3287.0,0.0001
3286.0,-0.0
3285.0,-0.0002
3284.0,-0.0004
3283.0,-0.0006
3282.0,-0.0008
3281.0,-0.0009
3280.0,-0.0009
3279.0,-0.0009
3278.0,-0.0009
3277.0,-0.001
3276.0,-0.001
3275.0,-0.001
3274.0,-0.0011
3273.0,-0.0013
3272.0,-0.0015
3271.0,-0.0016
3270.0,-0.0017
3269.0,-0.0017
3268.0,-0.0016
3267.0,-0.0016
3266.0,-0.0016
3265.0,-0.0016
3264.0,-0.0015
3263.0,-0.0015
3262.0,-0.0014
3261.0,-0.0014
3260.0,-0.0013
3259.0,-0.0013
3258.0,-0.0011
3257.0,-0.001
3256.0,-0.0009
3255.0,-0.0008
3254.0,-0.0007
3253.0,-0.0008
3252.0,-0.0008
3251.0,-0.0008
3250.0,-0.0007
3249.0,-0.0006
3248.0,-0.0005
3247.0,-0.0002
3246.0,0.0001
3245.0,0.0003
3244.0,0.0005
3243.0,0.0005
3242.0,0.0004
3241.0,0.0004
3240.0,0.0004
3239.0,0.0004
3238.0,0.0004
3237.0,0.0004
3236.0,0.0004
3235.0,0.0003
3234.0,0.0001
3233.0,-0.0
3232.0,-0.0002
3231.0,-0.0002
3230.0,-0.0003
3229.0,-0.0004
3228.0,-0.0005
3227.0,-0.0006
3226.0,-0.0008
3225.0,-0.001
3224.0,-0.0011
3223.0,-0.0013
3222.0,-0.0015
3221.0,-0.0018
3220.0,-0.002
3219.0,-0.0022
3218.0,-0.0023
3217.0,-0.0024
3216.0,-0.0025
3215.0,-0.0028
3214.0,-0.003
3213.0,-0.0032
3212.0,-0.0034
3211.0,-0.0036
3210.0,-0.0037
3209.0,-0.0039
3208.0,-0.0041
3207.0,-0.0043
3206.0,-0.0045
3205.0,-0.0047
3204.0,-0.0048
3203.0,-0.005
3202.0,-0.0051
3201.0,-0.0052
3200.0,-0.0054
3199.0,-0.0054
3198.0,-0.0055
3197.0,-0.0056
3196.0,-0.0056
3195.0,-0.0057
3194.0,-0.0057
3193.0,-0.0058
3192.0,-0.0059
3191.0,-0.006
3190.0,-0.0061
3189.0,-0.0061
3188.0,-0.0061
3187.0,-0.0062
3186.0,-0.0062
3185.0,-0.0063
3184.0,-0.0063
3183.0,-0.0063
3182.0,-0.0062
3181.0,-0.0063
3180.0,-0.0064
3179.0,-0.0065
3178.0,-0.0065
3177.0,-0.0065
3176.0,-0.0065
3175.0,-0.0065
3174.0,-0.0066
3173.0,-0.0067
3172.0,-0.0068
3171.0,-0.0068
3170.0,-0.0068
3169.0,-0.0068
3168.0,-0.0067
3167.0,-0.0068
3166.0,-0.0068
3165.0,-0.0068
3164.0,-0.0067
3163.0,-0.0067
3162.0,-0.0067
3161.0,-0.0067
3160.0,-0.0068
3159.0,-0.0069
3158.0,-0.007
3157.0,-0.007
3156.0,-0.0069
3155.0,-0.0068
3154.0,-0.0068
3153.0,-0.0068
3152.0,-0.0069
3151.0,-0.007
3150.0,-0.0071
3149.0,-0.0071
3148.0,-0.0071
3147.0,-0.0071
3146.0,-0.0071
3145.0,-0.0071
3144.0,-0.0071
3143.0,-0.007
3142.0,-0.007
3141.0,-0.007
3140.0,-0.007
3139.0,-0.007
3138.0,-0.0071
3137.0,-0.0071
3136.0,-0.0071
3135.0,-0.0071
3134.0,-0.0071
3133.0,-0.0071
3132.0,-0.007
3131.0,-0.007
3130.0,-0.0069
3129.0,-0.0069
3128.0,-0.0069
3127.0,-0.007
3126.0,-0.007
3125.0,-0.0071
3124.0,-0.0071
3123.0,-0.0071
3122.0,-0.0071
3121.0,-0.007
3120.0,-0.007
3119.0,-0.007
3118.0,-0.0071
3117.0,-0.007
3116.0,-0.007
3115.0,-0.0069
3114.0,-0.0069
3113.0,-0.0068
3112.0,-0.0068
3111.0,-0.0068
3110.0,-0.0067
3109.0,-0.0067
3108.0,-0.0067
3107.0,-0.0068
3106.0,-0.0069
3105.0,-0.0069
3104.0,-0.0069
3103.0,-0.0068
3102.0,-0.0068
3101.0,-0.0068
3100.0,-0.0068
3099.0,-0.0069
3098.0,-0.0069
3097.0,-0.0069
3096.0,-0.0069
3095.0,-0.0068
3094.0,-0.0068
3093.0,-0.0068
3092.0,-0.0068
3091.0,-0.0068
3090.0,-0.0068
3089.0,-0.0068
3088.0,-0.0068
3087.0,-0.0068
3086.0,-0.0068
3085.0,-0.0068
3084.0,-0.0068
3083.0,-0.0068
3082.0,-0.0068
3081.0,-0.0068
3080.0,-0.0067
3079.0,-0.0066
3078.0,-0.0066
3077.0,-0.0066
3076.0,-0.0065
3075.0,-0.0065
3074.0,-0.0064
3073.0,-0.0064
3072.0,-0.0063
3071.0,-0.0063
3070.0,-0.0064
3069.0,-0.0065
3068.0,-0.0065
3067.0,-0.0066
3066.0,-0.0066
3065.0,-0.0065
3064.0,-0.0065
3063.0,-0.0065
3062.0,-0.0065
3061.0,-0.0065
3060.0,-0.0065
3059.0,-0.0064
3058.0,-0.0063
3057.0,-0.0063
3056.0,-0.0063
3055.0,-0.0063
3054.0,-0.0063
3053.0,-0.0063
3052.0,-0.0063
3051.0,-0.0063
3050.0,-0.0063
3049.0,-0.0062
3048.0,-0.0062
3047.0,-0.0062
3046.0,-0.0062
3045.0,-0.0062
3044.0,-0.0062
3043.0,-0.0062
3042.0,-0.0061
3041.0,-0.0061
3040.0,-0.0062
3039.0,-0.0062
3038.0,-0.0062
3037.0,-0.0062
3036.0,-0.0062
3035.0,-0.0061
3034.0,-0.0061
3033.0,-0.006
3032.0,-0.006
3031.0,-0.006
3030.0,-0.006
3029.0,-0.006
3028.0,-0.0061
3027.0,-0.0061
3026.0,-0.0061
3025.0,-0.006
3024.0,-0.0059
3023.0,-0.0059
3022.0,-0.0058
3021.0,-0.0058
3020.0,-0.0059
3019.0,-0.0059
3018.0,-0.0059
3017.0,-0.0058
3016.0,-0.0058
3015.0,-0.0057
3014.0,-0.0057
3013.0,-0.0058
3012.0,-0.0058
3011.0,-0.0058
3010.0,-0.0058
3009.0,-0.0058
3008.0,-0.0058
3007.0,-0.0059
3006.0,-0.0059
3005.0,-0.0059
3004.0,-0.0059
3003.0,-0.0058
3002.0,-0.0057
3001.0,-0.0056
3000.0,-0.0056
2999.0,-0.0055
2998.0,-0.0055
2997.0,-0.0056
2996.0,-0.0056
2995.0,-0.0057
2994.0,-0.0058
2993.0,-0.0058
2992.0,-0.0058
2991.0,-0.0057
2990.0,-0.0056
2989.0,-0.0056
2988.0,-0.0056
2987.0,-0.0056
2986.0,-0.0057
2985.0,-0.0057
2984.0,-0.0058
2983.0,-0.0058
2982.0,-0.0058
2981.0,-0.0057
2980.0,-0.0057
2979.0,-0.0056
2978.0,-0.0056
2977.0,-0.0056
2976.0,-0.0055
2975.0,-0.0055
2974.0,-0.0055
2973.0,-0.0054
2972.0,-0.0055
2971.0,-0.0055
2970.0,-0.0055
2969.0,-0.0054
2968.0,-0.0054
2967.0,-0.0053
2966.0,-0.0053
2965.0,-0.0053
2964.0,-0.0055
2963.0,-0.0056
2962.0,-0.0056
2961.0,-0.0056
2960.0,-0.0056
2959.0,-0.0056
2958.0,-0.0055
2957.0,-0.0055
2956.0,-0.0054
2955.0,-0.0054
2954.0,-0.0054
2953.0,-0.0054
2952.0,-0.0055
2951.0,-0.0055
2950.0,-0.0055
2949.0,-0.0055
2948.0,-0.0054
2947.0,-0.0053
2946.0,-0.0053
2945.0,-0.0052
2944.0,-0.0051
2943.0,-0.0051
2942.0,-0.0051
2941.0,-0.0052
2940.0,-0.0052
2939.0,-0.0053
2938.0,-0.0053
2937.0,-0.0053
2936.0,-0.0052
2935.0,-0.0052
2934.0,-0.0051
2933.0,-0.0051
2932.0,-0.0052
2931.0,-0.0052
2930.0,-0.0052
2929.0,-0.0052
2928.0,-0.0051
2927.0,-0.0051
2926.0,-0.0051
2925.0,-0.0051
2924.0,-0.0052
2923.0,-0.0052
2922.0,-0.0053
2921.0,-0.0054
2920.0,-0.0054
2919.0,-0.0053
2918.0,-0.0053
2917.0,-0.0053
2916.0,-0.0053
2915.0,-0.0053
2914.0,-0.0052
2913.0,-0.0051
2912.0,-0.005
2911.0,-0.005
2910.0,-0.0049
2909.0,-0.005
2908.0,-0.005
2907.0,-0.0051
2906.0,-0.0052
2905.0,-0.0053
2904.0,-0.0053
2903.0,-0.0052
2902.0,-0.0052
2901.0,-0.0052
2900.0,-0.0052
2899.0,-0.0052
2898.0,-0.0052
2897.0,-0.0052
2896.0,-0.0052
2895.0,-0.0053
2894.0,-0.0053
2893.0,-0.0053
2892.0,-0.0053
2891.0,-0.0053
2890.0,-0.0053
2889.0,-0.0053
2888.0,-0.0053
2887.0,-0.0053
2886.0,-0.0053
2885.0,-0.0052
2884.0,-0.0052
2883.0,-0.0052
2882.0,-0.0052
2881.0,-0.0052
2880.0,-0.0052
2879.0,-0.0052
2878.0,-0.0051
2877.0,-0.0051
2876.0,-0.0051
2875.0,-0.0052
2874.0,-0.0053
2873.0,-0.0053
2872.0,-0.0053
2871.0,-0.0052
2870.0,-0.0051
2869.0,-0.0051
2868.0,-0.005
2867.0,-0.005
2866.0,-0.005
2865.0,-0.005
2864.0,-0.005
2863.0,-0.005
2862.0,-0.0051
2861.0,-0.0051
2860.0,-0.0051
2859.0,-0.0051
2858.0,-0.0051
2857.0,-0.0051
2856.0,-0.0051
2855.0,-0.0052
2854.0,-0.0052
2853.0,-0.0052
2852.0,-0.0051
2851.0,-0.0051
2850.0,-0.0051
2849.0,-0.0051
2848.0,-0.0051
2847.0,-0.0051
2846.0,-0.0051
2845.0,-0.005
2844.0,-0.005
2843.0,-0.0049
2842.0,-0.0049
2841.0,-0.0049
2840.0,-0.0049
2839.0,-0.0049
2838.0,-0.0048
2837.0,-0.0047
2836.0,-0.0047
2835.0,-0.0048
2834.0,-0.0048
2833.0,-0.0049
2832.0,-0.0049
2831.0,-0.0048
2830.0,-0.0048
2829.0,-0.0048
2828.0,-0.0048
2827.0,-0.0048
2826.0,-0.0048
2825.0,-0.0048
2824.0,-0.0047
2823.0,-0.0047
2822.0,-0.0047
2821.0,-0.0047
2820.0,-0.0047
2819.0,-0.0047
2818.0,-0.0047
2817.0,-0.0047
2816.0,-0.0047
2815.0,-0.0048
2814.0,-0.0049
2813.0,-0.0049
2812.0,-0.0048
2811.0,-0.0048
2810.0,-0.0048
2809.0,-0.0048
2808.0,-0.0048
2807.0,-0.0048
2806.0,-0.0047
2805.0,-0.0047
2804.0,-0.0046
2803.0,-0.0046
2802.0,-0.0046
2801.0,-0.0046
2800.0,-0.0046
2799.0,-0.0046
2798.0,-0.0047
2797.0,-0.0047
2796.0,-0.0047
2795.0,-0.0047
2794.0,-0.0047
2793.0,-0.0047
2792.0,-0.0046
2791.0,-0.0046
2790.0,-0.0046
2789.0,-0.0046
2788.0,-0.0047
2787.0,-0.0047
2786.0,-0.0047
2785.0,-0.0046
2784.0,-0.0046
2783.0,-0.0046
2782.0,-0.0046
2781.0,-0.0046
2780.0,-0.0046
2779.0,-0.0047
2778.0,-0.0047
2777.0,-0.0047
2776.0,-0.0046
2775.0,-0.0046
2774.0,-0.0046
2773.0,-0.0046
2772.0,-0.0046
2771.0,-0.0046
2770.0,-0.0046
2769.0,-0.0047
2768.0,-0.0048
2767.0,-0.0048
2766.0,-0.0048
2765.0,-0.0047
2764.0,-0.0047
2763.0,-0.0047
2762.0,-0.0047
2761.0,-0.0047
2760.0,-0.0046
2759.0,-0.0046
2758.0,-0.0046
2757.0,-0.0045
2756.0,-0.0045
2755.0,-0.0044
2754.0,-0.0045
2753.0,-0.0045
2752.0,-0.0046
2751.0,-0.0047
2750.0,-0.0046
2749.0,-0.0045
2748.0,-0.0044
2747.0,-0.0044
2746.0,-0.0043
2745.0,-0.0044
2744.0,-0.0044
2743.0,-0.0044
2742.0,-0.0045
2741.0,-0.0045
2740.0,-0.0045
2739.0,-0.0045
2738.0,-0.0045
2737.0,-0.0045
2736.0,-0.0045
2735.0,-0.0045
2734.0,-0.0046
2733.0,-0.0046
2732.0,-0.0047
2731.0,-0.0046
2730.0,-0.0045
2729.0,-0.0044
2728.0,-0.0044
2727.0,-0.0044
2726.0,-0.0045
2725.0,-0.0046
2724.0,-0.0046
2723.0,-0.0046
2722.0,-0.0046
2721.0,-0.0045
2720.0,-0.0045
2719.0,-0.0043
2718.0,-0.0043
2717.0,-0.0042
2716.0,-0.0043
2715.0,-0.0043
2714.0,-0.0043
2713.0,-0.0043
2712.0,-0.0043
2711.0,-0.0044
2710.0,-0.0044
2709.0,-0.0044
2708.0,-0.0045
2707.0,-0.0045
2706.0,-0.0045
2705.0,-0.0045
2704.0,-0.0045
2703.0,-0.0044
2702.0,-0.0044
2701.0,-0.0044
2700.0,-0.0045
2699.0,-0.0045
2698.0,-0.0045
2697.0,-0.0045
2696.0,-0.0045
2695.0,-0.0045
2694.0,-0.0045
2693.0,-0.0044
2692.0,-0.0044
2691.0,-0.0043
2690.0,-0.0043
2689.0,-0.0043
2688.0,-0.0044
2687.0,-0.0045
2686.0,-0.0045
2685.0,-0.0046
2684.0,-0.0046
2683.0,-0.0046
2682.0,-0.0045
2681.0,-0.0044
2680.0,-0.0044
2679.0,-0.0044
2678.0,-0.0044
2677.0,-0.0043
2676.0,-0.0043
2675.0,-0.0043
2674.0,-0.0043
2673.0,-0.0044
2672.0,-0.0044
2671.0,-0.0044
2670.0,-0.0044
2669.0,-0.0045
2668.0,-0.0045
2667.0,-0.0045
2666.0,-0.0045
2665.0,-0.0044
2664.0,-0.0044
2663.0,-0.0044
2662.0,-0.0044
2661.0,-0.0044
2660.0,-0.0044
2659.0,-0.0044
2658.0,-0.0044
2657.0,-0.0044
2656.0,-0.0044
2655.0,-0.0045
2654.0,-0.0045
2653.0,-0.0045
2652.0,-0.0045
2651.0,-0.0045
2650.0,-0.0044
2649.0,-0.0043
2648.0,-0.0042
2647.0,-0.0041
2646.0,-0.0041
2645.0,-0.0041
2644.0,-0.0042
2643.0,-0.0043
2642.0,-0.0044
2641.0,-0.0044
2640.0,-0.0044
2639.0,-0.0044
2638.0,-0.0044
2637.0,-0.0044
2636.0,-0.0044
2635.0,-0.0044
2634.0,-0.0043
2633.0,-0.0043
2632.0,-0.0042
2631.0,-0.0043
2630.0,-0.0043
2629.0,-0.0043
2628.0,-0.0043
2627.0,-0.0043
2626.0,-0.0043
2625.0,-0.0043
2624.0,-0.0043
2623.0,-0.0043
2622.0,-0.0043
2621.0,-0.0044
2620.0,-0.0044
2619.0,-0.0044
2618.0,-0.0043
2617.0,-0.0043
2616.0,-0.0043
2615.0,-0.0043
2614.0,-0.0043
2613.0,-0.0044
2612.0,-0.0044
2611.0,-0.0044
2610.0,-0.0044
2609.0,-0.0043
2608.0,-0.0042
2607.0,-0.0042
2606.0,-0.0042
2605.0,-0.0042
2604.0,-0.0043
2603.0,-0.0043
2602.0,-0.0043
2601.0,-0.0043
2600.0,-0.0043
2599.0,-0.0042
2598.0,-0.0042
2597.0,-0.0042
2596.0,-0.0042
2595.0,-0.0043
2594.0,-0.0043
2593.0,-0.0043
2592.0,-0.0043
2591.0,-0.0043
2590.0,-0.0043
2589.0,-0.0042
2588.0,-0.0042
2587.0,-0.0042
2586.0,-0.0042
2585.0,-0.0042
2584.0,-0.0042
2583.0,-0.0043
2582.0,-0.0043
2581.0,-0.0044
2580.0,-0.0044
2579.0,-0.0043
2578.0,-0.0043
2577.0,-0.0043
2576.0,-0.0043
2575.0,-0.0043
2574.0,-0.0042
2573.0,-0.0042
2572.0,-0.0041
2571.0,-0.0041
2570.0,-0.0041
2569.0,-0.0041
2568.0,-0.0041
2567.0,-0.0041
2566.0,-0.0041
2565.0,-0.0042
2564.0,-0.0042
2563.0,-0.0043
2562.0,-0.0044
2561.0,-0.0044
2560.0,-0.0044
2559.0,-0.0043
2558.0,-0.0042
2557.0,-0.0042
2556.0,-0.0042
2555.0,-0.0042
2554.0,-0.0041
2553.0,-0.0041
2552.0,-0.0041
2551.0,-0.0042
2550.0,-0.0042
2549.0,-0.0042
2548.0,-0.0043
2547.0,-0.0043
2546.0,-0.0043
2545.0,-0.0043
2544.0,-0.0043
2543.0,-0.0042
2542.0,-0.0042
2541.0,-0.0042
2540.0,-0.0043
2539.0,-0.0043
2538.0,-0.0043
2537.0,-0.0043
2536.0,-0.0043
2535.0,-0.0043
2534.0,-0.0044
2533.0,-0.0044
2532.0,-0.0044
2531.0,-0.0043
2530.0,-0.0043
2529.0,-0.0043
2528.0,-0.0042
2527.0,-0.0042
2526.0,-0.0042
2525.0,-0.0042
2524.0,-0.0041
2523.0,-0.0041
2522.0,-0.004
2521.0,-0.004
2520.0,-0.0041
2519.0,-0.0041
2518.0,-0.0041
2517.0,-0.0042
2516.0,-0.0042
2515.0,-0.0042
2514.0,-0.0041
2513.0,-0.0041
2512.0,-0.0042
2511.0,-0.0043
2510.0,-0.0044
2509.0,-0.0045
2508.0,-0.0044
2507.0,-0.0044
2506.0,-0.0043
2505.0,-0.0042
2504.0,-0.0042
2503.0,-0.0042
2502.0,-0.0042
2501.0,-0.0043
2500.0,-0.0043
2499.0,-0.0043
2498.0,-0.0043
2497.0,-0.0042
2496.0,-0.0041
2495.0,-0.0041
2494.0,-0.0041
2493.0,-0.0042
2492.0,-0.0042
2491.0,-0.0042
2490.0,-0.0041
2489.0,-0.0041
2488.0,-0.0041
2487.0,-0.0042
2486.0,-0.0042
2485.0,-0.0042
2484.0,-0.0042
2483.0,-0.0042
2482.0,-0.0042
2481.0,-0.0042
2480.0,-0.0042
2479.0,-0.0042
2478.0,-0.0041
2477.0,-0.0041
2476.0,-0.0041
2475.0,-0.0041
2474.0,-0.0041
2473.0,-0.0041
2472.0,-0.0042
2471.0,-0.0042
2470.0,-0.0043
2469.0,-0.0043
2468.0,-0.0043
2467.0,-0.0043
2466.0,-0.0043
2465.0,-0.0042
2464.0,-0.0042
2463.0,-0.0041
2462.0,-0.0041
2461.0,-0.0041
2460.0,-0.0041
2459.0,-0.0042
2458.0,-0.0042
2457.0,-0.0043
2456.0,-0.0043
2455.0,-0.0043
2454.0,-0.0042
2453.0,-0.0041
2452.0,-0.0041
2451.0,-0.0041
2450.0,-0.0042
2449.0,-0.0043
2448.0,-0.0043
2447.0,-0.0043
2446.0,-0.0043
2445.0,-0.0042
2444.0,-0.0042
2443.0,-0.0043
2442.0,-0.0043
2441.0,-0.0043
2440.0,-0.0043
2439.0,-0.0043
2438.0,-0.0043
2437.0,-0.0043
2436.0,-0.0043
2435.0,-0.0042
2434.0,-0.0042
2433.0,-0.0042
2432.0,-0.0042
2431.0,-0.0042
2430.0,-0.0042
2429.0,-0.0043
2428.0,-0.0043
2427.0,-0.0043
2426.0,-0.0043
2425.0,-0.0043
2424.0,-0.0042
2423.0,-0.0042
2422.0,-0.0042
2421.0,-0.0042
2420.0,-0.0042
2419.0,-0.0042
2418.0,-0.0042
2417.0,-0.0042
2416.0,-0.0042
2415.0,-0.0042
2414.0,-0.0042
2413.0,-0.0042
2412.0,-0.0042
2411.0,-0.0041
2410.0,-0.0041
2409.0,-0.0042
2408.0,-0.0042
2407.0,-0.0042
2406.0,-0.0042
2405.0,-0.0042
2404.0,-0.0041
2403.0,-0.0041
2402.0,-0.004
2401.0,-0.0041
2400.0,-0.0041
2399.0,-0.0041
2398.0,-0.0041
2397.0,-0.0042
2396.0,-0.0042
2395.0,-0.0041
2394.0,-0.0041
2393.0,-0.004
2392.0,-0.004
2391.0,-0.004
2390.0,-0.004
2389.0,-0.004
2388.0,-0.004
2387.0,-0.004
2386.0,-0.0039
2385.0,-0.004
2384.0,-0.0041
2383.0,-0.0042
2382.0,-0.0044
2381.0,-0.0047
2380.0,-0.0049
2379.0,-0.0051
2378.0,-0.0053
2377.0,-0.0055
2376.0,-0.0057
2375.0,-0.0058
2374.0,-0.0057
2373.0,-0.0052
2372.0,-0.0044
2371.0,-0.0038
2370.0,-0.0035
2369.0,-0.0036
2368.0,-0.0041
2367.0,-0.0048
2366.0,-0.0054
2365.0,-0.0057
2364.0,-0.0054
2363.0,-0.0048
2362.0,-0.0042
2361.0,-0.0038
2360.0,-0.0035
2359.0,-0.0037
2358.0,-0.0043
2357.0,-0.0051
2356.0,-0.0055
2355.0,-0.0054
2354.0,-0.0051
2353.0,-0.005
2352.0,-0.0051
2351.0,-0.0052
2350.0,-0.0053
2349.0,-0.0052
2348.0,-0.0049
2347.0,-0.0048
2346.0,-0.0049
2345.0,-0.0051
2344.0,-0.0053
2343.0,-0.0054
2342.0,-0.0056
2341.0,-0.0061
2340.0,-0.0065
2339.0,-0.0067
2338.0,-0.0066
2337.0,-0.0062
2336.0,-0.0058
2335.0,-0.0055
2334.0,-0.0053
2333.0,-0.0055
2332.0,-0.0058
2331.0,-0.0062
2330.0,-0.0062
2329.0,-0.0059
2328.0,-0.0054
2327.0,-0.0049
2326.0,-0.0047
2325.0,-0.0048
2324.0,-0.005
2323.0,-0.0053
2322.0,-0.0055
2321.0,-0.0054
2320.0,-0.005
2319.0,-0.0046
2318.0,-0.0043
2317.0,-0.0043
2316.0,-0.0043
2315.0,-0.0044
2314.0,-0.0044
2313.0,-0.0044
2312.0,-0.0043
2311.0,-0.0042
2310.0,-0.0041
2309.0,-0.0041
2308.0,-0.0042
2307.0,-0.0042
2306.0,-0.0041
2305.0,-0.004
2304.0,-0.0038
2303.0,-0.0036
2302.0,-0.0035
2301.0,-0.0034
2300.0,-0.0034
2299.0,-0.0033
2298.0,-0.0032
2297.0,-0.0032
2296.0,-0.0031
2295.0,-0.0031
2294.0,-0.0031
2293.0,-0.0031
2292.0,-0.0031
2291.0,-0.0031
2290.0,-0.0031
2289.0,-0.0031
2288.0,-0.0031
2287.0,-0.0031
2286.0,-0.0031
2285.0,-0.0032
2284.0,-0.0032
2283.0,-0.0032
2282.0,-0.0032
2281.0,-0.0032
2280.0,-0.0031
2279.0,-0.0031
2278.0,-0.003
2277.0,-0.003
2276.0,-0.003
2275.0,-0.003
2274.0,-0.003
2273.0,-0.0031
2272.0,-0.0031
2271.0,-0.0031
2270.0,-0.003
2269.0,-0.0029
2268.0,-0.0029
2267.0,-0.0028
2266.0,-0.0028
2265.0,-0.0029
2264.0,-0.0029
2263.0,-0.003
2262.0,-0.003
2261.0,-0.003
2260.0,-0.003
2259.0,-0.003
2258.0,-0.003
2257.0,-0.0029
2256.0,-0.0028
2255.0,-0.0028
2254.0,-0.0027
2253.0,-0.0027
2252.0,-0.0027
2251.0,-0.0028
2250.0,-0.0028
2249.0,-0.0028
2248.0,-0.0028
2247.0,-0.0028
2246.0,-0.0028
2245.0,-0.0028
2244.0,-0.0028
2243.0,-0.0028
2242.0,-0.0028
2241.0,-0.0027
2240.0,-0.0027
2239.0,-0.0027
2238.0,-0.0027
2237.0,-0.0027
2236.0,-0.0027
2235.0,-0.0028
2234.0,-0.0028
2233.0,-0.0029
2232.0,-0.0029
2231.0,-0.0028
2230.0,-0.0029
2229.0,-0.0029
2228.0,-0.0029
2227.0,-0.003
2226.0,-0.003
2225.0,-0.003
2224.0,-0.003
2223.0,-0.0029
2222.0,-0.0029
2221.0,-0.0029
2220.0,-0.0029
2219.0,-0.0029
2218.0,-0.0029
2217.0,-0.0029
2216.0,-0.0029
2215.0,-0.0029
2214.0,-0.0029
2213.0,-0.0029
2212.0,-0.0029
2211.0,-0.0028
2210.0,-0.0028
2209.0,-0.0028
2208.0,-0.0028
2207.0,-0.0029
2206.0,-0.0029
2205.0,-0.0029
2204.0,-0.0029
2203.0,-0.0029
2202.0,-0.0029
2201.0,-0.0029
2200.0,-0.0029
2199.0,-0.0029
2198.0,-0.0029
2197.0,-0.0028
2196.0,-0.0028
2195.0,-0.0028
2194.0,-0.0028
2193.0,-0.0029
2192.0,-0.003
2191.0,-0.003
2190.0,-0.003
2189.0,-0.003
2188.0,-0.003
2187.0,-0.0029
2186.0,-0.0029
2185.0,-0.0028
2184.0,-0.0028
2183.0,-0.0029
2182.0,-0.0029
2181.0,-0.0029
2180.0,-0.0028
2179.0,-0.0028
2178.0,-0.0027
2177.0,-0.0027
2176.0,-0.0028
2175.0,-0.0028
2174.0,-0.0028
2173.0,-0.0027
2172.0,-0.0027
2171.0,-0.0027
2170.0,-0.0027
2169.0,-0.0027
2168.0,-0.0028
2167.0,-0.0028
2166.0,-0.0029
2165.0,-0.0028
2164.0,-0.0028
2163.0,-0.0028
2162.0,-0.0028
2161.0,-0.0028
2160.0,-0.0028
2159.0,-0.0029
2158.0,-0.0029
2157.0,-0.0029
2156.0,-0.0029
2155.0,-0.0029
2154.0,-0.0029
2153.0,-0.0029
2152.0,-0.0029
2151.0,-0.0029
2150.0,-0.0029
2149.0,-0.0029
2148.0,-0.0028
2147.0,-0.0027
2146.0,-0.0027
2145.0,-0.0027
2144.0,-0.0028
2143.0,-0.0028
2142.0,-0.0029
2141.0,-0.0029
2140.0,-0.0029
2139.0,-0.0028
2138.0,-0.0028
2137.0,-0.0028
2136.0,-0.0028
2135.0,-0.0028
2134.0,-0.0028
2133.0,-0.0028
2132.0,-0.0028
2131.0,-0.0028
2130.0,-0.0028
2129.0,-0.0028
2128.0,-0.0027
2127.0,-0.0027
2126.0,-0.0027
2125.0,-0.0027
2124.0,-0.0027
2123.0,-0.0028
2122.0,-0.0028
2121.0,-0.0028
2120.0,-0.0028
2119.0,-0.0028
2118.0,-0.0028
2117.0,-0.0028
2116.0,-0.0028
2115.0,-0.0028
2114.0,-0.0028
2113.0,-0.0028
2112.0,-0.0028
2111.0,-0.0028
2110.0,-0.0028
2109.0,-0.0028
2108.0,-0.0027
2107.0,-0.0028
2106.0,-0.0028
2105.0,-0.0028
2104.0,-0.0028
2103.0,-0.0028
2102.0,-0.0028
2101.0,-0.0027
2100.0,-0.0027
2099.0,-0.0027
2098.0,-0.0026
2097.0,-0.0026
2096.0,-0.0026
2095.0,-0.0026
2094.0,-0.0026
2093.0,-0.0026
2092.0,-0.0027
2091.0,-0.0027
2090.0,-0.0028
2089.0,-0.0027
2088.0,-0.0027
2087.0,-0.0026
2086.0,-0.0026
2085.0,-0.0027
2084.0,-0.0027
2083.0,-0.0027
2082.0,-0.0027
2081.0,-0.0027
2080.0,-0.0027
2079.0,-0.0027
2078.0,-0.0027
2077.0,-0.0027
2076.0,-0.0027
2075.0,-0.0027
2074.0,-0.0027
2073.0,-0.0027
2072.0,-0.0027
2071.0,-0.0027
2070.0,-0.0027
2069.0,-0.0026
2068.0,-0.0026
2067.0,-0.0026
2066.0,-0.0027
2065.0,-0.0027
2064.0,-0.0027
2063.0,-0.0027
2062.0,-0.0027
2061.0,-0.0026
2060.0,-0.0027
2059.0,-0.0027
2058.0,-0.0027
2057.0,-0.0027
2056.0,-0.0027
2055.0,-0.0026
2054.0,-0.0026
2053.0,-0.0026
2052.0,-0.0026
2051.0,-0.0026
2050.0,-0.0026
2049.0,-0.0026
2048.0,-0.0026
2047.0,-0.0026
2046.0,-0.0025
2045.0,-0.0025
2044.0,-0.0026
2043.0,-0.0026
2042.0,-0.0026
2041.0,-0.0026
2040.0,-0.0026
2039.0,-0.0026
2038.0,-0.0026
2037.0,-0.0026
2036.0,-0.0026
2035.0,-0.0025
2034.0,-0.0025
2033.0,-0.0025
2032.0,-0.0025
2031.0,-0.0025
2030.0,-0.0025
2029.0,-0.0025
2028.0,-0.0025
2027.0,-0.0025
2026.0,-0.0025
2025.0,-0.0025
2024.0,-0.0025
2023.0,-0.0025
2022.0,-0.0025
2021.0,-0.0025
2020.0,-0.0025
2019.0,-0.0025
2018.0,-0.0026
2017.0,-0.0026
2016.0,-0.0026
2015.0,-0.0027
2014.0,-0.0027
2013.0,-0.0027
2012.0,-0.0027
2011.0,-0.0027
2010.0,-0.0026
2009.0,-0.0026
2008.0,-0.0025
2007.0,-0.0025
2006.0,-0.0025
2005.0,-0.0025
2004.0,-0.0026
2003.0,-0.0026
2002.0,-0.0026
2001.0,-0.0026
2000.0,-0.0026
1999.0,-0.0026
1998.0,-0.0026
1997.0,-0.0026
1996.0,-0.0026
1995.0,-0.0025
1994.0,-0.0025
1993.0,-0.0025
1992.0,-0.0025
1991.0,-0.0025
1990.0,-0.0025
1989.0,-0.0025
1988.0,-0.0026
1987.0,-0.0026
1986.0,-0.0026
1985.0,-0.0026
1984.0,-0.0026
1983.0,-0.0025
1982.0,-0.0024
1981.0,-0.0024
1980.0,-0.0024
1979.0,-0.0024
1978.0,-0.0024
1977.0,-0.0024
1976.0,-0.0024
1975.0,-0.0024
1974.0,-0.0024
1973.0,-0.0024
1972.0,-0.0024
1971.0,-0.0025
1970.0,-0.0025
1969.0,-0.0025
1968.0,-0.0025
1967.0,-0.0024
1966.0,-0.0024
1965.0,-0.0024
1964.0,-0.0024
1963.0,-0.0024
1962.0,-0.0024
1961.0,-0.0024
1960.0,-0.0024
1959.0,-0.0024
1958.0,-0.0024
1957.0,-0.0023
1956.0,-0.0023
1955.0,-0.0024
1954.0,-0.0024
1953.0,-0.0025
1952.0,-0.0025
1951.0,-0.0025
1950.0,-0.0024
1949.0,-0.0024
1948.0,-0.0024
1947.0,-0.0024
1946.0,-0.0024
1945.0,-0.0023
1944.0,-0.0023
1943.0,-0.0023
1942.0,-0.0023
1941.0,-0.0024
1940.0,-0.0024
1939.0,-0.0024
1938.0,-0.0024
1937.0,-0.0024
1936.0,-0.0024
1935.0,-0.0024
1934.0,-0.0024
1933.0,-0.0024
1932.0,-0.0023
1931.0,-0.0023
1930.0,-0.0023
1929.0,-0.0022
1928.0,-0.0022
1927.0,-0.0023
1926.0,-0.0023
1925.0,-0.0023
1924.0,-0.0023
1923.0,-0.0023
1922.0,-0.0024
1921.0,-0.0024
1920.0,-0.0024
1919.0,-0.0024
1918.0,-0.0024
1917.0,-0.0024
1916.0,-0.0023
1915.0,-0.0023
1914.0,-0.0023
1913.0,-0.0023
1912.0,-0.0024
1911.0,-0.0024
1910.0,-0.0023
1909.0,-0.0023
1908.0,-0.0022
1907.0,-0.0022
1906.0,-0.0021
1905.0,-0.0022
1904.0,-0.0022
1903.0,-0.0022
1902.0,-0.0023
1901.0,-0.0023
1900.0,-0.0023
1899.0,-0.0023
1898.0,-0.0023
1897.0,-0.0023
1896.0,-0.0023
1895.0,-0.0023
1894.0,-0.0023
1893.0,-0.0023
1892.0,-0.0023
1891.0,-0.0023
1890.0,-0.0023
1889.0,-0.0023
1888.0,-0.0023
1887.0,-0.0023
1886.0,-0.0022
1885.0,-0.0022
1884.0,-0.0022
1883.0,-0.0021
1882.0,-0.0021
1881.0,-0.0021
1880.0,-0.0021
1879.0,-0.0021
1878.0,-0.0022
1877.0,-0.0022
1876.0,-0.0022
1875.0,-0.0022
1874.0,-0.0022
1873.0,-0.0021
1872.0,-0.0021
1871.0,-0.0021
1870.0,-0.0022
1869.0,-0.0022
1868.0,-0.0022
1867.0,-0.0022
1866.0,-0.0022
1865.0,-0.0022
1864.0,-0.0022
1863.0,-0.0022
1862.0,-0.0022
1861.0,-0.0021
1860.0,-0.0021
1859.0,-0.0021
1858.0,-0.0021
1857.0,-0.0021
1856.0,-0.0021
1855.0,-0.0021
1854.0,-0.0021
1853.0,-0.0021
1852.0,-0.0021
1851.0,-0.0021
1850.0,-0.0022
1849.0,-0.0022
1848.0,-0.0022
1847.0,-0.0021
1846.0,-0.0021
1845.0,-0.0021
1844.0,-0.0022
1843.0,-0.0023
1842.0,-0.0023
1841.0,-0.0023
1840.0,-0.0023
1839.0,-0.0023
1838.0,-0.0024
1837.0,-0.0024
1836.0,-0.0023
1835.0,-0.0023
1834.0,-0.0023
1833.0,-0.0022
1832.0,-0.0022
1831.0,-0.0023
1830.0,-0.0023
1829.0,-0.0024
1828.0,-0.0023
1827.0,-0.0023
1826.0,-0.0023
1825.0,-0.0024
1824.0,-0.0024
1823.0,-0.0025
1822.0,-0.0025
1821.0,-0.0026
1820.0,-0.0025
1819.0,-0.0025
1818.0,-0.0024
1817.0,-0.0024
1816.0,-0.0024
1815.0,-0.0025
1814.0,-0.0026
1813.0,-0.0026
1812.0,-0.0026
1811.0,-0.0026
1810.0,-0.0026
1809.0,-0.0027
1808.0,-0.0027
1807.0,-0.0027
1806.0,-0.0027
1805.0,-0.0026
1804.0,-0.0026
1803.0,-0.0026
1802.0,-0.0026
1801.0,-0.0027
1800.0,-0.0028
1799.0,-0.0029
1798.0,-0.003
1797.0,-0.003
1796.0,-0.0029
1795.0,-0.0029
1794.0,-0.0029
1793.0,-0.003
1792.0,-0.0031
1791.0,-0.0031
1790.0,-0.0031
1789.0,-0.0031
1788.0,-0.0031
1787.0,-0.0031
1786.0,-0.0031
1785.0,-0.0031
1784.0,-0.0031
1783.0,-0.0032
1782.0,-0.0032
1781.0,-0.0033
1780.0,-0.0034
1779.0,-0.0034
1778.0,-0.0034
1777.0,-0.0034
1776.0,-0.0034
1775.0,-0.0034
1774.0,-0.0035
1773.0,-0.0036
1772.0,-0.0037
1771.0,-0.0038
1770.0,-0.0038
1769.0,-0.0039
1768.0,-0.0039
1767.0,-0.004
1766.0,-0.004
1765.0,-0.004
1764.0,-0.004
1763.0,-0.0041
1762.0,-0.0043
1761.0,-0.0045
1760.0,-0.0046
1759.0,-0.0046
1758.0,-0.0046
1757.0,-0.0047
1756.0,-0.0049
1755.0,-0.0049
1754.0,-0.0049
1753.0,-0.005
1752.0,-0.0052
1751.0,-0.0053
1750.0,-0.0054
1749.0,-0.0054
1748.0,-0.0053
1747.0,-0.0053
1746.0,-0.0053
1745.0,-0.0052
1744.0,-0.005
1743.0,-0.0048
1742.0,-0.0045
1741.0,-0.0042
1740.0,-0.0039
1739.0,-0.0036
1738.0,-0.0032
1737.0,-0.0029
1736.0,-0.0025
1735.0,-0.0021
1734.0,-0.0016
1733.0,-0.0013
1732.0,-0.0009
1731.0,-0.0005
1730.0,-0.0001
1729.0,0.0001
1728.0,0.0003
1727.0,0.0006
1726.0,0.0008
1725.0,0.0012
1724.0,0.0015
1723.0,0.0018
1722.0,0.002
1721.0,0.0021
1720.0,0.0022
1719.0,0.0023
1718.0,0.0025
1717.0,0.0028
1716.0,0.0031
1715.0,0.0034
1714.0,0.0035
1713.0,0.0035
1712.0,0.0035
1711.0,0.0034
1710.0,0.0033
1709.0,0.0032
1708.0,0.0031
1707.0,0.0029
1706.0,0.0027
1705.0,0.0026
1704.0,0.0025
1703.0,0.0024
1702.0,0.0023
1701.0,0.002
1700.0,0.0016
1699.0,0.0014
1698.0,0.0013
1697.0,0.0013
1696.0,0.0011
1695.0,0.0008
1694.0,0.0005
1693.0,0.0003
1692.0,0.0002
1691.0,0.0
1690.0,-0.0001
1689.0,-0.0002
1688.0,-0.0002
1687.0,-0.0002
1686.0,-0.0004
1685.0,-0.0007
1684.0,-0.0011
1683.0,-0.0014
1682.0,-0.0014
1681.0,-0.0014
1680.0,-0.0014
1679.0,-0.0014
1678.0,-0.0015
1677.0,-0.0017
1676.0,-0.0019
1675.0,-0.002
1674.0,-0.0022
1673.0,-0.0022
1672.0,-0.0022
1671.0,-0.0022
1670.0,-0.0024
1669.0,-0.0026
1668.0,-0.0028
1667.0,-0.0028
1666.0,-0.0028
1665.0,-0.0028
1664.0,-0.0028
1663.0,-0.0029
1662.0,-0.0029
1661.0,-0.0029
1660.0,-0.0028
1659.0,-0.0027
1658.0,-0.0026
1657.0,-0.0024
1656.0,-0.0021
1655.0,-0.0018
1654.0,-0.001
1653.0,0.0001
1652.0,0.0007
1651.0,0.0011
1650.0,0.0015
1649.0,0.0022
1648.0,0.0035
1647.0,0.0052
1646.0,0.0066
1645.0,0.0073
1644.0,0.0079
1643.0,0.0086
1642.0,0.0093
1641.0,0.0101
1640.0,0.0109
1639.0,0.0116
1638.0,0.0124
1637.0,0.0138
1636.0,0.0161
1635.0,0.0182
1634.0,0.0192
1633.0,0.0196
1632.0,0.0196
1631.0,0.0195
1630.0,0.0192
1629.0,0.0188
1628.0,0.0185
1627.0,0.0182
1626.0,0.0176
1625.0,0.0166
1624.0,0.0153
1623.0,0.0137
1622.0,0.0123
1621.0,0.0111
1620.0,0.01
1619.0,0.009
1618.0,0.0079
1617.0,0.0067
1616.0,0.0058
1615.0,0.0052
1614.0,0.0047
1613.0,0.0043
1612.0,0.0039
1611.0,0.0035
1610.0,0.0032
1609.0,0.0029
1608.0,0.0026
1607.0,0.0024
1606.0,0.0021
1605.0,0.0019
1604.0,0.0017
1603.0,0.0015
1602.0,0.0014
1601.0,0.0013
1600.0,0.0011
1599.0,0.0009
1598.0,0.0008
1597.0,0.0007
1596.0,0.0006
1595.0,0.0005
1594.0,0.0005
1593.0,0.0005
1592.0,0.0005
1591.0,0.0006
1590.0,0.0006
1589.0,0.0006
1588.0,0.0005
1587.0,0.0005
1586.0,0.0006
1585.0,0.0007
1584.0,0.0007
1583.0,0.0008
1582.0,0.0009
1581.0,0.0009
1580.0,0.001
1579.0,0.0011
1578.0,0.0013
1577.0,0.0015
1576.0,0.0017
1575.0,0.0018
1574.0,0.0017
1573.0,0.0017
1572.0,0.0016
1571.0,0.0016
1570.0,0.0017
1569.0,0.0018
1568.0,0.0018
1567.0,0.0018
1566.0,0.0018
1565.0,0.0018
1564.0,0.0018
1563.0,0.0019
1562.0,0.002
1561.0,0.002
1560.0,0.002
1559.0,0.0023
1558.0,0.0022
1557.0,0.002
1556.0,0.0019
1555.0,0.002
1554.0,0.002
1553.0,0.002
1552.0,0.002
1551.0,0.002
1550.0,0.0021
1549.0,0.0021
1548.0,0.0021
1547.0,0.0021
1546.0,0.002
1545.0,0.002
1544.0,0.0019
1543.0,0.0018
1542.0,0.0017
1541.0,0.0017
1540.0,0.0019
1539.0,0.0019
1538.0,0.0019
1537.0,0.0019
1536.0,0.002
1535.0,0.0019
1534.0,0.0019
1533.0,0.0019
1532.0,0.0019
1531.0,0.0019
1530.0,0.0019
1529.0,0.0018
1528.0,0.0018
1527.0,0.0017
1526.0,0.0017
1525.0,0.0016
1524.0,0.0016
1523.0,0.0016
1522.0,0.0017
1521.0,0.0018
1520.0,0.0019
1519.0,0.0019
1518.0,0.0019
1517.0,0.0019
1516.0,0.0018
1515.0,0.0018
1514.0,0.0017
1513.0,0.0017
1512.0,0.0016
1511.0,0.0016
1510.0,0.0017
1509.0,0.0018
1508.0,0.0021
1507.0,0.0026
1506.0,0.0027
1505.0,0.0026
1504.0,0.0025
1503.0,0.0025
1502.0,0.0025
1501.0,0.0024
1500.0,0.0024
1499.0,0.0023
1498.0,0.0022
1497.0,0.0022
1496.0,0.0021
1495.0,0.0019
1494.0,0.0019
1493.0,0.0018
1492.0,0.0018
1491.0,0.0017
1490.0,0.0017
1489.0,0.0018
1488.0,0.0018
1487.0,0.0018
1486.0,0.0017
1485.0,0.0017
1484.0,0.0016
1483.0,0.0015
1482.0,0.0015
1481.0,0.0015
1480.0,0.0015
1479.0,0.0015
1478.0,0.0015
1477.0,0.0015
1476.0,0.0015
1475.0,0.0014
1474.0,0.0013
1473.0,0.0013
1472.0,0.0013
1471.0,0.0012
1470.0,0.0012
1469.0,0.0013
1468.0,0.0013
1467.0,0.0013
1466.0,0.0013
1465.0,0.0014
1464.0,0.0014
1463.0,0.0014
1462.0,0.0014
1461.0,0.0015
1460.0,0.0015
1459.0,0.0016
1458.0,0.0017
1457.0,0.0019
1456.0,0.0019
1455.0,0.002
1454.0,0.002
1453.0,0.0021
1452.0,0.0021
1451.0,0.0022
1450.0,0.0022
1449.0,0.0023
1448.0,0.0023
1447.0,0.0023
1446.0,0.0023
1445.0,0.0023
1444.0,0.0023
1443.0,0.0023
1442.0,0.0023
1441.0,0.0024
1440.0,0.0024
1439.0,0.0023
1438.0,0.0023
1437.0,0.0023
1436.0,0.0023
1435.0,0.0023
1434.0,0.0022
1433.0,0.0021
1432.0,0.0021
1431.0,0.002
1430.0,0.0018
1429.0,0.0017
1428.0,0.0016
1427.0,0.0014
1426.0,0.0013
1425.0,0.0012
1424.0,0.0011
1423.0,0.0011
1422.0,0.001
1421.0,0.001
1420.0,0.0009
1419.0,0.0008
1418.0,0.0008
1417.0,0.0008
1416.0,0.0008
1415.0,0.001
1414.0,0.0013
1413.0,0.0018
1412.0,0.0024
1411.0,0.0031
1410.0,0.0037
1409.0,0.0041
1408.0,0.0044
1407.0,0.0045
1406.0,0.0045
1405.0,0.0044
1404.0,0.0042
1403.0,0.004
1402.0,0.0038
1401.0,0.0036
1400.0,0.0034
1399.0,0.0032
1398.0,0.003
1397.0,0.0029
1396.0,0.0027
1395.0,0.0026
1394.0,0.0024
1393.0,0.0022
1392.0,0.0021
1391.0,0.002
1390.0,0.002
1389.0,0.0019
1388.0,0.0018
1387.0,0.0017
1386.0,0.0016
1385.0,0.0014
1384.0,0.0013
1383.0,0.0012
1382.0,0.0011
1381.0,0.001
1380.0,0.001
1379.0,0.0009
1378.0,0.0009
1377.0,0.0009
1376.0,0.001
1375.0,0.0011
1374.0,0.0013
1373.0,0.0015
1372.0,0.0016
1371.0,0.0017
1370.0,0.0018
1369.0,0.0019
1368.0,0.002
1367.0,0.002
1366.0,0.0019
1365.0,0.0019
1364.0,0.0018
1363.0,0.0017
1362.0,0.0016
1361.0,0.0014
1360.0,0.0012
1359.0,0.0011
1358.0,0.001
1357.0,0.0009
1356.0,0.0008
1355.0,0.0008
1354.0,0.0007
1353.0,0.0006
1352.0,0.0005
1351.0,0.0005
1350.0,0.0005
1349.0,0.0005
1348.0,0.0005
1347.0,0.0005
1346.0,0.0005
1345.0,0.0006
1344.0,0.0007
1343.0,0.0008
1342.0,0.0009
1341.0,0.001
1340.0,0.0012
1339.0,0.0012
1338.0,0.0012
1337.0,0.001
1336.0,0.0008
1335.0,0.0006
1334.0,0.0004
1333.0,0.0003
1332.0,0.0001
1331.0,-0.0001
1330.0,-0.0003
1329.0,-0.0005
1328.0,-0.0006
1327.0,-0.0007
1326.0,-0.0008
1325.0,-0.0008
1324.0,-0.0008
1323.0,-0.0008
1322.0,-0.0008
1321.0,-0.0008
1320.0,-0.0008
1319.0,-0.0008
1318.0,-0.0007
1317.0,-0.0007
1316.0,-0.0008
1315.0,-0.0008
1314.0,-0.0007
1313.0,-0.0006
1312.0,-0.0005
1311.0,-0.0004
1310.0,-0.0003
1309.0,-0.0002
1308.0,-0.0001
1307.0,-0.0
1306.0,0.0001
1305.0,0.0002
1304.0,0.0003
1303.0,0.0004
1302.0,0.0006
1301.0,0.0009
1300.0,0.0012
1299.0,0.0016
1298.0,0.0021
1297.0,0.0025
1296.0,0.003
1295.0,0.0035
1294.0,0.004
1293.0,0.0045
1292.0,0.005
1291.0,0.0055
1290.0,0.0059
1289.0,0.0063
1288.0,0.0066
1287.0,0.007
1286.0,0.0073
1285.0,0.0076
1284.0,0.0079
1283.0,0.0082
1282.0,0.0085
1281.0,0.0086
1280.0,0.0088
1279.0,0.0089
1278.0,0.009
1277.0,0.0092
1276.0,0.0093
1275.0,0.0095
1274.0,0.0098
1273.0,0.0101
1272.0,0.0106
1271.0,0.011
1270.0,0.0116
1269.0,0.0121
1268.0,0.0127
1267.0,0.0133
1266.0,0.0138
1265.0,0.0144
1264.0,0.0149
1263.0,0.0154
1262.0,0.0158
1261.0,0.0161
1260.0,0.0164
1259.0,0.0167
1258.0,0.0168
1257.0,0.017
1256.0,0.0171
1255.0,0.0172
1254.0,0.0173
1253.0,0.0175
1252.0,0.0177
1251.0,0.0181
1250.0,0.0185
1249.0,0.0188
1248.0,0.0192
1247.0,0.0196
1246.0,0.02
1245.0,0.0204
1244.0,0.0208
1243.0,0.0212
1242.0,0.0216
1241.0,0.022
1240.0,0.0223
1239.0,0.0227
1238.0,0.023
1237.0,0.0232
1236.0,0.0233
1235.0,0.0233
1234.0,0.0232
1233.0,0.023
1232.0,0.0228
1231.0,0.0226
1230.0,0.0224
1229.0,0.0221
1228.0,0.0218
1227.0,0.0215
1226.0,0.0212
1225.0,0.0208
1224.0,0.0205
1223.0,0.0201
1222.0,0.0198
1221.0,0.0195
1220.0,0.0192
1219.0,0.019
1218.0,0.0187
1217.0,0.0184
1216.0,0.0181
1215.0,0.0178
1214.0,0.0176
1213.0,0.0173
1212.0,0.017
1211.0,0.0167
1210.0,0.0165
1209.0,0.0162
1208.0,0.016
1207.0,0.0157
1206.0,0.0155
1205.0,0.0153
1204.0,0.0152
1203.0,0.015
1202.0,0.0149
1201.0,0.0147
1200.0,0.0144
1199.0,0.0142
1198.0,0.0139
1197.0,0.0138
1196.0,0.0136
1195.0,0.0134
1194.0,0.0131
1193.0,0.0129
1192.0,0.0127
1191.0,0.0125
1190.0,0.0122
1189.0,0.012
1188.0,0.0118
1187.0,0.0117
1186.0,0.0116
1185.0,0.0115
1184.0,0.0114
1183.0,0.0112
1182.0,0.0111
1181.0,0.011
1180.0,0.0109
1179.0,0.0109
1178.0,0.0108
1177.0,0.0108
1176.0,0.0107
1175.0,0.0108
1174.0,0.0108
1173.0,0.0107
1172.0,0.0106
1171.0,0.0105
1170.0,0.0103
1169.0,0.0101
1168.0,0.0099
1167.0,0.0097
1166.0,0.0094
1165.0,0.0092
1164.0,0.009
1163.0,0.0087
1162.0,0.0085
1161.0,0.0082
1160.0,0.0079
1159.0,0.0077
1158.0,0.0074
1157.0,0.0071
1156.0,0.0068
1155.0,0.0067
1154.0,0.0066
1153.0,0.0065
1152.0,0.0064
1151.0,0.0063
1150.0,0.0062
1149.0,0.0062
1148.0,0.0063
1147.0,0.0065
1146.0,0.0066
1145.0,0.0068
1144.0,0.0069
1143.0,0.007
1142.0,0.0072
1141.0,0.0075
1140.0,0.0077
1139.0,0.008
1138.0,0.0082
1137.0,0.0084
1136.0,0.0086
1135.0,0.0088
1134.0,0.009
1133.0,0.0091
1132.0,0.0092
1131.0,0.0093
1130.0,0.0095
1129.0,0.0098
1128.0,0.0102
1127.0,0.0106
1126.0,0.0111
1125.0,0.0116
1124.0,0.0122
1123.0,0.0128
1122.0,0.0134
1121.0,0.014
1120.0,0.0145
1119.0,0.0149
1118.0,0.0152
1117.0,0.0154
1116.0,0.0155
1115.0,0.0155
1114.0,0.0154
1113.0,0.0152
1112.0,0.0149
1111.0,0.0147
1110.0,0.0147
1109.0,0.0148
1108.0,0.0151
1107.0,0.0157
1106.0,0.0163
1105.0,0.0171
1104.0,0.0179
1103.0,0.0188
1102.0,0.0197
1101.0,0.0206
1100.0,0.0215
1099.0,0.0224
1098.0,0.0232
1097.0,0.0239
1096.0,0.0246
1095.0,0.0252
1094.0,0.0258
1093.0,0.0263
1092.0,0.0267
1091.0,0.027
1090.0,0.0272
1089.0,0.0274
1088.0,0.0275
1087.0,0.0276
1086.0,0.0278
1085.0,0.0279
1084.0,0.028
1083.0,0.028
1082.0,0.028
1081.0,0.0279
1080.0,0.0277
1079.0,0.0276
1078.0,0.0274
1077.0,0.0271
1076.0,0.0269
1075.0,0.0266
1074.0,0.0262
1073.0,0.0257
1072.0,0.0253
1071.0,0.0249
1070.0,0.0246
1069.0,0.0243
1068.0,0.0241
1067.0,0.0239
1066.0,0.0236
1065.0,0.0233
1064.0,0.0229
1063.0,0.0227
1062.0,0.0224
1061.0,0.0222
1060.0,0.022
1059.0,0.0218
1058.0,0.0215
1057.0,0.0212
1056.0,0.021
1055.0,0.0209
1054.0,0.0208
1053.0,0.0207
1052.0,0.0207
1051.0,0.0208
1050.0,0.0209
1049.0,0.0211
1048.0,0.0212
1047.0,0.0213
1046.0,0.0214
1045.0,0.0215
1044.0,0.0216
1043.0,0.0218
1042.0,0.0219
1041.0,0.0221
1040.0,0.0222
1039.0,0.0223
1038.0,0.0223
1037.0,0.0223
1036.0,0.0223
1035.0,0.0223
1034.0,0.0222
1033.0,0.0222
1032.0,0.0221
1031.0,0.0221
1030.0,0.022
1029.0,0.022
1028.0,0.0219
1027.0,0.0216
1026.0,0.0213
1025.0,0.021
1024.0,0.0209
1023.0,0.021
1022.0,0.0214
1021.0,0.0222
1020.0,0.0234
1019.0,0.0249
1018.0,0.0265
1017.0,0.0279
1016.0,0.029
1015.0,0.0296
1014.0,0.0297
1013.0,0.0294
1012.0,0.029
1011.0,0.0284
1010.0,0.0279
1009.0,0.0274
1008.0,0.0269
1007.0,0.0265
1006.0,0.0262
1005.0,0.0259
1004.0,0.0256
1003.0,0.0254
1002.0,0.0252
1001.0,0.0251
1000.0,0.025
999.0,0.0249
998.0,0.0248
997.0,0.0247
996.0,0.0246
995.0,0.0245
994.0,0.0243
993.0,0.0242
992.0,0.0241
991.0,0.024
990.0,0.024
989.0,0.024
988.0,0.0239
987.0,0.0238
986.0,0.0238
985.0,0.0237
984.0,0.0235
983.0,0.0235
982.0,0.0234
981.0,0.0235
980.0,0.0235
979.0,0.0235
978.0,0.0235
977.0,0.0234
976.0,0.0235
975.0,0.0235
974.0,0.0236
973.0,0.0236
972.0,0.0236
971.0,0.0236
970.0,0.0236
969.0,0.0236
968.0,0.0237
967.0,0.0237
966.0,0.0238
965.0,0.0237
964.0,0.0236
963.0,0.0235
962.0,0.0235
961.0,0.0234
960.0,0.0234
959.0,0.0233
958.0,0.0233
957.0,0.0232
956.0,0.0231
955.0,0.0231
954.0,0.0231
953.0,0.0231
952.0,0.023
951.0,0.023
950.0,0.0228
949.0,0.0227
948.0,0.0226
947.0,0.0226
946.0,0.0227
945.0,0.0227
944.0,0.0227
943.0,0.0226
942.0,0.0225
941.0,0.0226
940.0,0.0226
939.0,0.0226
938.0,0.0226
937.0,0.0225
936.0,0.0224
935.0,0.0223
934.0,0.0222
933.0,0.0222
932.0,0.0221
931.0,0.0221
930.0,0.0221
929.0,0.0221
928.0,0.0221
927.0,0.0222
926.0,0.0222
925.0,0.0221
924.0,0.022
923.0,0.0219
922.0,0.0218
921.0,0.0218
920.0,0.0217
919.0,0.0216
918.0,0.0215
917.0,0.0214
916.0,0.0213
915.0,0.0211
914.0,0.0209
913.0,0.0209
912.0,0.021
911.0,0.021
910.0,0.0211
909.0,0.0212
908.0,0.0212
907.0,0.0213
906.0,0.0215
905.0,0.0218
904.0,0.022
903.0,0.0222
902.0,0.0224
901.0,0.0225
900.0,0.0225
899.0,0.0226
898.0,0.0227
897.0,0.0228
896.0,0.023
895.0,0.0231
894.0,0.0231
893.0,0.023
892.0,0.023
891.0,0.0229
890.0,0.0228
889.0,0.0228
888.0,0.0229
887.0,0.0229
886.0,0.023
885.0,0.0232
884.0,0.0235
883.0,0.0236
882.0,0.0237
881.0,0.0238
880.0,0.0241
879.0,0.0246
878.0,0.0252
877.0,0.0258
876.0,0.0264
875.0,0.0269
874.0,0.0274
873.0,0.0277
872.0,0.0281
871.0,0.0283
870.0,0.0284
869.0,0.0285
868.0,0.0285
867.0,0.0283
866.0,0.028
865.0,0.0276
864.0,0.0274
863.0,0.0271
862.0,0.0268
861.0,0.0265
860.0,0.0263
859.0,0.0261
858.0,0.026
857.0,0.0261
856.0,0.0261
855.0,0.0261
854.0,0.026
853.0,0.0259
852.0,0.0257
851.0,0.0257
850.0,0.0256
849.0,0.0256
848.0,0.0256
847.0,0.0257
846.0,0.0257
845.0,0.0258
844.0,0.0258
843.0,0.0257
842.0,0.0254
841.0,0.0253
840.0,0.0254
839.0,0.0255
838.0,0.0255
837.0,0.0255
836.0,0.0254
835.0,0.0253
834.0,0.0253
833.0,0.0252
832.0,0.0252
831.0,0.0251
830.0,0.025
829.0,0.0249
828.0,0.0248
827.0,0.0248
826.0,0.0249
825.0,0.0248
824.0,0.0247
823.0,0.0245
822.0,0.0242
821.0,0.0241
820.0,0.0241
819.0,0.0242
818.0,0.0243
817.0,0.0242
816.0,0.0241
815.0,0.024
814.0,0.0239
813.0,0.0238
812.0,0.0238
811.0,0.0238
810.0,0.0238
809.0,0.0238
808.0,0.0239
807.0,0.0239
806.0,0.0239
805.0,0.0239
804.0,0.0239
803.0,0.0238
802.0,0.0238
801.0,0.0237
800.0,0.0237
799.0,0.0236
798.0,0.0236
797.0,0.0236
796.0,0.0238
795.0,0.024
794.0,0.0242
793.0,0.0245
792.0,0.0247
791.0,0.0247
790.0,0.0246
789.0,0.0244
788.0,0.0241
787.0,0.0239
786.0,0.0237
785.0,0.0235
784.0,0.0233
783.0,0.0231
782.0,0.0228
781.0,0.0224
780.0,0.022
779.0,0.0218
778.0,0.0216
777.0,0.0214
776.0,0.0212
775.0,0.0211
774.0,0.0209
773.0,0.0208
772.0,0.0207
771.0,0.0206
770.0,0.0205
769.0,0.0203
768.0,0.0199
767.0,0.0196
766.0,0.0192
765.0,0.0189
764.0,0.0187
763.0,0.0185
762.0,0.0183
761.0,0.0181
760.0,0.0178
759.0,0.0173
758.0,0.0169
757.0,0.0165
756.0,0.0162
755.0,0.016
754.0,0.0156
753.0,0.0153
752.0,0.0149
751.0,0.0144
750.0,0.0139
749.0,0.0132
748.0,0.0126
747.0,0.012
746.0,0.0112
745.0,0.0105
744.0,0.01
743.0,0.0097
742.0,0.01
741.0,0.0107
740.0,0.0117
739.0,0.0129
738.0,0.0146
737.0,0.0169
736.0,0.0197
735.0,0.0227
734.0,0.0256
733.0,0.0286
732.0,0.0318
731.0,0.035
730.0,0.0381
729.0,0.0413
728.0,0.0445
727.0,0.0476
726.0,0.0504
725.0,0.0527
724.0,0.0541
723.0,0.0545
722.0,0.0536
721.0,0.0517
720.0,0.0494
719.0,0.0471
718.0,0.045
717.0,0.0433
716.0,0.0417
715.0,0.0401
714.0,0.0386
713.0,0.0374
712.0,0.0365
711.0,0.036
710.0,0.0356
709.0,0.0352
708.0,0.0348
707.0,0.0345
706.0,0.0341
705.0,0.0338
704.0,0.0334
703.0,0.0326
702.0,0.0317
701.0,0.0308
700.0,0.0304
699.0,0.0304
698.0,0.0303
697.0,0.0301
696.0,0.0299
695.0,0.0298
694.0,0.0298
693.0,0.0297
692.0,0.0297
691.0,0.0296
690.0,0.0297
689.0,0.0298
688.0,0.03
687.0,0.0299
686.0,0.0295
685.0,0.0289
684.0,0.0283
683.0,0.0279
682.0,0.0275
681.0,0.0271
680.0,0.0268
679.0,0.0269
678.0,0.0272
677.0,0.0277
676.0,0.0284
675.0,0.0289
674.0,0.0289
673.0,0.0285
672.0,0.0277
671.0,0.0268
670.0,0.0264
669.0,0.0271
668.0,0.0284
667.0,0.0292
666.0,0.0294
665.0,0.0294
664.0,0.0298
663.0,0.0304
662.0,0.0308
661.0,0.0308
660.0,0.0306
659.0,0.0304
658.0,0.0302
657.0,0.03
656.0,0.0302
655.0,0.0308
654.0,0.0314
653.0,0.0318
652.0,0.0321
651.0,0.0324
650.0,0.0326
649.0,0.0331
648.0,0.034
647.0,0.035
646.0,0.0354
645.0,0.0351
644.0,0.0346
643.0,0.0343
642.0,0.0342
641.0,0.0344
640.0,0.035
639.0,0.0359
638.0,0.0369
637.0,0.0378
636.0,0.039
635.0,0.0403
634.0,0.0417
633.0,0.0425
632.0,0.0427
631.0,0.0426
630.0,0.0426
629.0,0.043
628.0,0.0439
627.0,0.0447
626.0,0.045
625.0,0.0447
624.0,0.0441
623.0,0.0433
622.0,0.0425
621.0,0.0421
620.0,0.0421
619.0,0.0427
618.0,0.0438
617.0,0.0453
616.0,0.0468
615.0,0.0479
614.0,0.0484
613.0,0.0484
612.0,0.0485
611.0,0.0485
610.0,0.0483
609.0,0.0478
608.0,0.0473
607.0,0.047
606.0,0.0472
605.0,0.0481
604.0,0.0499
603.0,0.0519
602.0,0.0531
601.0,0.0533
600.0,0.0532
