cm-1,A
4000.0,-0.0006
3999.0,-0.0006
3998.0,-0.0007
3997.0,-0.0008
3996.0,-0.0009
3995.0,-0.0009
3994.0,-0.0008
3993.0,-0.0006
3992.0,-0.0006
3991.0,-0.0006
3990.0,-0.0007
3989.0,-0.0007
3988.0,-0.0008
3987.0,-0.0007
3986.0,-0.0007
3985.0,-0.0007
3984.0,-0.0006
3983.0,-0.0006
3982.0,-0.0006
3981.0,-0.0006
3980.0,-0.0006
3979.0,-0.0006
3978.0,-0.0006
3977.0,-0.0006
3976.0,-0.0006
3975.0,-0.0007
3974.0,-0.0007
3973.0,-0.0007
3972.0,-0.0006
3971.0,-0.0006
3970.0,-0.0006
3969.0,-0.0006
3968.0,-0.0006
3967.0,-0.0007
3966.0,-0.0007
3965.0,-0.0007
3964.0,-0.0006
3963.0,-0.0006
3962.0,-0.0006
3961.0,-0.0006
3960.0,-0.0005
3959.0,-0.0005
3958.0,-0.0006
3957.0,-0.0006
3956.0,-0.0007
3955.0,-0.0007
3954.0,-0.0007
3953.0,-0.0006
3952.0,-0.0005
3951.0,-0.0005
3950.0,-0.0005
3949.0,-0.0006
3948.0,-0.0006
3947.0,-0.0007
3946.0,-0.0007
3945.0,-0.0007
3944.0,-0.0006
3943.0,-0.0005
3942.0,-0.0004
3941.0,-0.0003
3940.0,-0.0003
3939.0,-0.0004
3938.0,-0.0005
3937.0,-0.0006
3936.0,-0.0006
3935.0,-0.0006
3934.0,-0.0006
3933.0,-0.0006
3932.0,-0.0006
3931.0,-0.0006
3930.0,-0.0006
3929.0,-0.0005
3928.0,-0.0005
3927.0,-0.0004
3926.0,-0.0004
3925.0,-0.0003
3924.0,-0.0002
3923.0,-0.0002
3922.0,-0.0003
3921.0,-0.0004
3920.0,-0.0005
3919.0,-0.0006
3918.0,-0.0006
3917.0,-0.0006
3916.0,-0.0006
3915.0,-0.0006
3914.0,-0.0006
3913.0,-0.0006
3912.0,-0.0006
3911.0,-0.0006
3910.0,-0.0005
3909.0,-0.0005
3908.0,-0.0004
3907.0,-0.0004
3906.0,-0.0004
3905.0,-0.0006
3904.0,-0.0008
3903.0,-0.0009
3902.0,-0.0009
3901.0,-0.0008
3900.0,-0.0007
3899.0,-0.0007
3898.0,-0.0007
3897.0,-0.0007
3896.0,-0.0007
3895.0,-0.0007
3894.0,-0.0006
3893.0,-0.0005
3892.0,-0.0005
3891.0,-0.0005
3890.0,-0.0005
3889.0,-0.0005
3888.0,-0.0005
3887.0,-0.0005
3886.0,-0.0006
3885.0,-0.0006
3884.0,-0.0005
3883.0,-0.0003
3882.0,-0.0
3881.0,0.0001
3880.0,0.0001
3879.0,-0.0001
3878.0,-0.0001
3877.0,-0.0001
3876.0,-0.0001
3875.0,-0.0001
3874.0,-0.0002
3873.0,-0.0003
3872.0,-0.0004
3871.0,-0.0004
3870.0,-0.0005
3869.0,-0.0005
3868.0,-0.0005
3867.0,-0.0004
3866.0,-0.0003
3865.0,-0.0003
3864.0,-0.0004
3863.0,-0.0003
3862.0,-0.0003
3861.0,-0.0003
3860.0,-0.0003
3859.0,-0.0004
3858.0,-0.0006
3857.0,-0.0007
3856.0,-0.0007
3855.0,-0.0007
3854.0,-0.0007
3853.0,-0.0007
3852.0,-0.0007
3851.0,-0.0006
3850.0,-0.0006
3849.0,-0.0005
3848.0,-0.0006
3847.0,-0.0005
3846.0,-0.0005
3845.0,-0.0004
3844.0,-0.0002
3843.0,-0.0001
3842.0,-0.0001
3841.0,-0.0001
3840.0,-0.0001
3839.0,-0.0001
3838.0,-0.0
3837.0,-0.0
3836.0,-0.0001
3835.0,-0.0002
3834.0,-0.0002
3833.0,-0.0003
3832.0,-0.0004
3831.0,-0.0004
3830.0,-0.0004
3829.0,-0.0003
3828.0,-0.0003
3827.0,-0.0004
3826.0,-0.0004
3825.0,-0.0004
3824.0,-0.0003
3823.0,-0.0002
3822.0,-0.0002
3821.0,-0.0003
3820.0,-0.0005
3819.0,-0.0005
3818.0,-0.0004
3817.0,-0.0003
3816.0,-0.0002
3815.0,-0.0003
3814.0,-0.0003
3813.0,-0.0003
3812.0,-0.0003
3811.0,-0.0003
3810.0,-0.0003
3809.0,-0.0003
3808.0,-0.0002
3807.0,-0.0002
3806.0,-0.0002
3805.0,-0.0001
3804.0,0.0001
3803.0,0.0003
3802.0,0.0003
3801.0,0.0002
3800.0,0.0001
3799.0,-0.0
3798.0,-0.0001
3797.0,-0.0001
3796.0,-0.0002
3795.0,-0.0003
3794.0,-0.0003
3793.0,-0.0003
3792.0,-0.0003
3791.0,-0.0003
3790.0,-0.0004
3789.0,-0.0004
3788.0,-0.0003
3787.0,-0.0003
3786.0,-0.0002
3785.0,-0.0002
3784.0,-0.0002
3783.0,-0.0002
3782.0,-0.0001
3781.0,-0.0
3780.0,-0.0
3779.0,-0.0001
3778.0,-0.0001
3777.0,-0.0002
3776.0,-0.0003
3775.0,-0.0003
3774.0,-0.0004
3773.0,-0.0004
3772.0,-0.0003
3771.0,-0.0004
3770.0,-0.0005
3769.0,-0.0005
3768.0,-0.0005
3767.0,-0.0005
3766.0,-0.0004
3765.0,-0.0004
3764.0,-0.0003
3763.0,-0.0003
3762.0,-0.0002
3761.0,-0.0002
3760.0,-0.0002
3759.0,-0.0002
3758.0,-0.0002
3757.0,-0.0002
3756.0,-0.0002
3755.0,-0.0003
3754.0,-0.0004
3753.0,-0.0005
3752.0,-0.0008
3751.0,-0.001
3750.0,-0.001
3749.0,-0.0011
3748.0,-0.0011
3747.0,-0.0011
3746.0,-0.0009
3745.0,-0.001
3744.0,-0.0011
3743.0,-0.0013
3742.0,-0.0014
3741.0,-0.0014
3740.0,-0.0015
3739.0,-0.0016
3738.0,-0.0017
3737.0,-0.0019
3736.0,-0.0021
3735.0,-0.0022
3734.0,-0.0022
3733.0,-0.0022
3732.0,-0.0023
3731.0,-0.0024
3730.0,-0.0025
3729.0,-0.0026
3728.0,-0.0026
3727.0,-0.0025
3726.0,-0.0023
3725.0,-0.0021
3724.0,-0.0018
3723.0,-0.0017
3722.0,-0.0016
3721.0,-0.0016
3720.0,-0.0015
3719.0,-0.0013
3718.0,-0.0011
3717.0,-0.001
3716.0,-0.0009
3715.0,-0.0009
3714.0,-0.0009
3713.0,-0.0012
3712.0,-0.0015
3711.0,-0.0018
3710.0,-0.0018
3709.0,-0.0018
3708.0,-0.0018
3707.0,-0.0017
3706.0,-0.0017
3705.0,-0.0016
3704.0,-0.0015
3703.0,-0.0013
3702.0,-0.0012
3701.0,-0.0013
3700.0,-0.0014
3699.0,-0.0015
3698.0,-0.0015
3697.0,-0.0015
3696.0,-0.0015
3695.0,-0.0015
3694.0,-0.0014
3693.0,-0.0013
3692.0,-0.0012
3691.0,-0.0009
3690.0,-0.0007
3689.0,-0.0007
3688.0,-0.0008
3687.0,-0.001
3686.0,-0.0011
3685.0,-0.001
3684.0,-0.0009
3683.0,-0.0008
3682.0,-0.0006
3681.0,-0.0005
3680.0,-0.0005
3679.0,-0.0005
3678.0,-0.0005
3677.0,-0.0004
3676.0,-0.0003
3675.0,-0.0002
3674.0,-0.0003
3673.0,-0.0003
3672.0,-0.0002
3671.0,-0.0003
3670.0,-0.0003
3669.0,-0.0003
3668.0,-0.0004
3667.0,-0.0004
3666.0,-0.0004
3665.0,-0.0004
3664.0,-0.0004
3663.0,-0.0004
3662.0,-0.0004
3661.0,-0.0004
3660.0,-0.0004
3659.0,-0.0004
3658.0,-0.0003
3657.0,-0.0003
3656.0,-0.0003
3655.0,-0.0002
3654.0,-0.0001
3653.0,0.0
3652.0,0.0002
3651.0,0.0001
3650.0,0.0001
3649.0,0.0004
3648.0,0.0005
3647.0,0.0004
3646.0,0.0003
3645.0,0.0001
3644.0,-0.0001
3643.0,-0.0002
3642.0,-0.0003
3641.0,-0.0003
3640.0,-0.0003
3639.0,-0.0004
3638.0,-0.0004
3637.0,-0.0004
3636.0,-0.0005
3635.0,-0.0006
3634.0,-0.0008
3633.0,-0.001
3632.0,-0.0012
3631.0,-0.0012
3630.0,-0.0013
3629.0,-0.0013
3628.0,-0.0013
3627.0,-0.0012
3626.0,-0.0012
3625.0,-0.0011
3624.0,-0.001
3623.0,-0.0009
3622.0,-0.0006
3621.0,-0.0003
3620.0,-0.0001
3619.0,-0.0
3618.0,-0.0
3617.0,-0.0
3616.0,0.0001
3615.0,0.0002
3614.0,0.0003
3613.0,0.0001
3612.0,-0.0001
3611.0,-0.0003
3610.0,-0.0004
3609.0,-0.0005
3608.0,-0.0005
3607.0,-0.0005
3606.0,-0.0004
3605.0,-0.0004
3604.0,-0.0004
3603.0,-0.0004
3602.0,-0.0004
3601.0,-0.0004
3600.0,-0.0003
3599.0,-0.0002
3598.0,-0.0001
3597.0,-0.0001
3596.0,-0.0002
3595.0,-0.0003
3594.0,-0.0003
3593.0,-0.0002
3592.0,-0.0001
3591.0,0.0
3590.0,0.0002
3589.0,0.0004
3588.0,0.0005
3587.0,0.0006
3586.0,0.0006
3585.0,0.0006
3584.0,0.0006
3583.0,0.0007
3582.0,0.0008
3581.0,0.0009
3580.0,0.0009
3579.0,0.0009
3578.0,0.0009
3577.0,0.0009
3576.0,0.0009
3575.0,0.0009
3574.0,0.0009
3573.0,0.0009
3572.0,0.0008
3571.0,0.0008
3570.0,0.0009
3569.0,0.0009
3568.0,0.001
3567.0,0.0011
3566.0,0.0013
3565.0,0.0014
3564.0,0.0014
3563.0,0.0014
3562.0,0.0014
3561.0,0.0014
3560.0,0.0014
3559.0,0.0013
3558.0,0.0013
3557.0,0.0013
3556.0,0.0014
3555.0,0.0015
3554.0,0.0016
3553.0,0.0017
3552.0,0.0018
3551.0,0.0018
3550.0,0.0018
3549.0,0.0018
3548.0,0.0018
3547.0,0.0018
3546.0,0.0019
3545.0,0.0019
3544.0,0.0018
3543.0,0.0018
3542.0,0.0017
3541.0,0.0017
3540.0,0.0017
3539.0,0.0018
3538.0,0.0019
3537.0,0.0019
3536.0,0.002
3535.0,0.002
3534.0,0.0021
3533.0,0.0023
3532.0,0.0024
3531.0,0.0025
3530.0,0.0025
3529.0,0.0025
3528.0,0.0024
3527.0,0.0024
3526.0,0.0023
3525.0,0.0022
3524.0,0.0021
3523.0,0.0021
3522.0,0.0021
3521.0,0.0022
3520.0,0.0022
3519.0,0.0022
3518.0,0.0021
3517.0,0.0021
3516.0,0.0021
3515.0,0.0022
3514.0,0.0023
3513.0,0.0024
3512.0,0.0025
3511.0,0.0024
3510.0,0.0024
3509.0,0.0024
3508.0,0.0024
3507.0,0.0025
3506.0,0.0025
3505.0,0.0025
3504.0,0.0025
3503.0,0.0024
3502.0,0.0023
3501.0,0.0023
3500.0,0.0023
3499.0,0.0022
3498.0,0.0022
3497.0,0.0023
3496.0,0.0023
3495.0,0.0024
3494.0,0.0024
3493.0,0.0025
3492.0,0.0025
3491.0,0.0025
3490.0,0.0024
3489.0,0.0023
3488.0,0.0023
3487.0,0.0023
3486.0,0.0023
3485.0,0.0023
3484.0,0.0023
3483.0,0.0023
3482.0,0.0023
3481.0,0.0024
3480.0,0.0025
3479.0,0.0025
3478.0,0.0026
3477.0,0.0027
3476.0,0.0027
3475.0,0.0027
3474.0,0.0027
3473.0,0.0026
3472.0,0.0026
3471.0,0.0025
3470.0,0.0025
3469.0,0.0025
3468.0,0.0026
3467.0,0.0026
3466.0,0.0026
3465.0,0.0025
3464.0,0.0024
3463.0,0.0024
3462.0,0.0024
3461.0,0.0025
3460.0,0.0026
3459.0,0.0027
3458.0,0.0027
3457.0,0.0027
3456.0,0.0026
3455.0,0.0026
3454.0,0.0026
3453.0,0.0027
3452.0,0.0027
3451.0,0.0028
3450.0,0.0028
3449.0,0.0029
3448.0,0.003
3447.0,0.0031
3446.0,0.0032
3445.0,0.0032
3444.0,0.0032
3443.0,0.0031
3442.0,0.0029
3441.0,0.0029
3440.0,0.0029
3439.0,0.003
3438.0,0.003
3437.0,0.003
3436.0,0.003
3435.0,0.003
3434.0,0.0031
3433.0,0.0031
3432.0,0.0032
3431.0,0.0033
3430.0,0.0033
3429.0,0.0033
3428.0,0.0033
3427.0,0.0033
3426.0,0.0033
3425.0,0.0033
3424.0,0.0033
3423.0,0.0035
3422.0,0.0036
3421.0,0.0037
3420.0,0.0037
3419.0,0.0037
3418.0,0.0036
3417.0,0.0036
3416.0,0.0037
3415.0,0.0038
3414.0,0.0038
3413.0,0.0038
3412.0,0.0038
3411.0,0.0038
3410.0,0.0037
3409.0,0.0037
3408.0,0.0037
3407.0,0.0038
3406.0,0.0038
3405.0,0.0039
3404.0,0.0039
3403.0,0.0038
3402.0,0.0038
3401.0,0.0037
3400.0,0.0037
3399.0,0.0037
3398.0,0.0038
3397.0,0.0039
3396.0,0.0039
3395.0,0.004
3394.0,0.0041
3393.0,0.0041
3392.0,0.0042
3391.0,0.0041
3390.0,0.004
3389.0,0.0039
3388.0,0.0039
3387.0,0.0039
3386.0,0.0039
3385.0,0.0038
3384.0,0.0038
3383.0,0.0037
3382.0,0.0037
3381.0,0.0037
3380.0,0.0037
3379.0,0.0037
3378.0,0.0038
3377.0,0.0038
3376.0,0.0037
3375.0,0.0037
3374.0,0.0037
3373.0,0.0036
3372.0,0.0035
3371.0,0.0034
3370.0,0.0034
3369.0,0.0034
3368.0,0.0035
3367.0,0.0036
3366.0,0.0037
3365.0,0.0037
3364.0,0.0037
3363.0,0.0036
3362.0,0.0036
3361.0,0.0035
3360.0,0.0035
3359.0,0.0035
3358.0,0.0034
3357.0,0.0034
3356.0,0.0034
3355.0,0.0033
3354.0,0.0033
3353.0,0.0032
3352.0,0.0032
3351.0,0.0031
3350.0,0.0032
3349.0,0.0032
3348.0,0.0033
3347.0,0.0033
3346.0,0.0033
3345.0,0.0033
3344.0,0.0033
3343.0,0.0033
3342.0,0.0032
3341.0,0.0032
3340.0,0.0031
3339.0,0.0031
3338.0,0.0031
3337.0,0.0032
3336.0,0.0033
3335.0,0.0034
3334.0,0.0034
3333.0,0.0034
3332.0,0.0034
3331.0,0.0034
3330.0,0.0033
3329.0,0.0032
3328.0,0.0031
3327.0,0.0031
3326.0,0.0031
3325.0,0.0032
3324.0,0.0032
3323.0,0.0032
3322.0,0.0032
3321.0,0.0032
3320.0,0.0033
3319.0,0.0033
3318.0,0.0033
3317.0,0.0033
3316.0,0.0033
3315.0,0.0032
3314.0,0.0032
3313.0,0.0032
3312.0,0.0032
3311.0,0.0032
3310.0,0.0032
3309.0,0.0031
3308.0,0.0031
3307.0,0.0031
3306.0,0.0031
3305.0,0.0032
3304.0,0.0032
3303.0,0.0033
3302.0,0.0032
3301.0,0.0031
3300.0,0.003
3299.0,0.0029
3298.0,0.0029
3297.0,0.0029
3296.0,0.0029
3295.0,0.0028
3294.0,0.0028
3293.0,0.0029
3292.0,0.003
3291.0,0.0032
3290.0,0.0032
3289.0,0.0033
3288.0,0.0032
3287.0,0.0032
3286.0,0.0031
3285.0,0.003
3284.0,0.0029
3283.0,0.0029
3282.0,0.0029
3281.0,0.003
3280.0,0.003
3279.0,0.0031
3278.0,0.0031
3277.0,0.0031
3276.0,0.003
3275.0,0.003
3274.0,0.003
3273.0,0.003
3272.0,0.003
3271.0,0.0029
3270.0,0.0029
3269.0,0.003
3268.0,0.003
3267.0,0.003
3266.0,0.003
3265.0,0.003
3264.0,0.0029
3263.0,0.0029
3262.0,0.003
3261.0,0.003
3260.0,0.003
3259.0,0.0031
3258.0,0.0031
3257.0,0.0032
3256.0,0.0032
3255.0,0.0033
3254.0,0.0034
3253.0,0.0034
3252.0,0.0033
3251.0,0.0033
3250.0,0.0032
3249.0,0.0032
3248.0,0.0032
3247.0,0.0031
3246.0,0.003
3245.0,0.003
3244.0,0.003
3243.0,0.0031
3242.0,0.0032
3241.0,0.0032
3240.0,0.0032
3239.0,0.0032
3238.0,0.0031
3237.0,0.0031
3236.0,0.003
3235.0,0.003
3234.0,0.003
3233.0,0.0029
3232.0,0.0029
3231.0,0.0029
3230.0,0.0029
3229.0,0.0029
3228.0,0.0028
3227.0,0.0028
3226.0,0.0029
3225.0,0.003
3224.0,0.003
3223.0,0.003
3222.0,0.0028
3221.0,0.0028
3220.0,0.0027
3219.0,0.0028
3218.0,0.0029
3217.0,0.003
3216.0,0.003
3215.0,0.003
3214.0,0.0031
3213.0,0.0031
3212.0,0.0031
3211.0,0.0031
3210.0,0.0031
3209.0,0.0031
3208.0,0.0031
3207.0,0.003
3206.0,0.003
3205.0,0.0029
3204.0,0.0029
3203.0,0.0028
3202.0,0.0028
3201.0,0.0027
3200.0,0.0027
3199.0,0.0026
3198.0,0.0026
3197.0,0.0026
3196.0,0.0026
3195.0,0.0027
3194.0,0.0028
3193.0,0.0029
3192.0,0.003
3191.0,0.003
3190.0,0.003
3189.0,0.0029
3188.0,0.0028
3187.0,0.0028
3186.0,0.0027
3185.0,0.0027
3184.0,0.0027
3183.0,0.0026
3182.0,0.0026
3181.0,0.0025
3180.0,0.0024
3179.0,0.0025
3178.0,0.0026
3177.0,0.0027
3176.0,0.0027
3175.0,0.0028
3174.0,0.0028
3173.0,0.0028
3172.0,0.0028
3171.0,0.0027
3170.0,0.0027
3169.0,0.0028
3168.0,0.0028
3167.0,0.0028
3166.0,0.0027
3165.0,0.0027
3164.0,0.0027
3163.0,0.0027
3162.0,0.0027
3161.0,0.0028
3160.0,0.0028
3159.0,0.0028
3158.0,0.0027
3157.0,0.0027
3156.0,0.0026
3155.0,0.0026
3154.0,0.0027
3153.0,0.0027
3152.0,0.0027
3151.0,0.0028
3150.0,0.0028
3149.0,0.0028
3148.0,0.0028
3147.0,0.0027
3146.0,0.0027
3145.0,0.0026
3144.0,0.0027
3143.0,0.0028
3142.0,0.0028
3141.0,0.0027
3140.0,0.0025
3139.0,0.0024
3138.0,0.0023
3137.0,0.0023
3136.0,0.0024
3135.0,0.0024
3134.0,0.0025
3133.0,0.0025
3132.0,0.0026
3131.0,0.0026
3130.0,0.0026
3129.0,0.0026
3128.0,0.0026
3127.0,0.0027
3126.0,0.0027
3125.0,0.0027
3124.0,0.0026
3123.0,0.0025
3122.0,0.0024
3121.0,0.0024
3120.0,0.0025
3119.0,0.0026
3118.0,0.0027
3117.0,0.0027
3116.0,0.0026
3115.0,0.0025
3114.0,0.0025
3113.0,0.0025
3112.0,0.0025
3111.0,0.0024
3110.0,0.0024
3109.0,0.0025
3108.0,0.0025
3107.0,0.0026
3106.0,0.0026
3105.0,0.0025
3104.0,0.0025
3103.0,0.0025
3102.0,0.0025
3101.0,0.0025
3100.0,0.0025
3099.0,0.0026
3098.0,0.0027
3097.0,0.0028
3096.0,0.0028
3095.0,0.0028
3094.0,0.0027
3093.0,0.0027
3092.0,0.0026
3091.0,0.0025
3090.0,0.0024
3089.0,0.0024
3088.0,0.0025
3087.0,0.0026
3086.0,0.0028
3085.0,0.0028
3084.0,0.0027
3083.0,0.0026
3082.0,0.0025
3081.0,0.0025
3080.0,0.0025
3079.0,0.0026
3078.0,0.0026
3077.0,0.0026
3076.0,0.0025
3075.0,0.0025
3074.0,0.0025
3073.0,0.0025
3072.0,0.0026
3071.0,0.0027
3070.0,0.0027
3069.0,0.0027
3068.0,0.0027
3067.0,0.0026
3066.0,0.0025
3065.0,0.0025
3064.0,0.0025
3063.0,0.0025
3062.0,0.0026
3061.0,0.0026
3060.0,0.0025
3059.0,0.0025
3058.0,0.0025
3057.0,0.0026
3056.0,0.0026
3055.0,0.0026
3054.0,0.0025
3053.0,0.0025
3052.0,0.0026
3051.0,0.0027
3050.0,0.0028
3049.0,0.0028
3048.0,0.0027
3047.0,0.0025
3046.0,0.0025
3045.0,0.0024
3044.0,0.0024
3043.0,0.0025
3042.0,0.0025
3041.0,0.0024
3040.0,0.0024
3039.0,0.0023
3038.0,0.0023
3037.0,0.0023
3036.0,0.0023
3035.0,0.0024
3034.0,0.0024
3033.0,0.0024
3032.0,0.0023
3031.0,0.0023
3030.0,0.0022
3029.0,0.0022
3028.0,0.0022
3027.0,0.0022
3026.0,0.0022
3025.0,0.0022
3024.0,0.0023
3023.0,0.0024
3022.0,0.0025
3021.0,0.0025
3020.0,0.0026
3019.0,0.0025
3018.0,0.0025
3017.0,0.0025
3016.0,0.0024
3015.0,0.0025
3014.0,0.0025
3013.0,0.0025
3012.0,0.0025
3011.0,0.0025
3010.0,0.0024
3009.0,0.0024
3008.0,0.0024
3007.0,0.0023
3006.0,0.0024
3005.0,0.0024
3004.0,0.0024
3003.0,0.0024
3002.0,0.0024
3001.0,0.0024
3000.0,0.0025
2999.0,0.0025
2998.0,0.0025
2997.0,0.0025
2996.0,0.0025
2995.0,0.0024
2994.0,0.0024
2993.0,0.0024
2992.0,0.0025
2991.0,0.0025
2990.0,0.0026
2989.0,0.0026
2988.0,0.0026
2987.0,0.0026
2986.0,0.0026
2985.0,0.0026
2984.0,0.0025
2983.0,0.0025
2982.0,0.0026
2981.0,0.0027
2980.0,0.0027
2979.0,0.0027
2978.0,0.0028
2977.0,0.0029
2976.0,0.003
2975.0,0.0031
2974.0,0.0032
2973.0,0.0032
2972.0,0.0032
2971.0,0.0032
2970.0,0.0032
2969.0,0.0032
2968.0,0.0032
2967.0,0.0033
2966.0,0.0034
2965.0,0.0035
2964.0,0.0035
2963.0,0.0035
2962.0,0.0034
2961.0,0.0034
2960.0,0.0034
2959.0,0.0035
2958.0,0.0035
2957.0,0.0035
2956.0,0.0035
2955.0,0.0034
2954.0,0.0034
2953.0,0.0034
2952.0,0.0033
2951.0,0.0033
2950.0,0.0033
2949.0,0.0032
2948.0,0.0032
2947.0,0.0032
2946.0,0.0032
2945.0,0.0032
2944.0,0.0031
2943.0,0.0031
2942.0,0.0032
2941.0,0.0032
2940.0,0.0031
2939.0,0.003
2938.0,0.0029
2937.0,0.0029
2936.0,0.0029
2935.0,0.003
2934.0,0.003
2933.0,0.0031
2932.0,0.0031
2931.0,0.003
2930.0,0.003
2929.0,0.0029
2928.0,0.0029
2927.0,0.0029
2926.0,0.0029
2925.0,0.0029
2924.0,0.003
2923.0,0.003
2922.0,0.003
2921.0,0.0029
2920.0,0.0029
2919.0,0.0028
2918.0,0.0028
2917.0,0.0029
2916.0,0.0029
2915.0,0.003
2914.0,0.003
2913.0,0.003
2912.0,0.003
2911.0,0.003
2910.0,0.0031
2909.0,0.0031
2908.0,0.0032
2907.0,0.0032
2906.0,0.0032
2905.0,0.0032
2904.0,0.0032
2903.0,0.0031
2902.0,0.0031
2901.0,0.0031
2900.0,0.0031
2899.0,0.0031
2898.0,0.003
2897.0,0.003
2896.0,0.003
2895.0,0.003
2894.0,0.0029
2893.0,0.0028
2892.0,0.0028
2891.0,0.0029
2890.0,0.0029
2889.0,0.003
2888.0,0.0031
2887.0,0.0031
2886.0,0.003
2885.0,0.003
2884.0,0.0029
2883.0,0.0029
2882.0,0.0029
2881.0,0.0029
2880.0,0.0029
2879.0,0.003
2878.0,0.003
2877.0,0.0031
2876.0,0.003
2875.0,0.003
2874.0,0.003
2873.0,0.003
2872.0,0.003
2871.0,0.0031
2870.0,0.0031
2869.0,0.0031
2868.0,0.003
2867.0,0.003
2866.0,0.003
2865.0,0.0029
2864.0,0.0029
2863.0,0.003
2862.0,0.003
2861.0,0.0031
2860.0,0.0031
2859.0,0.0031
2858.0,0.0031
2857.0,0.0031
2856.0,0.0031
2855.0,0.0031
2854.0,0.0031
2853.0,0.0031
2852.0,0.0031
2851.0,0.0031
2850.0,0.0031
2849.0,0.0031
2848.0,0.0031
2847.0,0.0031
2846.0,0.0031
2845.0,0.0031
2844.0,0.003
2843.0,0.003
2842.0,0.003
2841.0,0.003
2840.0,0.003
2839.0,0.003
2838.0,0.003
2837.0,0.0029
2836.0,0.0029
2835.0,0.0029
2834.0,0.0029
2833.0,0.003
2832.0,0.003
2831.0,0.0029
2830.0,0.0029
2829.0,0.0029
2828.0,0.0029
2827.0,0.003
2826.0,0.003
2825.0,0.003
2824.0,0.0029
2823.0,0.0029
2822.0,0.0029
2821.0,0.0029
2820.0,0.0029
2819.0,0.0029
2818.0,0.0029
2817.0,0.0029
2816.0,0.0029
2815.0,0.0029
2814.0,0.0029
2813.0,0.0028
2812.0,0.0028
2811.0,0.0028
2810.0,0.0029
2809.0,0.0029
2808.0,0.003
2807.0,0.003
2806.0,0.0031
2805.0,0.0031
2804.0,0.0031
2803.0,0.003
2802.0,0.0029
2801.0,0.0029
2800.0,0.0029
2799.0,0.0029
2798.0,0.0029
2797.0,0.0029
2796.0,0.0029
2795.0,0.0029
2794.0,0.0029
2793.0,0.0028
2792.0,0.0028
2791.0,0.0028
2790.0,0.0028
2789.0,0.0029
2788.0,0.0029
2787.0,0.003
2786.0,0.003
2785.0,0.0029
2784.0,0.0029
2783.0,0.0029
2782.0,0.0029
2781.0,0.0029
2780.0,0.003
2779.0,0.003
2778.0,0.0029
2777.0,0.0029
2776.0,0.0029
2775.0,0.0029
2774.0,0.0029
2773.0,0.003
2772.0,0.0029
2771.0,0.0029
2770.0,0.0029
2769.0,0.0028
2768.0,0.0028
2767.0,0.0029
2766.0,0.0029
2765.0,0.0029
2764.0,0.0029
2763.0,0.0029
2762.0,0.0029
2761.0,0.003
2760.0,0.003
2759.0,0.003
2758.0,0.003
2757.0,0.003
2756.0,0.003
2755.0,0.003
2754.0,0.003
2753.0,0.003
2752.0,0.0029
2751.0,0.0029
2750.0,0.0028
2749.0,0.0028
2748.0,0.0028
2747.0,0.0029
2746.0,0.0029
2745.0,0.0029
2744.0,0.003
2743.0,0.003
2742.0,0.0029
2741.0,0.0029
2740.0,0.0029
2739.0,0.0029
2738.0,0.0029
2737.0,0.003
2736.0,0.003
2735.0,0.0029
2734.0,0.0029
2733.0,0.0029
2732.0,0.0029
2731.0,0.0029
2730.0,0.0029
2729.0,0.003
2728.0,0.003
2727.0,0.003
2726.0,0.003
2725.0,0.0029
2724.0,0.0029
2723.0,0.003
2722.0,0.003
2721.0,0.003
2720.0,0.003
2719.0,0.003
2718.0,0.003
2717.0,0.0029
2716.0,0.0029
2715.0,0.003
2714.0,0.003
2713.0,0.003
2712.0,0.003
2711.0,0.003
2710.0,0.0029
2709.0,0.0029
2708.0,0.0029
2707.0,0.0029
2706.0,0.0029
2705.0,0.0028
2704.0,0.0028
2703.0,0.0028
2702.0,0.0029
2701.0,0.0029
2700.0,0.003
2699.0,0.003
2698.0,0.0031
2697.0,0.0031
2696.0,0.003
2695.0,0.003
2694.0,0.0029
2693.0,0.0029
2692.0,0.003
2691.0,0.003
2690.0,0.003
2689.0,0.003
2688.0,0.003
2687.0,0.003
2686.0,0.003
2685.0,0.003
2684.0,0.003
2683.0,0.003
2682.0,0.0031
2681.0,0.0031
2680.0,0.0032
2679.0,0.0032
2678.0,0.0032
2677.0,0.0031
2676.0,0.0031
2675.0,0.0031
2674.0,0.003
2673.0,0.003
2672.0,0.003
2671.0,0.003
2670.0,0.003
2669.0,0.003
2668.0,0.003
2667.0,0.003
2666.0,0.003
2665.0,0.003
2664.0,0.0031
2663.0,0.0031
2662.0,0.0031
2661.0,0.0031
2660.0,0.0031
2659.0,0.0031
2658.0,0.003
2657.0,0.003
2656.0,0.003
2655.0,0.003
2654.0,0.003
2653.0,0.0029
2652.0,0.0029
2651.0,0.0029
2650.0,0.0029
2649.0,0.0029
2648.0,0.0029
2647.0,0.003
2646.0,0.003
2645.0,0.003
2644.0,0.003
2643.0,0.003
2642.0,0.0029
2641.0,0.0029
2640.0,0.0029
2639.0,0.003
2638.0,0.003
2637.0,0.003
2636.0,0.003
2635.0,0.003
2634.0,0.003
2633.0,0.003
2632.0,0.0031
2631.0,0.0031
2630.0,0.0031
2629.0,0.003
2628.0,0.003
2627.0,0.003
2626.0,0.003
2625.0,0.003
2624.0,0.003
2623.0,0.003
2622.0,0.003
2621.0,0.003
2620.0,0.003
2619.0,0.003
2618.0,0.003
2617.0,0.0031
2616.0,0.0031
2615.0,0.0031
2614.0,0.0031
2613.0,0.0032
2612.0,0.0032
2611.0,0.0032
2610.0,0.0031
2609.0,0.0031
2608.0,0.0031
2607.0,0.0031
2606.0,0.0031
2605.0,0.003
2604.0,0.003
2603.0,0.003
2602.0,0.003
2601.0,0.003
2600.0,0.003
2599.0,0.003
2598.0,0.003
2597.0,0.003
2596.0,0.0031
2595.0,0.0031
2594.0,0.0031
2593.0,0.0031
2592.0,0.0031
2591.0,0.0031
2590.0,0.0031
2589.0,0.0032
2588.0,0.0032
2587.0,0.0032
2586.0,0.0031
2585.0,0.0031
2584.0,0.0031
2583.0,0.0031
2582.0,0.0032
2581.0,0.0031
2580.0,0.0031
2579.0,0.0031
2578.0,0.003
2577.0,0.0031
2576.0,0.0031
2575.0,0.0031
2574.0,0.0031
2573.0,0.0031
2572.0,0.0031
2571.0,0.0031
2570.0,0.0032
2569.0,0.0032
2568.0,0.0032
2567.0,0.0032
2566.0,0.0032
2565.0,0.0031
2564.0,0.0031
2563.0,0.0031
2562.0,0.0031
2561.0,0.0031
2560.0,0.0031
2559.0,0.0031
2558.0,0.0031
2557.0,0.0032
2556.0,0.0032
2555.0,0.0032
2554.0,0.0032
2553.0,0.0032
2552.0,0.0032
2551.0,0.0032
2550.0,0.0031
2549.0,0.0031
2548.0,0.0032
2547.0,0.0032
2546.0,0.0032
2545.0,0.0032
2544.0,0.0032
2543.0,0.0032
2542.0,0.0032
2541.0,0.0032
2540.0,0.0033
2539.0,0.0033
2538.0,0.0032
2537.0,0.0032
2536.0,0.0032
2535.0,0.0032
2534.0,0.0032
2533.0,0.0032
2532.0,0.0032
2531.0,0.0031
2530.0,0.0031
2529.0,0.0031
2528.0,0.0031
2527.0,0.0031
2526.0,0.0032
2525.0,0.0032
2524.0,0.0032
2523.0,0.0033
2522.0,0.0032
2521.0,0.0032
2520.0,0.0031
2519.0,0.0031
2518.0,0.003
2517.0,0.0031
2516.0,0.0031
2515.0,0.0031
2514.0,0.0031
2513.0,0.0032
2512.0,0.0032
2511.0,0.0032
2510.0,0.0031
2509.0,0.0031
2508.0,0.0031
2507.0,0.0031
2506.0,0.0032
2505.0,0.0032
2504.0,0.0032
2503.0,0.0033
2502.0,0.0033
2501.0,0.0033
2500.0,0.0033
2499.0,0.0034
2498.0,0.0033
2497.0,0.0033
2496.0,0.0033
2495.0,0.0032
2494.0,0.0032
2493.0,0.0031
2492.0,0.0031
2491.0,0.0031
2490.0,0.0032
2489.0,0.0032
2488.0,0.0032
2487.0,0.0032
2486.0,0.0031
2485.0,0.0031
2484.0,0.0032
2483.0,0.0032
2482.0,0.0033
2481.0,0.0033
2480.0,0.0033
2479.0,0.0033
2478.0,0.0032
2477.0,0.0032
2476.0,0.0031
2475.0,0.0031
2474.0,0.0031
2473.0,0.0031
2472.0,0.0031
2471.0,0.0031
2470.0,0.0031
2469.0,0.0031
2468.0,0.0031
2467.0,0.0031
2466.0,0.0031
2465.0,0.0032
2464.0,0.0032
2463.0,0.0032
2462.0,0.0032
2461.0,0.0032
2460.0,0.0031
2459.0,0.0031
2458.0,0.0031
2457.0,0.003
2456.0,0.003
2455.0,0.003
2454.0,0.003
2453.0,0.003
2452.0,0.003
2451.0,0.003
2450.0,0.003
2449.0,0.003
2448.0,0.003
2447.0,0.0029
2446.0,0.003
2445.0,0.003
2444.0,0.0031
2443.0,0.0031
2442.0,0.0031
2441.0,0.0031
2440.0,0.0031
2439.0,0.0031
2438.0,0.0031
2437.0,0.0031
2436.0,0.0031
2435.0,0.003
2434.0,0.003
2433.0,0.003
2432.0,0.003
2431.0,0.003
2430.0,0.003
2429.0,0.003
2428.0,0.003
2427.0,0.003
2426.0,0.003
2425.0,0.0031
2424.0,0.0031
2423.0,0.0031
2422.0,0.0031
2421.0,0.003
2420.0,0.003
2419.0,0.003
2418.0,0.003
2417.0,0.0031
2416.0,0.0031
2415.0,0.0031
2414.0,0.003
2413.0,0.003
2412.0,0.003
2411.0,0.0031
2410.0,0.0031
2409.0,0.0031
2408.0,0.0031
2407.0,0.0031
2406.0,0.0031
2405.0,0.0031
2404.0,0.0031
2403.0,0.0031
2402.0,0.0032
2401.0,0.0031
2400.0,0.0031
2399.0,0.0031
2398.0,0.0031
2397.0,0.0031
2396.0,0.0032
2395.0,0.0032
2394.0,0.0032
2393.0,0.0032
2392.0,0.0031
2391.0,0.003
2390.0,0.0029
2389.0,0.0027
2388.0,0.0024
2387.0,0.002
2386.0,0.0016
2385.0,0.0011
2384.0,0.0007
2383.0,0.0003
2382.0,-0.0001
2381.0,-0.0003
2380.0,-0.0005
2379.0,-0.0006
2378.0,-0.0007
2377.0,-0.0006
2376.0,-0.0007
2375.0,-0.001
2374.0,-0.0014
2373.0,-0.0017
2372.0,-0.0019
2371.0,-0.002
2370.0,-0.0021
2369.0,-0.0023
2368.0,-0.0026
2367.0,-0.0025
2366.0,-0.002
2365.0,-0.0014
2364.0,-0.0012
2363.0,-0.0013
2362.0,-0.0012
2361.0,-0.0013
2360.0,-0.0025
2359.0,-0.0045
2358.0,-0.0057
2357.0,-0.0053
2356.0,-0.0045
2355.0,-0.0043
2354.0,-0.0043
2353.0,-0.004
2352.0,-0.0039
2351.0,-0.004
2350.0,-0.0042
2349.0,-0.0042
2348.0,-0.0041
2347.0,-0.0038
2346.0,-0.0038
2345.0,-0.004
2344.0,-0.0047
2343.0,-0.0056
2342.0,-0.0056
2341.0,-0.0045
2340.0,-0.0034
2339.0,-0.0032
2338.0,-0.0036
2337.0,-0.0042
2336.0,-0.0045
2335.0,-0.0048
2334.0,-0.0048
2333.0,-0.0047
2332.0,-0.0044
2331.0,-0.0041
2330.0,-0.0042
2329.0,-0.0044
2328.0,-0.0047
2327.0,-0.0046
2326.0,-0.0041
2325.0,-0.0032
2324.0,-0.0022
2323.0,-0.0016
2322.0,-0.0015
2321.0,-0.0019
2320.0,-0.0023
2319.0,-0.0025
2318.0,-0.0025
2317.0,-0.0024
2316.0,-0.0025
2315.0,-0.0026
2314.0,-0.0029
2313.0,-0.0034
2312.0,-0.0038
2311.0,-0.0041
2310.0,-0.0042
2309.0,-0.0039
2308.0,-0.0034
2307.0,-0.0029
2306.0,-0.0024
2305.0,-0.0022
2304.0,-0.0021
2303.0,-0.0022
2302.0,-0.0021
2301.0,-0.0019
2300.0,-0.0017
2299.0,-0.0014
2298.0,-0.0012
2297.0,-0.001
2296.0,-0.0008
2295.0,-0.0005
2294.0,-0.0002
2293.0,0.0
2292.0,0.0003
2291.0,0.0007
2290.0,0.001
2289.0,0.0013
2288.0,0.0016
2287.0,0.0018
2286.0,0.0019
2285.0,0.002
2284.0,0.0021
2283.0,0.0022
2282.0,0.0022
2281.0,0.0022
2280.0,0.0022
2279.0,0.0022
2278.0,0.0022
2277.0,0.0022
2276.0,0.0022
2275.0,0.0022
2274.0,0.0021
2273.0,0.0021
2272.0,0.0022
2271.0,0.0022
2270.0,0.0023
2269.0,0.0023
2268.0,0.0023
2267.0,0.0023
2266.0,0.0022
2265.0,0.0022
2264.0,0.0022
2263.0,0.0022
2262.0,0.0023
2261.0,0.0024
2260.0,0.0025
2259.0,0.0025
2258.0,0.0025
2257.0,0.0026
2256.0,0.0026
2255.0,0.0027
2254.0,0.0028
2253.0,0.0028
2252.0,0.0028
2251.0,0.0028
2250.0,0.0028
2249.0,0.0029
2248.0,0.0029
2247.0,0.0029
2246.0,0.003
2245.0,0.003
2244.0,0.003
2243.0,0.0031
2242.0,0.0031
2241.0,0.0031
2240.0,0.0031
2239.0,0.003
2238.0,0.0031
2237.0,0.0031
2236.0,0.0031
2235.0,0.0032
2234.0,0.0032
2233.0,0.0032
2232.0,0.0032
2231.0,0.0032
2230.0,0.0032
2229.0,0.0032
2228.0,0.0033
2227.0,0.0033
2226.0,0.0033
2225.0,0.0033
2224.0,0.0034
2223.0,0.0033
2222.0,0.0033
2221.0,0.0032
2220.0,0.0032
2219.0,0.0032
2218.0,0.0032
2217.0,0.0032
2216.0,0.0032
2215.0,0.0032
2214.0,0.0032
2213.0,0.0032
2212.0,0.0032
2211.0,0.0031
2210.0,0.0031
2209.0,0.0031
2208.0,0.0032
2207.0,0.0032
2206.0,0.0032
2205.0,0.0032
2204.0,0.0033
2203.0,0.0032
2202.0,0.0032
2201.0,0.0031
2200.0,0.0031
2199.0,0.0032
2198.0,0.0032
2197.0,0.0032
2196.0,0.0032
2195.0,0.0031
2194.0,0.0031
2193.0,0.0031
2192.0,0.0031
2191.0,0.0031
2190.0,0.0032
2189.0,0.0032
2188.0,0.0032
2187.0,0.0032
2186.0,0.0032
2185.0,0.0031
2184.0,0.0031
2183.0,0.0031
2182.0,0.003
2181.0,0.003
2180.0,0.003
2179.0,0.0031
2178.0,0.0031
2177.0,0.0031
2176.0,0.003
2175.0,0.003
2174.0,0.003
2173.0,0.0029
2172.0,0.0029
2171.0,0.0029
2170.0,0.0029
2169.0,0.003
2168.0,0.003
2167.0,0.0031
2166.0,0.0031
2165.0,0.003
2164.0,0.003
2163.0,0.003
2162.0,0.003
2161.0,0.003
2160.0,0.003
2159.0,0.003
2158.0,0.003
2157.0,0.003
2156.0,0.0029
2155.0,0.0029
2154.0,0.0029
2153.0,0.0029
2152.0,0.0029
2151.0,0.0029
2150.0,0.0029
2149.0,0.003
2148.0,0.003
2147.0,0.003
2146.0,0.003
2145.0,0.003
2144.0,0.003
2143.0,0.003
2142.0,0.003
2141.0,0.003
2140.0,0.003
2139.0,0.003
2138.0,0.003
2137.0,0.003
2136.0,0.003
2135.0,0.003
2134.0,0.003
2133.0,0.0029
2132.0,0.0029
2131.0,0.003
2130.0,0.003
2129.0,0.003
2128.0,0.003
2127.0,0.003
2126.0,0.003
2125.0,0.003
2124.0,0.003
2123.0,0.003
2122.0,0.003
2121.0,0.0031
2120.0,0.003
2119.0,0.003
2118.0,0.0031
2117.0,0.0031
2116.0,0.0032
2115.0,0.0032
2114.0,0.0032
2113.0,0.0032
2112.0,0.0032
2111.0,0.0031
2110.0,0.0031
2109.0,0.0031
2108.0,0.0031
2107.0,0.0031
2106.0,0.0032
2105.0,0.0032
2104.0,0.0031
2103.0,0.0031
2102.0,0.0031
2101.0,0.0031
2100.0,0.0031
2099.0,0.003
2098.0,0.003
2097.0,0.003
2096.0,0.003
2095.0,0.003
2094.0,0.003
2093.0,0.0029
2092.0,0.0029
2091.0,0.0029
2090.0,0.0029
2089.0,0.0029
2088.0,0.0029
2087.0,0.0029
2086.0,0.0029
2085.0,0.0029
2084.0,0.0029
2083.0,0.0029
2082.0,0.003
2081.0,0.003
2080.0,0.0029
2079.0,0.0029
2078.0,0.0029
2077.0,0.0029
2076.0,0.0029
2075.0,0.003
2074.0,0.003
2073.0,0.0029
2072.0,0.0029
2071.0,0.0029
2070.0,0.0028
2069.0,0.0028
2068.0,0.0028
2067.0,0.0027
2066.0,0.0027
2065.0,0.0027
2064.0,0.0027
2063.0,0.0028
2062.0,0.0028
2061.0,0.0028
2060.0,0.0028
2059.0,0.0028
2058.0,0.0027
2057.0,0.0027
2056.0,0.0027
2055.0,0.0027
2054.0,0.0027
2053.0,0.0026
2052.0,0.0026
2051.0,0.0026
2050.0,0.0026
2049.0,0.0026
2048.0,0.0026
2047.0,0.0025
2046.0,0.0025
2045.0,0.0025
2044.0,0.0025
2043.0,0.0025
2042.0,0.0026
2041.0,0.0026
2040.0,0.0025
2039.0,0.0024
2038.0,0.0024
2037.0,0.0024
2036.0,0.0024
2035.0,0.0024
2034.0,0.0024
2033.0,0.0024
2032.0,0.0024
2031.0,0.0024
2030.0,0.0024
2029.0,0.0024
2028.0,0.0024
2027.0,0.0024
2026.0,0.0024
2025.0,0.0024
2024.0,0.0024
2023.0,0.0024
2022.0,0.0023
2021.0,0.0022
2020.0,0.0022
2019.0,0.0022
2018.0,0.0023
2017.0,0.0023
2016.0,0.0023
2015.0,0.0023
2014.0,0.0023
2013.0,0.0023
2012.0,0.0022
2011.0,0.0022
2010.0,0.0022
2009.0,0.0022
2008.0,0.0022
2007.0,0.0023
2006.0,0.0023
2005.0,0.0023
2004.0,0.0023
2003.0,0.0022
2002.0,0.0022
2001.0,0.0022
2000.0,0.0022
1999.0,0.0023
1998.0,0.0023
1997.0,0.0023
1996.0,0.0023
1995.0,0.0023
1994.0,0.0022
1993.0,0.0022
1992.0,0.0022
1991.0,0.0023
1990.0,0.0023
1989.0,0.0024
1988.0,0.0024
1987.0,0.0024
1986.0,0.0024
1985.0,0.0023
1984.0,0.0023
1983.0,0.0023
1982.0,0.0023
1981.0,0.0023
1980.0,0.0023
1979.0,0.0023
1978.0,0.0023
1977.0,0.0022
1976.0,0.0022
1975.0,0.0022
1974.0,0.0023
1973.0,0.0023
1972.0,0.0023
1971.0,0.0023
1970.0,0.0023
1969.0,0.0023
1968.0,0.0023
1967.0,0.0023
1966.0,0.0024
1965.0,0.0024
1964.0,0.0024
1963.0,0.0024
1962.0,0.0024
1961.0,0.0024
1960.0,0.0024
1959.0,0.0024
1958.0,0.0024
1957.0,0.0024
1956.0,0.0024
1955.0,0.0025
1954.0,0.0025
1953.0,0.0025
1952.0,0.0024
1951.0,0.0024
1950.0,0.0024
1949.0,0.0024
1948.0,0.0025
1947.0,0.0025
1946.0,0.0025
1945.0,0.0025
1944.0,0.0025
1943.0,0.0024
1942.0,0.0024
1941.0,0.0023
1940.0,0.0023
1939.0,0.0022
1938.0,0.0022
1937.0,0.0023
1936.0,0.0023
1935.0,0.0023
1934.0,0.0022
1933.0,0.0021
1932.0,0.002
1931.0,0.002
1930.0,0.0019
1929.0,0.0019
1928.0,0.0019
1927.0,0.0019
1926.0,0.0019
1925.0,0.0018
1924.0,0.0018
1923.0,0.0017
1922.0,0.0017
1921.0,0.0017
1920.0,0.0016
1919.0,0.0016
1918.0,0.0016
1917.0,0.0015
1916.0,0.0015
1915.0,0.0015
1914.0,0.0015
1913.0,0.0015
1912.0,0.0015
1911.0,0.0014
1910.0,0.0013
1909.0,0.0013
1908.0,0.0013
1907.0,0.0013
1906.0,0.0014
1905.0,0.0013
1904.0,0.0013
1903.0,0.0012
1902.0,0.0012
1901.0,0.0012
1900.0,0.0012
1899.0,0.0012
1898.0,0.0011
1897.0,0.0011
1896.0,0.001
1895.0,0.0009
1894.0,0.0009
1893.0,0.001
1892.0,0.001
1891.0,0.0009
1890.0,0.0009
1889.0,0.0009
1888.0,0.0008
1887.0,0.0008
1886.0,0.0008
1885.0,0.0008
1884.0,0.0007
1883.0,0.0007
1882.0,0.0006
1881.0,0.0006
1880.0,0.0005
1879.0,0.0005
1878.0,0.0006
1877.0,0.0006
1876.0,0.0006
1875.0,0.0005
1874.0,0.0005
1873.0,0.0004
1872.0,0.0004
1871.0,0.0004
1870.0,0.0003
1869.0,0.0003
1868.0,0.0003
1867.0,0.0003
1866.0,0.0003
1865.0,0.0003
1864.0,0.0003
1863.0,0.0002
1862.0,0.0002
1861.0,0.0001
1860.0,0.0001
1859.0,0.0001
1858.0,0.0001
1857.0,0.0001
1856.0,0.0001
1855.0,0.0001
1854.0,0.0001
1853.0,0.0001
1852.0,0.0001
1851.0,0.0001
1850.0,0.0
1849.0,-0.0
1848.0,-0.0001
1847.0,-0.0001
1846.0,-0.0001
1845.0,-0.0002
1844.0,-0.0003
1843.0,-0.0003
1842.0,-0.0002
1841.0,-0.0002
1840.0,-0.0002
1839.0,-0.0002
1838.0,-0.0002
1837.0,-0.0002
1836.0,-0.0002
1835.0,-0.0002
1834.0,-0.0002
1833.0,-0.0002
1832.0,-0.0002
1831.0,-0.0002
1830.0,-0.0002
1829.0,-0.0002
1828.0,-0.0002
1827.0,-0.0001
1826.0,-0.0001
1825.0,-0.0002
1824.0,-0.0003
1823.0,-0.0004
1822.0,-0.0004
1821.0,-0.0005
1820.0,-0.0005
1819.0,-0.0004
1818.0,-0.0005
1817.0,-0.0005
1816.0,-0.0005
1815.0,-0.0006
1814.0,-0.0006
1813.0,-0.0006
1812.0,-0.0007
1811.0,-0.0007
1810.0,-0.0008
1809.0,-0.0009
1808.0,-0.001
1807.0,-0.0011
1806.0,-0.0011
1805.0,-0.0011
1804.0,-0.0011
1803.0,-0.0011
1802.0,-0.0012
1801.0,-0.0013
1800.0,-0.0014
1799.0,-0.0015
1798.0,-0.0016
1797.0,-0.0018
1796.0,-0.0019
1795.0,-0.0019
1794.0,-0.002
1793.0,-0.0021
1792.0,-0.0021
1791.0,-0.0021
1790.0,-0.0021
1789.0,-0.0022
1788.0,-0.0022
1787.0,-0.0023
1786.0,-0.0024
1785.0,-0.0025
1784.0,-0.0025
1783.0,-0.0025
1782.0,-0.0024
1781.0,-0.0025
1780.0,-0.0026
1779.0,-0.0027
1778.0,-0.0028
1777.0,-0.0029
1776.0,-0.0029
1775.0,-0.003
1774.0,-0.003
1773.0,-0.0032
1772.0,-0.0033
1771.0,-0.0033
1770.0,-0.0033
1769.0,-0.0033
1768.0,-0.0034
1767.0,-0.0034
1766.0,-0.0033
1765.0,-0.0033
1764.0,-0.0033
1763.0,-0.0033
1762.0,-0.0033
1761.0,-0.0033
1760.0,-0.0032
1759.0,-0.003
1758.0,-0.0027
1757.0,-0.0025
1756.0,-0.0023
1755.0,-0.002
1754.0,-0.0016
1753.0,-0.0013
1752.0,-0.0009
1751.0,-0.0004
1750.0,0.0004
1749.0,0.0013
1748.0,0.0024
1747.0,0.0036
1746.0,0.005
1745.0,0.0066
1744.0,0.0085
1743.0,0.0106
1742.0,0.0129
1741.0,0.0153
1740.0,0.0182
1739.0,0.0213
1738.0,0.0239
1737.0,0.0259
1736.0,0.0281
1735.0,0.0313
1734.0,0.0356
1733.0,0.0394
1732.0,0.0423
1731.0,0.0451
1730.0,0.0481
1729.0,0.0511
1728.0,0.0537
1727.0,0.0561
1726.0,0.0585
1725.0,0.0609
1724.0,0.0633
1723.0,0.0658
1722.0,0.068
1721.0,0.0699
1720.0,0.0715
1719.0,0.0733
1718.0,0.0754
1717.0,0.0775
1716.0,0.0791
1715.0,0.0802
1714.0,0.0809
1713.0,0.0806
1712.0,0.0795
1711.0,0.0777
1710.0,0.0753
1709.0,0.0725
1708.0,0.0693
1707.0,0.0656
1706.0,0.0612
1705.0,0.0574
1704.0,0.0547
1703.0,0.0528
1702.0,0.0506
1701.0,0.0472
1700.0,0.0436
1699.0,0.0412
1698.0,0.0399
1697.0,0.0385
1696.0,0.0369
1695.0,0.0354
1694.0,0.0344
1693.0,0.0337
1692.0,0.0331
1691.0,0.0322
1690.0,0.0313
1689.0,0.0306
1688.0,0.0301
1687.0,0.0298
1686.0,0.0293
1685.0,0.0286
1684.0,0.0281
1683.0,0.0277
1682.0,0.0272
1681.0,0.0268
1680.0,0.0264
1679.0,0.026
1678.0,0.0257
1677.0,0.0252
1676.0,0.0247
1675.0,0.024
1674.0,0.0234
1673.0,0.023
1672.0,0.0227
1671.0,0.0222
1670.0,0.0217
1669.0,0.0212
1668.0,0.0208
1667.0,0.0205
1666.0,0.0201
1665.0,0.0198
1664.0,0.0194
1663.0,0.0188
1662.0,0.0183
1661.0,0.0179
1660.0,0.0176
1659.0,0.0173
1658.0,0.0171
1657.0,0.0169
1656.0,0.0169
1655.0,0.0167
1654.0,0.0164
1653.0,0.016
1652.0,0.0155
1651.0,0.0152
1650.0,0.0152
1649.0,0.0151
1648.0,0.0147
1647.0,0.0143
1646.0,0.0141
1645.0,0.014
1644.0,0.0139
1643.0,0.0138
1642.0,0.0138
1641.0,0.0137
1640.0,0.0136
1639.0,0.0135
1638.0,0.0133
1637.0,0.0132
1636.0,0.0131
1635.0,0.0131
1634.0,0.013
1633.0,0.0128
1632.0,0.0128
1631.0,0.0127
1630.0,0.0127
1629.0,0.0127
1628.0,0.0127
1627.0,0.0128
1626.0,0.0128
1625.0,0.0128
1624.0,0.0128
1623.0,0.0129
1622.0,0.013
1621.0,0.013
1620.0,0.013
1619.0,0.013
1618.0,0.0129
1617.0,0.0128
1616.0,0.0129
1615.0,0.0129
1614.0,0.0129
1613.0,0.0128
1612.0,0.0126
1611.0,0.0124
1610.0,0.0121
1609.0,0.0119
1608.0,0.0117
1607.0,0.0115
1606.0,0.0112
1605.0,0.011
1604.0,0.0107
1603.0,0.0105
1602.0,0.0103
1601.0,0.0101
1600.0,0.0099
1599.0,0.0097
1598.0,0.0095
1597.0,0.0093
1596.0,0.0092
1595.0,0.009
1594.0,0.0089
1593.0,0.0089
1592.0,0.0088
1591.0,0.0086
1590.0,0.0086
1589.0,0.0085
1588.0,0.0085
1587.0,0.0084
1586.0,0.0084
1585.0,0.0085
1584.0,0.0087
1583.0,0.0089
1582.0,0.0093
1581.0,0.0097
1580.0,0.01
1579.0,0.0103
1578.0,0.0103
1577.0,0.0103
1576.0,0.0101
1575.0,0.01
1574.0,0.0098
1573.0,0.0097
1572.0,0.0095
1571.0,0.0092
1570.0,0.0088
1569.0,0.0085
1568.0,0.0082
1567.0,0.008
1566.0,0.0078
1565.0,0.0077
1564.0,0.0076
1563.0,0.0075
1562.0,0.0075
1561.0,0.0076
1560.0,0.0074
1559.0,0.0072
1558.0,0.0071
1557.0,0.0068
1556.0,0.0065
1555.0,0.0064
1554.0,0.0063
1553.0,0.0063
1552.0,0.0063
1551.0,0.0063
1550.0,0.0062
1549.0,0.0061
1548.0,0.006
1547.0,0.0059
1546.0,0.0057
1545.0,0.0055
1544.0,0.0051
1543.0,0.0049
1542.0,0.0047
1541.0,0.0048
1540.0,0.0053
1539.0,0.0054
1538.0,0.0051
1537.0,0.0049
1536.0,0.0049
1535.0,0.005
1534.0,0.005
1533.0,0.0051
1532.0,0.0052
1531.0,0.0051
1530.0,0.005
1529.0,0.005
1528.0,0.0049
1527.0,0.0049
1526.0,0.0048
1525.0,0.0047
1524.0,0.0046
1523.0,0.0044
1522.0,0.0042
1521.0,0.0042
1520.0,0.0043
1519.0,0.0044
1518.0,0.0043
1517.0,0.0042
1516.0,0.0041
1515.0,0.0039
1514.0,0.0038
1513.0,0.0037
1512.0,0.0039
1511.0,0.0041
1510.0,0.0046
1509.0,0.0053
1508.0,0.0068
1507.0,0.0096
1506.0,0.0116
1505.0,0.0116
1504.0,0.0111
1503.0,0.0103
1502.0,0.0094
1501.0,0.0084
1500.0,0.0075
1499.0,0.0065
1498.0,0.0057
1497.0,0.005
1496.0,0.0046
1495.0,0.0042
1494.0,0.004
1493.0,0.0039
1492.0,0.0038
1491.0,0.0036
1490.0,0.0035
1489.0,0.0035
1488.0,0.0037
1487.0,0.0038
1486.0,0.0039
1485.0,0.0041
1484.0,0.0044
1483.0,0.0046
1482.0,0.0049
1481.0,0.0052
1480.0,0.0056
1479.0,0.0059
1478.0,0.0062
1477.0,0.0065
1476.0,0.0067
1475.0,0.0068
1474.0,0.0069
1473.0,0.0071
1472.0,0.0073
1471.0,0.0073
1470.0,0.0071
1469.0,0.007
1468.0,0.0069
1467.0,0.0069
1466.0,0.0069
1465.0,0.0069
1464.0,0.007
1463.0,0.0072
1462.0,0.0073
1461.0,0.0076
1460.0,0.0078
1459.0,0.0078
1458.0,0.0078
1457.0,0.008
1456.0,0.0083
1455.0,0.0084
1454.0,0.0085
1453.0,0.0084
1452.0,0.0083
1451.0,0.0082
1450.0,0.008
1449.0,0.0078
1448.0,0.0076
1447.0,0.0074
1446.0,0.0073
1445.0,0.0071
1444.0,0.007
1443.0,0.0069
1442.0,0.0068
1441.0,0.0066
1440.0,0.0065
1439.0,0.0064
1438.0,0.0061
1437.0,0.0056
1436.0,0.0052
1435.0,0.0048
1434.0,0.0045
1433.0,0.0042
1432.0,0.0039
1431.0,0.0034
1430.0,0.003
1429.0,0.0026
1428.0,0.0022
1427.0,0.002
1426.0,0.0019
1425.0,0.0017
1424.0,0.0016
1423.0,0.0015
1422.0,0.0016
1421.0,0.0018
1420.0,0.0023
1419.0,0.0032
1418.0,0.0045
1417.0,0.006
1416.0,0.0078
1415.0,0.01
1414.0,0.0128
1413.0,0.0159
1412.0,0.0193
1411.0,0.0225
1410.0,0.025
1409.0,0.0265
1408.0,0.027
1407.0,0.0265
1406.0,0.025
1405.0,0.0228
1404.0,0.0206
1403.0,0.0187
1402.0,0.017
1401.0,0.0155
1400.0,0.0139
1399.0,0.0124
1398.0,0.0113
1397.0,0.0104
1396.0,0.0096
1395.0,0.0088
1394.0,0.0082
1393.0,0.0077
1392.0,0.0073
1391.0,0.007
1390.0,0.0068
1389.0,0.0066
1388.0,0.0064
1387.0,0.0063
1386.0,0.0063
1385.0,0.0063
1384.0,0.0063
1383.0,0.0064
1382.0,0.0064
1381.0,0.0064
1380.0,0.0065
1379.0,0.0066
1378.0,0.0067
1377.0,0.0068
1376.0,0.007
1375.0,0.0072
1374.0,0.0073
1373.0,0.0075
1372.0,0.0075
1371.0,0.0074
1370.0,0.0073
1369.0,0.0071
1368.0,0.0067
1367.0,0.0063
1366.0,0.0058
1365.0,0.0053
1364.0,0.0047
1363.0,0.0041
1362.0,0.0036
1361.0,0.0032
1360.0,0.0029
1359.0,0.0028
1358.0,0.0027
1357.0,0.0027
1356.0,0.0028
1355.0,0.003
1354.0,0.0033
1353.0,0.0038
1352.0,0.0043
1351.0,0.0051
1350.0,0.006
1349.0,0.0073
1348.0,0.0088
1347.0,0.0107
1346.0,0.013
1345.0,0.0156
1344.0,0.0186
1343.0,0.0216
1342.0,0.0246
1341.0,0.0276
1340.0,0.0302
1339.0,0.0319
1338.0,0.0323
1337.0,0.0316
1336.0,0.0298
1335.0,0.0272
1334.0,0.024
1333.0,0.0205
1332.0,0.017
1331.0,0.0139
1330.0,0.0112
1329.0,0.0091
1328.0,0.0076
1327.0,0.0065
1326.0,0.0057
1325.0,0.0053
1324.0,0.005
1323.0,0.0049
1322.0,0.0049
1321.0,0.0051
1320.0,0.0053
1319.0,0.0055
1318.0,0.0059
1317.0,0.0062
1316.0,0.0066
1315.0,0.007
1314.0,0.0074
1313.0,0.008
1312.0,0.0086
1311.0,0.0093
1310.0,0.01
1309.0,0.0107
1308.0,0.0114
1307.0,0.0122
1306.0,0.0129
1305.0,0.0136
1304.0,0.0144
1303.0,0.0152
1302.0,0.0161
1301.0,0.0173
1300.0,0.0185
1299.0,0.02
1298.0,0.0216
1297.0,0.0232
1296.0,0.0249
1295.0,0.0266
1294.0,0.0282
1293.0,0.0298
1292.0,0.0314
1291.0,0.0329
1290.0,0.0344
1289.0,0.0358
1288.0,0.0371
1287.0,0.0385
1286.0,0.0397
1285.0,0.0409
1284.0,0.042
1283.0,0.0431
1282.0,0.0443
1281.0,0.0455
1280.0,0.0467
1279.0,0.048
1278.0,0.0494
1277.0,0.0509
1276.0,0.0527
1275.0,0.0547
1274.0,0.0569
1273.0,0.0594
1272.0,0.0621
1271.0,0.0651
1270.0,0.0681
1269.0,0.0711
1268.0,0.074
1267.0,0.0768
1266.0,0.0793
1265.0,0.0817
1264.0,0.0838
1263.0,0.0855
1262.0,0.0869
1261.0,0.088
1260.0,0.0888
1259.0,0.0894
1258.0,0.0899
1257.0,0.0904
1256.0,0.0911
1255.0,0.0919
1254.0,0.093
1253.0,0.0943
1252.0,0.0959
1251.0,0.0977
1250.0,0.0997
1249.0,0.1018
1248.0,0.1042
1247.0,0.1065
1246.0,0.1088
1245.0,0.1112
1244.0,0.1136
1243.0,0.1158
1242.0,0.1178
1241.0,0.1195
1240.0,0.1208
1239.0,0.1216
1238.0,0.1218
1237.0,0.1216
1236.0,0.121
1235.0,0.1199
1234.0,0.1184
1233.0,0.1166
1232.0,0.1147
1231.0,0.1124
1230.0,0.1101
1229.0,0.1077
1228.0,0.1053
1227.0,0.1028
1226.0,0.1003
1225.0,0.0977
1224.0,0.0952
1223.0,0.0927
1222.0,0.0902
1221.0,0.0877
1220.0,0.0852
1219.0,0.0828
1218.0,0.0803
1217.0,0.0779
1216.0,0.0756
1215.0,0.0734
1214.0,0.0713
1213.0,0.0693
1212.0,0.0675
1211.0,0.0657
1210.0,0.0639
1209.0,0.0623
1208.0,0.0607
1207.0,0.0592
1206.0,0.0578
1205.0,0.0564
1204.0,0.055
1203.0,0.0536
1202.0,0.0523
1201.0,0.051
1200.0,0.0498
1199.0,0.0486
1198.0,0.0474
1197.0,0.0463
1196.0,0.0452
1195.0,0.0441
1194.0,0.0431
1193.0,0.0421
1192.0,0.0411
1191.0,0.0401
1190.0,0.0392
1189.0,0.0383
1188.0,0.0376
1187.0,0.0368
1186.0,0.0362
1185.0,0.0357
1184.0,0.0353
1183.0,0.0349
1182.0,0.0347
1181.0,0.0345
1180.0,0.0346
1179.0,0.0347
1178.0,0.0349
1177.0,0.035
1176.0,0.0351
1175.0,0.0351
1174.0,0.035
1173.0,0.0347
1172.0,0.0343
1171.0,0.0337
1170.0,0.0329
1169.0,0.032
1168.0,0.0312
1167.0,0.0304
1166.0,0.0296
1165.0,0.029
1164.0,0.0285
1163.0,0.0282
1162.0,0.0278
1161.0,0.0276
1160.0,0.0274
1159.0,0.0272
1158.0,0.027
1157.0,0.0268
1156.0,0.0268
1155.0,0.0268
1154.0,0.0269
1153.0,0.0272
1152.0,0.0275
1151.0,0.0279
1150.0,0.0285
1149.0,0.0292
1148.0,0.0299
1147.0,0.0308
1146.0,0.0317
1145.0,0.0328
1144.0,0.0339
1143.0,0.0352
1142.0,0.0365
1141.0,0.038
1140.0,0.0396
1139.0,0.0414
1138.0,0.0432
1137.0,0.0452
1136.0,0.0475
1135.0,0.0499
1134.0,0.0525
1133.0,0.0554
1132.0,0.0585
1131.0,0.0616
1130.0,0.0649
1129.0,0.0683
1128.0,0.0717
1127.0,0.0751
1126.0,0.0785
1125.0,0.0818
1124.0,0.085
1123.0,0.0881
1122.0,0.0909
1121.0,0.0934
1120.0,0.0957
1119.0,0.0975
1118.0,0.0988
1117.0,0.0997
1116.0,0.1
1115.0,0.0997
1114.0,0.0992
1113.0,0.0986
1112.0,0.0986
1111.0,0.0992
1110.0,0.1006
1109.0,0.1028
1108.0,0.1057
1107.0,0.1091
1106.0,0.1126
1105.0,0.1162
1104.0,0.1198
1103.0,0.1232
1102.0,0.1263
1101.0,0.1292
1100.0,0.1319
1099.0,0.1341
1098.0,0.1359
1097.0,0.1374
1096.0,0.1386
1095.0,0.1393
1094.0,0.1395
1093.0,0.1394
1092.0,0.139
1091.0,0.1382
1090.0,0.1372
1089.0,0.136
1088.0,0.1347
1087.0,0.1333
1086.0,0.1318
1085.0,0.1304
1084.0,0.129
1083.0,0.1274
1082.0,0.1257
1081.0,0.1237
1080.0,0.1214
1079.0,0.1189
1078.0,0.1161
1077.0,0.1132
1076.0,0.1103
1075.0,0.1073
1074.0,0.1042
1073.0,0.1013
1072.0,0.0986
1071.0,0.0958
1070.0,0.0932
1069.0,0.0907
1068.0,0.0883
1067.0,0.0861
1066.0,0.0839
1065.0,0.082
1064.0,0.0802
1063.0,0.0785
1062.0,0.0768
1061.0,0.0753
1060.0,0.0738
1059.0,0.0724
1058.0,0.0711
1057.0,0.0699
1056.0,0.069
1055.0,0.0682
1054.0,0.0674
1053.0,0.0668
1052.0,0.0662
1051.0,0.0658
1050.0,0.0654
1049.0,0.0651
1048.0,0.0649
1047.0,0.0647
1046.0,0.0644
1045.0,0.0641
1044.0,0.0638
1043.0,0.0635
1042.0,0.063
1041.0,0.0624
1040.0,0.0617
1039.0,0.0608
1038.0,0.0599
1037.0,0.0589
1036.0,0.0578
1035.0,0.0566
1034.0,0.0554
1033.0,0.0541
1032.0,0.0528
1031.0,0.0516
1030.0,0.0504
1029.0,0.0494
1028.0,0.049
1027.0,0.0496
1026.0,0.0514
1025.0,0.0548
1024.0,0.0595
1023.0,0.0654
1022.0,0.0721
1021.0,0.0796
1020.0,0.0874
1019.0,0.095
1018.0,0.1013
1017.0,0.1057
1016.0,0.1073
1015.0,0.1061
1014.0,0.1025
1013.0,0.0976
1012.0,0.0924
1011.0,0.0875
1010.0,0.0832
1009.0,0.0796
1008.0,0.0766
1007.0,0.0741
1006.0,0.0719
1005.0,0.0701
1004.0,0.0684
1003.0,0.0669
1002.0,0.0655
1001.0,0.0643
1000.0,0.0631
999.0,0.062
998.0,0.061
997.0,0.0601
996.0,0.0592
995.0,0.0585
994.0,0.0578
993.0,0.0572
992.0,0.0566
991.0,0.0561
990.0,0.0556
989.0,0.0552
988.0,0.0549
987.0,0.0547
986.0,0.0545
985.0,0.0544
984.0,0.0544
983.0,0.0545
982.0,0.0547
981.0,0.0551
980.0,0.0557
979.0,0.0564
978.0,0.0572
977.0,0.0581
976.0,0.059
975.0,0.0599
974.0,0.0606
973.0,0.0613
972.0,0.0619
971.0,0.0622
970.0,0.0623
969.0,0.0623
968.0,0.0621
967.0,0.0617
966.0,0.0611
965.0,0.0605
964.0,0.0597
963.0,0.0589
962.0,0.0581
961.0,0.0573
960.0,0.0565
959.0,0.0558
958.0,0.0551
957.0,0.0543
956.0,0.0536
955.0,0.053
954.0,0.0524
953.0,0.0518
952.0,0.0513
951.0,0.0508
950.0,0.0504
949.0,0.05
948.0,0.0496
947.0,0.0492
946.0,0.0487
945.0,0.0483
944.0,0.0479
943.0,0.0474
942.0,0.047
941.0,0.0467
940.0,0.0464
939.0,0.0462
938.0,0.0459
937.0,0.0456
936.0,0.0454
935.0,0.0452
934.0,0.045
933.0,0.0448
932.0,0.0447
931.0,0.0445
930.0,0.0444
929.0,0.0441
928.0,0.0438
927.0,0.0435
926.0,0.0431
925.0,0.0427
924.0,0.0425
923.0,0.0422
922.0,0.042
921.0,0.0417
920.0,0.0414
919.0,0.0411
918.0,0.0408
917.0,0.0405
916.0,0.0402
915.0,0.04
914.0,0.0397
913.0,0.0396
912.0,0.0395
911.0,0.0395
910.0,0.0396
909.0,0.0398
908.0,0.0401
907.0,0.0404
906.0,0.0408
905.0,0.0411
904.0,0.0415
903.0,0.0418
902.0,0.042
901.0,0.0423
900.0,0.0425
899.0,0.0426
898.0,0.0427
897.0,0.0427
896.0,0.0425
895.0,0.0423
894.0,0.042
893.0,0.0417
892.0,0.0415
891.0,0.0413
890.0,0.041
889.0,0.0409
888.0,0.0409
887.0,0.041
886.0,0.0414
885.0,0.0421
884.0,0.0431
883.0,0.0445
882.0,0.0464
881.0,0.0488
880.0,0.0516
879.0,0.0547
878.0,0.0581
877.0,0.0618
876.0,0.0658
875.0,0.0698
874.0,0.0734
873.0,0.0756
872.0,0.0759
871.0,0.074
870.0,0.0707
869.0,0.0671
868.0,0.0636
867.0,0.0607
866.0,0.0583
865.0,0.0565
864.0,0.0552
863.0,0.0542
862.0,0.0534
861.0,0.0529
860.0,0.0525
859.0,0.0522
858.0,0.0519
857.0,0.0519
856.0,0.052
855.0,0.0524
854.0,0.0528
853.0,0.0534
852.0,0.054
851.0,0.0547
850.0,0.0556
849.0,0.0565
848.0,0.0572
847.0,0.0577
846.0,0.0577
845.0,0.0576
844.0,0.0573
843.0,0.0569
842.0,0.0564
841.0,0.0558
840.0,0.0552
839.0,0.0545
838.0,0.0538
837.0,0.0531
836.0,0.0524
835.0,0.0517
834.0,0.0509
833.0,0.0502
832.0,0.0495
831.0,0.049
830.0,0.0484
829.0,0.048
828.0,0.0475
827.0,0.047
826.0,0.0464
825.0,0.0459
824.0,0.0454
823.0,0.045
822.0,0.0445
821.0,0.0441
820.0,0.0437
819.0,0.0434
818.0,0.0431
817.0,0.0429
816.0,0.0428
815.0,0.0428
814.0,0.0427
813.0,0.0426
812.0,0.0424
811.0,0.0422
810.0,0.0419
809.0,0.0417
808.0,0.0415
807.0,0.0412
806.0,0.041
805.0,0.0407
804.0,0.0404
803.0,0.04
802.0,0.0396
801.0,0.0392
800.0,0.0389
799.0,0.0389
798.0,0.0392
797.0,0.0401
796.0,0.0415
795.0,0.043
794.0,0.0442
793.0,0.045
792.0,0.0451
791.0,0.0446
790.0,0.0437
789.0,0.0427
788.0,0.0417
787.0,0.0407
786.0,0.0399
785.0,0.0392
784.0,0.0386
783.0,0.038
782.0,0.0374
781.0,0.0368
780.0,0.0363
779.0,0.0358
778.0,0.0352
777.0,0.0346
776.0,0.034
775.0,0.0335
774.0,0.0329
773.0,0.0324
772.0,0.032
771.0,0.0316
770.0,0.0311
769.0,0.0307
768.0,0.0302
767.0,0.0297
766.0,0.0291
765.0,0.0285
764.0,0.028
763.0,0.0275
762.0,0.0269
761.0,0.0264
760.0,0.0259
759.0,0.0253
758.0,0.0248
757.0,0.0245
756.0,0.0242
755.0,0.0239
754.0,0.0235
753.0,0.023
752.0,0.0225
751.0,0.022
750.0,0.0217
749.0,0.0216
748.0,0.0217
747.0,0.0218
746.0,0.0218
745.0,0.0221
744.0,0.0227
743.0,0.0238
742.0,0.0258
741.0,0.0293
740.0,0.0346
739.0,0.0419
738.0,0.051
737.0,0.0618
736.0,0.0741
735.0,0.0875
734.0,0.1015
733.0,0.1163
732.0,0.1318
731.0,0.1477
730.0,0.1638
729.0,0.1799
728.0,0.1958
727.0,0.2099
726.0,0.2206
725.0,0.2265
724.0,0.2271
723.0,0.2225
722.0,0.2136
721.0,0.2023
720.0,0.1903
719.0,0.179
718.0,0.1688
717.0,0.1595
716.0,0.1509
715.0,0.1432
714.0,0.1364
713.0,0.1307
712.0,0.126
711.0,0.1218
710.0,0.118
709.0,0.1145
708.0,0.1111
707.0,0.1079
706.0,0.1048
705.0,0.1022
704.0,0.1
703.0,0.0979
702.0,0.0958
701.0,0.0933
700.0,0.0905
699.0,0.0875
698.0,0.0848
697.0,0.0826
696.0,0.081
695.0,0.0795
694.0,0.0781
693.0,0.0766
692.0,0.0752
691.0,0.0738
690.0,0.0725
689.0,0.0713
688.0,0.0705
687.0,0.0697
686.0,0.0691
685.0,0.0684
684.0,0.0676
683.0,0.0669
682.0,0.0666
681.0,0.0667
680.0,0.0671
679.0,0.067
678.0,0.0665
677.0,0.0656
676.0,0.0646
675.0,0.064
674.0,0.0638
673.0,0.0638
672.0,0.0639
671.0,0.0648
670.0,0.0668
669.0,0.0703
668.0,0.0747
667.0,0.0744
666.0,0.069
665.0,0.0634
664.0,0.0596
663.0,0.0573
662.0,0.0562
661.0,0.056
660.0,0.0564
659.0,0.0567
658.0,0.0567
657.0,0.0568
656.0,0.0569
655.0,0.0566
654.0,0.0559
653.0,0.0548
652.0,0.0537
651.0,0.0528
650.0,0.0526
649.0,0.0531
648.0,0.0537
647.0,0.0539
646.0,0.0536
645.0,0.0531
644.0,0.0527
643.0,0.0524
642.0,0.0524
641.0,0.0527
640.0,0.0529
639.0,0.0528
638.0,0.0523
637.0,0.0519
636.0,0.0521
635.0,0.053
634.0,0.0546
633.0,0.0563
632.0,0.0571
631.0,0.0568
630.0,0.0559
629.0,0.0554
628.0,0.0554
627.0,0.0557
626.0,0.056
625.0,0.0563
624.0,0.0565
623.0,0.0563
622.0,0.0561
621.0,0.0561
620.0,0.0561
619.0,0.0558
618.0,0.0555
617.0,0.0557
616.0,0.0564
615.0,0.0571
614.0,0.0578
613.0,0.0586
612.0,0.0594
611.0,0.0601
610.0,0.0606
609.0,0.0615
608.0,0.0623
607.0,0.062
606.0,0.0606
605.0,0.0589
604.0,0.0579
603.0,0.0582
602.0,0.0595
601.0,0.0609
600.0,0.0612
