cm-1,A
4000.0,-0.0012
3999.0,-0.0012
3998.0,-0.0012
3997.0,-0.0013
3996.0,-0.0013
3995.0,-0.0013
3994.0,-0.0012
3993.0,-0.0011
3992.0,-0.0011
3991.0,-0.0011
3990.0,-0.0011
3989.0,-0.0011
3988.0,-0.0011
3987.0,-0.0011
3986.0,-0.0011
3985.0,-0.0011
3984.0,-0.0011
3983.0,-0.0011
3982.0,-0.0011
3981.0,-0.0011
3980.0,-0.0011
3979.0,-0.0012
3978.0,-0.0013
3977.0,-0.0014
3976.0,-0.0014
3975.0,-0.0015
3974.0,-0.0014
3973.0,-0.0014
3972.0,-0.0013
3971.0,-0.0012
3970.0,-0.0012
3969.0,-0.0012
3968.0,-0.0012
3967.0,-0.0013
3966.0,-0.0014
3965.0,-0.0014
3964.0,-0.0015
3963.0,-0.0015
3962.0,-0.0014
3961.0,-0.0013
3960.0,-0.0013
3959.0,-0.0012
3958.0,-0.0012
3957.0,-0.0011
3956.0,-0.0011
3955.0,-0.001
3954.0,-0.0011
3953.0,-0.0011
3952.0,-0.0011
3951.0,-0.0011
3950.0,-0.0011
3949.0,-0.0011
3948.0,-0.0011
3947.0,-0.0011
3946.0,-0.001
3945.0,-0.001
3944.0,-0.0009
3943.0,-0.0009
3942.0,-0.001
3941.0,-0.001
3940.0,-0.001
3939.0,-0.001
3938.0,-0.0011
3937.0,-0.0012
3936.0,-0.0013
3935.0,-0.0014
3934.0,-0.0014
3933.0,-0.0014
3932.0,-0.0013
3931.0,-0.0011
3930.0,-0.0009
3929.0,-0.0009
3928.0,-0.001
3927.0,-0.0011
3926.0,-0.0012
3925.0,-0.0012
3924.0,-0.0013
3923.0,-0.0012
3922.0,-0.0012
3921.0,-0.0012
3920.0,-0.0012
3919.0,-0.0013
3918.0,-0.0013
3917.0,-0.0013
3916.0,-0.0013
3915.0,-0.0013
3914.0,-0.0012
3913.0,-0.0011
3912.0,-0.0011
3911.0,-0.001
3910.0,-0.001
3909.0,-0.001
3908.0,-0.0009
3907.0,-0.0009
3906.0,-0.0009
3905.0,-0.0009
3904.0,-0.0009
3903.0,-0.0009
3902.0,-0.001
3901.0,-0.0011
3900.0,-0.0011
3899.0,-0.001
3898.0,-0.0009
3897.0,-0.0009
3896.0,-0.0008
3895.0,-0.0009
3894.0,-0.001
3893.0,-0.001
3892.0,-0.0011
3891.0,-0.0012
3890.0,-0.0012
3889.0,-0.0013
3888.0,-0.0013
3887.0,-0.0012
3886.0,-0.0011
3885.0,-0.0009
3884.0,-0.0009
3883.0,-0.0008
3882.0,-0.0008
3881.0,-0.0008
3880.0,-0.0009
3879.0,-0.0009
3878.0,-0.001
3877.0,-0.0009
3876.0,-0.0009
3875.0,-0.0008
3874.0,-0.0008
3873.0,-0.0009
3872.0,-0.0008
3871.0,-0.0006
3870.0,-0.0005
3869.0,-0.0005
3868.0,-0.0007
3867.0,-0.0009
3866.0,-0.0011
3865.0,-0.0011
3864.0,-0.0011
3863.0,-0.001
3862.0,-0.0009
3861.0,-0.0007
3860.0,-0.0005
3859.0,-0.0004
3858.0,-0.0003
3857.0,-0.0004
3856.0,-0.0005
3855.0,-0.0006
3854.0,-0.0006
3853.0,-0.0006
3852.0,-0.0007
3851.0,-0.0009
3850.0,-0.001
3849.0,-0.0011
3848.0,-0.0011
3847.0,-0.001
3846.0,-0.001
3845.0,-0.0009
3844.0,-0.0009
3843.0,-0.0008
3842.0,-0.0007
3841.0,-0.0007
3840.0,-0.0007
3839.0,-0.0008
3838.0,-0.0009
3837.0,-0.001
3836.0,-0.001
3835.0,-0.0009
3834.0,-0.0009
3833.0,-0.0009
3832.0,-0.0009
3831.0,-0.0009
3830.0,-0.001
3829.0,-0.001
3828.0,-0.001
3827.0,-0.0009
3826.0,-0.0008
3825.0,-0.0008
3824.0,-0.0008
3823.0,-0.0007
3822.0,-0.0006
3821.0,-0.0005
3820.0,-0.0005
3819.0,-0.0006
3818.0,-0.0007
3817.0,-0.0008
3816.0,-0.0009
3815.0,-0.001
3814.0,-0.0011
3813.0,-0.0011
3812.0,-0.0011
3811.0,-0.0011
3810.0,-0.001
3809.0,-0.0009
3808.0,-0.0007
3807.0,-0.0005
3806.0,-0.0005
3805.0,-0.0005
3804.0,-0.0006
3803.0,-0.0007
3802.0,-0.0007
3801.0,-0.0007
3800.0,-0.0007
3799.0,-0.0008
3798.0,-0.0008
3797.0,-0.0009
3796.0,-0.001
3795.0,-0.0011
3794.0,-0.0012
3793.0,-0.0013
3792.0,-0.0013
3791.0,-0.0013
3790.0,-0.0013
3789.0,-0.0012
3788.0,-0.0012
3787.0,-0.0011
3786.0,-0.001
3785.0,-0.0009
3784.0,-0.0009
3783.0,-0.0008
3782.0,-0.0008
3781.0,-0.0009
3780.0,-0.001
3779.0,-0.0011
3778.0,-0.0011
3777.0,-0.0011
3776.0,-0.0011
3775.0,-0.001
3774.0,-0.001
3773.0,-0.001
3772.0,-0.001
3771.0,-0.001
3770.0,-0.0011
3769.0,-0.0011
3768.0,-0.0011
3767.0,-0.0011
3766.0,-0.0011
3765.0,-0.0011
3764.0,-0.0011
3763.0,-0.001
3762.0,-0.0009
3761.0,-0.0008
3760.0,-0.0007
3759.0,-0.0006
3758.0,-0.0005
3757.0,-0.0004
3756.0,-0.0003
3755.0,-0.0002
3754.0,-0.0002
3753.0,-0.0002
3752.0,-0.0003
3751.0,-0.0005
3750.0,-0.0006
3749.0,-0.0006
3748.0,-0.0006
3747.0,-0.0005
3746.0,-0.0003
3745.0,-0.0003
3744.0,-0.0004
3743.0,-0.0006
3742.0,-0.0007
3741.0,-0.0007
3740.0,-0.0008
3739.0,-0.0008
3738.0,-0.001
3737.0,-0.001
3736.0,-0.001
3735.0,-0.0009
3734.0,-0.0007
3733.0,-0.0005
3732.0,-0.0005
3731.0,-0.0005
3730.0,-0.0006
3729.0,-0.0007
3728.0,-0.0008
3727.0,-0.0008
3726.0,-0.0009
3725.0,-0.0009
3724.0,-0.0009
3723.0,-0.0009
3722.0,-0.0008
3721.0,-0.0008
3720.0,-0.0007
3719.0,-0.0007
3718.0,-0.0006
3717.0,-0.0005
3716.0,-0.0005
3715.0,-0.0005
3714.0,-0.0005
3713.0,-0.0005
3712.0,-0.0005
3711.0,-0.0005
3710.0,-0.0005
3709.0,-0.0005
3708.0,-0.0005
3707.0,-0.0006
3706.0,-0.0007
3705.0,-0.0008
3704.0,-0.0009
3703.0,-0.001
3702.0,-0.001
3701.0,-0.001
3700.0,-0.0009
3699.0,-0.0008
3698.0,-0.0007
3697.0,-0.0007
3696.0,-0.0006
3695.0,-0.0006
3694.0,-0.0005
3693.0,-0.0004
3692.0,-0.0003
3691.0,-0.0003
3690.0,-0.0003
3689.0,-0.0004
3688.0,-0.0005
3687.0,-0.0006
3686.0,-0.0007
3685.0,-0.0006
3684.0,-0.0006
3683.0,-0.0006
3682.0,-0.0006
3681.0,-0.0006
3680.0,-0.0006
3679.0,-0.0006
3678.0,-0.0007
3677.0,-0.0007
3676.0,-0.0006
3675.0,-0.0006
3674.0,-0.0006
3673.0,-0.0007
3672.0,-0.0007
3671.0,-0.0006
3670.0,-0.0006
3669.0,-0.0006
3668.0,-0.0007
3667.0,-0.0008
3666.0,-0.001
3665.0,-0.0011
3664.0,-0.0012
3663.0,-0.0012
3662.0,-0.0011
3661.0,-0.001
3660.0,-0.0009
3659.0,-0.0009
3658.0,-0.0009
3657.0,-0.0008
3656.0,-0.0007
3655.0,-0.0006
3654.0,-0.0005
3653.0,-0.0005
3652.0,-0.0007
3651.0,-0.0008
3650.0,-0.0007
3649.0,-0.0005
3648.0,-0.0004
3647.0,-0.0004
3646.0,-0.0005
3645.0,-0.0007
3644.0,-0.0008
3643.0,-0.0009
3642.0,-0.0009
3641.0,-0.0009
3640.0,-0.0009
3639.0,-0.0009
3638.0,-0.0009
3637.0,-0.0009
3636.0,-0.0008
3635.0,-0.0007
3634.0,-0.0006
3633.0,-0.0007
3632.0,-0.0007
3631.0,-0.0007
3630.0,-0.0006
3629.0,-0.0005
3628.0,-0.0005
3627.0,-0.0006
3626.0,-0.0006
3625.0,-0.0005
3624.0,-0.0004
3623.0,-0.0003
3622.0,-0.0002
3621.0,-0.0003
3620.0,-0.0005
3619.0,-0.0007
3618.0,-0.001
3617.0,-0.0011
3616.0,-0.0012
3615.0,-0.0011
3614.0,-0.001
3613.0,-0.0009
3612.0,-0.0008
3611.0,-0.0008
3610.0,-0.0007
3609.0,-0.0007
3608.0,-0.0006
3607.0,-0.0006
3606.0,-0.0006
3605.0,-0.0006
3604.0,-0.0007
3603.0,-0.0007
3602.0,-0.0006
3601.0,-0.0006
3600.0,-0.0006
3599.0,-0.0006
3598.0,-0.0007
3597.0,-0.0008
3596.0,-0.0009
3595.0,-0.0008
3594.0,-0.0008
3593.0,-0.0007
3592.0,-0.0007
3591.0,-0.0008
3590.0,-0.001
3589.0,-0.0011
3588.0,-0.001
3587.0,-0.0008
3586.0,-0.0007
3585.0,-0.0007
3584.0,-0.0008
3583.0,-0.0009
3582.0,-0.0009
3581.0,-0.0008
3580.0,-0.0007
3579.0,-0.0007
3578.0,-0.0007
3577.0,-0.0008
3576.0,-0.0009
3575.0,-0.0009
3574.0,-0.0008
3573.0,-0.0007
3572.0,-0.0006
3571.0,-0.0006
3570.0,-0.0005
3569.0,-0.0005
3568.0,-0.0005
3567.0,-0.0004
3566.0,-0.0004
3565.0,-0.0004
3564.0,-0.0005
3563.0,-0.0005
3562.0,-0.0005
3561.0,-0.0006
3560.0,-0.0005
3559.0,-0.0006
3558.0,-0.0007
3557.0,-0.0009
3556.0,-0.001
3555.0,-0.0011
3554.0,-0.001
3553.0,-0.0009
3552.0,-0.0007
3551.0,-0.0008
3550.0,-0.0009
3549.0,-0.001
3548.0,-0.0011
3547.0,-0.001
3546.0,-0.0009
3545.0,-0.0008
3544.0,-0.0007
3543.0,-0.0006
3542.0,-0.0006
3541.0,-0.0006
3540.0,-0.0007
3539.0,-0.0008
3538.0,-0.0009
3537.0,-0.001
3536.0,-0.0009
3535.0,-0.0009
3534.0,-0.0008
3533.0,-0.0008
3532.0,-0.0008
3531.0,-0.0008
3530.0,-0.0008
3529.0,-0.0008
3528.0,-0.0008
3527.0,-0.0008
3526.0,-0.0007
3525.0,-0.0007
3524.0,-0.0007
3523.0,-0.0007
3522.0,-0.0007
3521.0,-0.0007
3520.0,-0.0007
3519.0,-0.0007
3518.0,-0.0007
3517.0,-0.0007
3516.0,-0.0008
3515.0,-0.0009
3514.0,-0.001
3513.0,-0.001
3512.0,-0.0011
3511.0,-0.0011
3510.0,-0.0011
3509.0,-0.001
3508.0,-0.001
3507.0,-0.0011
3506.0,-0.0011
3505.0,-0.0011
3504.0,-0.001
3503.0,-0.0009
3502.0,-0.0008
3501.0,-0.0006
3500.0,-0.0006
3499.0,-0.0005
3498.0,-0.0005
3497.0,-0.0006
3496.0,-0.0006
3495.0,-0.0006
3494.0,-0.0005
3493.0,-0.0005
3492.0,-0.0006
3491.0,-0.0007
3490.0,-0.0008
3489.0,-0.001
3488.0,-0.0011
3487.0,-0.0011
3486.0,-0.001
3485.0,-0.0009
3484.0,-0.0007
3483.0,-0.0006
3482.0,-0.0006
3481.0,-0.0006
3480.0,-0.0006
3479.0,-0.0006
3478.0,-0.0007
3477.0,-0.0007
3476.0,-0.0008
3475.0,-0.0008
3474.0,-0.0008
3473.0,-0.0007
3472.0,-0.0007
3471.0,-0.0007
3470.0,-0.0007
3469.0,-0.0007
3468.0,-0.0007
3467.0,-0.0006
3466.0,-0.0005
3465.0,-0.0005
3464.0,-0.0005
3463.0,-0.0006
3462.0,-0.0007
3461.0,-0.0007
3460.0,-0.0007
3459.0,-0.0007
3458.0,-0.0006
3457.0,-0.0006
3456.0,-0.0006
3455.0,-0.0006
3454.0,-0.0006
3453.0,-0.0006
3452.0,-0.0005
3451.0,-0.0005
3450.0,-0.0005
3449.0,-0.0005
3448.0,-0.0005
3447.0,-0.0005
3446.0,-0.0004
3445.0,-0.0004
3444.0,-0.0003
3443.0,-0.0003
3442.0,-0.0002
3441.0,-0.0002
3440.0,-0.0002
3439.0,-0.0003
3438.0,-0.0004
3437.0,-0.0005
3436.0,-0.0006
3435.0,-0.0006
3434.0,-0.0005
3433.0,-0.0005
3432.0,-0.0005
3431.0,-0.0005
3430.0,-0.0005
3429.0,-0.0005
3428.0,-0.0006
3427.0,-0.0006
3426.0,-0.0006
3425.0,-0.0006
3424.0,-0.0006
3423.0,-0.0005
3422.0,-0.0005
3421.0,-0.0004
3420.0,-0.0003
3419.0,-0.0002
3418.0,-0.0002
3417.0,-0.0003
3416.0,-0.0004
3415.0,-0.0004
3414.0,-0.0004
3413.0,-0.0004
3412.0,-0.0004
3411.0,-0.0004
3410.0,-0.0005
3409.0,-0.0005
3408.0,-0.0005
3407.0,-0.0005
3406.0,-0.0004
3405.0,-0.0004
3404.0,-0.0004
3403.0,-0.0003
3402.0,-0.0003
3401.0,-0.0003
3400.0,-0.0002
3399.0,-0.0002
3398.0,-0.0001
3397.0,-0.0001
3396.0,-0.0002
3395.0,-0.0003
3394.0,-0.0004
3393.0,-0.0005
3392.0,-0.0005
3391.0,-0.0005
3390.0,-0.0005
3389.0,-0.0005
3388.0,-0.0006
3387.0,-0.0006
3386.0,-0.0005
3385.0,-0.0003
3384.0,-0.0002
3383.0,-0.0001
3382.0,-0.0001
3381.0,-0.0001
3380.0,-0.0001
3379.0,-0.0
3378.0,0.0
3377.0,0.0001
3376.0,0.0001
3375.0,-0.0
3374.0,-0.0001
3373.0,-0.0002
3372.0,-0.0002
3371.0,-0.0002
3370.0,-0.0003
3369.0,-0.0003
3368.0,-0.0004
3367.0,-0.0005
3366.0,-0.0005
3365.0,-0.0004
3364.0,-0.0004
3363.0,-0.0003
3362.0,-0.0003
3361.0,-0.0003
3360.0,-0.0002
3359.0,-0.0002
3358.0,-0.0003
3357.0,-0.0003
3356.0,-0.0004
3355.0,-0.0004
3354.0,-0.0004
3353.0,-0.0005
3352.0,-0.0005
3351.0,-0.0005
3350.0,-0.0005
3349.0,-0.0004
3348.0,-0.0003
3347.0,-0.0003
3346.0,-0.0004
3345.0,-0.0004
3344.0,-0.0004
3343.0,-0.0004
3342.0,-0.0003
3341.0,-0.0002
3340.0,-0.0002
3339.0,-0.0002
3338.0,-0.0003
3337.0,-0.0004
3336.0,-0.0004
3335.0,-0.0004
3334.0,-0.0003
3333.0,-0.0003
3332.0,-0.0003
3331.0,-0.0004
3330.0,-0.0004
3329.0,-0.0004
3328.0,-0.0003
3327.0,-0.0002
3326.0,-0.0001
3325.0,-0.0001
3324.0,-0.0001
3323.0,-0.0001
3322.0,-0.0002
3321.0,-0.0002
3320.0,-0.0003
3319.0,-0.0003
3318.0,-0.0003
3317.0,-0.0003
3316.0,-0.0003
3315.0,-0.0004
3314.0,-0.0004
3313.0,-0.0004
3312.0,-0.0004
3311.0,-0.0004
3310.0,-0.0004
3309.0,-0.0005
3308.0,-0.0006
3307.0,-0.0007
3306.0,-0.0007
3305.0,-0.0007
3304.0,-0.0006
3303.0,-0.0005
3302.0,-0.0005
3301.0,-0.0005
3300.0,-0.0005
3299.0,-0.0004
3298.0,-0.0003
3297.0,-0.0002
3296.0,-0.0001
3295.0,-0.0001
3294.0,-0.0002
3293.0,-0.0003
3292.0,-0.0003
3291.0,-0.0003
3290.0,-0.0003
3289.0,-0.0002
3288.0,-0.0003
3287.0,-0.0004
3286.0,-0.0004
3285.0,-0.0005
3284.0,-0.0005
3283.0,-0.0004
3282.0,-0.0005
3281.0,-0.0005
3280.0,-0.0005
3279.0,-0.0005
3278.0,-0.0004
3277.0,-0.0003
3276.0,-0.0002
3275.0,-0.0003
3274.0,-0.0003
3273.0,-0.0003
3272.0,-0.0003
3271.0,-0.0003
3270.0,-0.0002
3269.0,-0.0002
3268.0,-0.0002
3267.0,-0.0002
3266.0,-0.0002
3265.0,-0.0002
3264.0,-0.0002
3263.0,-0.0003
3262.0,-0.0004
3261.0,-0.0005
3260.0,-0.0005
3259.0,-0.0005
3258.0,-0.0004
3257.0,-0.0003
3256.0,-0.0002
3255.0,-0.0002
3254.0,-0.0002
3253.0,-0.0002
3252.0,-0.0003
3251.0,-0.0003
3250.0,-0.0003
3249.0,-0.0004
3248.0,-0.0005
3247.0,-0.0005
3246.0,-0.0005
3245.0,-0.0004
3244.0,-0.0004
3243.0,-0.0003
3242.0,-0.0003
3241.0,-0.0003
3240.0,-0.0003
3239.0,-0.0003
3238.0,-0.0002
3237.0,-0.0002
3236.0,-0.0002
3235.0,-0.0003
3234.0,-0.0004
3233.0,-0.0006
3232.0,-0.0007
3231.0,-0.0008
3230.0,-0.0008
3229.0,-0.0008
3228.0,-0.0007
3227.0,-0.0006
3226.0,-0.0004
3225.0,-0.0003
3224.0,-0.0002
3223.0,-0.0001
3222.0,-0.0001
3221.0,-0.0002
3220.0,-0.0002
3219.0,-0.0002
3218.0,-0.0002
3217.0,-0.0001
3216.0,-0.0001
3215.0,-0.0002
3214.0,-0.0003
3213.0,-0.0003
3212.0,-0.0004
3211.0,-0.0003
3210.0,-0.0003
3209.0,-0.0004
3208.0,-0.0005
3207.0,-0.0006
3206.0,-0.0007
3205.0,-0.0007
3204.0,-0.0006
3203.0,-0.0006
3202.0,-0.0006
3201.0,-0.0006
3200.0,-0.0006
3199.0,-0.0005
3198.0,-0.0005
3197.0,-0.0004
3196.0,-0.0004
3195.0,-0.0003
3194.0,-0.0002
3193.0,-0.0001
3192.0,-0.0001
3191.0,-0.0001
3190.0,-0.0003
3189.0,-0.0004
3188.0,-0.0005
3187.0,-0.0005
3186.0,-0.0005
3185.0,-0.0004
3184.0,-0.0004
3183.0,-0.0003
3182.0,-0.0003
3181.0,-0.0003
3180.0,-0.0003
3179.0,-0.0003
3178.0,-0.0004
3177.0,-0.0004
3176.0,-0.0004
3175.0,-0.0004
3174.0,-0.0004
3173.0,-0.0004
3172.0,-0.0004
3171.0,-0.0004
3170.0,-0.0004
3169.0,-0.0004
3168.0,-0.0003
3167.0,-0.0003
3166.0,-0.0003
3165.0,-0.0004
3164.0,-0.0004
3163.0,-0.0004
3162.0,-0.0004
3161.0,-0.0003
3160.0,-0.0002
3159.0,-0.0002
3158.0,-0.0002
3157.0,-0.0003
3156.0,-0.0004
3155.0,-0.0004
3154.0,-0.0003
3153.0,-0.0003
3152.0,-0.0002
3151.0,-0.0001
3150.0,-0.0
3149.0,0.0
3148.0,0.0001
3147.0,0.0001
3146.0,0.0001
3145.0,0.0
3144.0,-0.0001
3143.0,-0.0002
3142.0,-0.0002
3141.0,-0.0002
3140.0,-0.0003
3139.0,-0.0003
3138.0,-0.0004
3137.0,-0.0005
3136.0,-0.0005
3135.0,-0.0006
3134.0,-0.0006
3133.0,-0.0006
3132.0,-0.0006
3131.0,-0.0006
3130.0,-0.0005
3129.0,-0.0005
3128.0,-0.0005
3127.0,-0.0005
3126.0,-0.0005
3125.0,-0.0006
3124.0,-0.0006
3123.0,-0.0006
3122.0,-0.0006
3121.0,-0.0006
3120.0,-0.0006
3119.0,-0.0006
3118.0,-0.0006
3117.0,-0.0006
3116.0,-0.0005
3115.0,-0.0005
3114.0,-0.0005
3113.0,-0.0005
3112.0,-0.0005
3111.0,-0.0005
3110.0,-0.0004
3109.0,-0.0003
3108.0,-0.0003
3107.0,-0.0003
3106.0,-0.0003
3105.0,-0.0003
3104.0,-0.0003
3103.0,-0.0002
3102.0,-0.0002
3101.0,-0.0002
3100.0,-0.0002
3099.0,-0.0002
3098.0,-0.0002
3097.0,-0.0003
3096.0,-0.0003
3095.0,-0.0003
3094.0,-0.0003
3093.0,-0.0003
3092.0,-0.0003
3091.0,-0.0003
3090.0,-0.0003
3089.0,-0.0004
3088.0,-0.0005
3087.0,-0.0005
3086.0,-0.0005
3085.0,-0.0005
3084.0,-0.0004
3083.0,-0.0004
3082.0,-0.0003
3081.0,-0.0003
3080.0,-0.0003
3079.0,-0.0003
3078.0,-0.0003
3077.0,-0.0003
3076.0,-0.0003
3075.0,-0.0003
3074.0,-0.0003
3073.0,-0.0004
3072.0,-0.0004
3071.0,-0.0004
3070.0,-0.0004
3069.0,-0.0004
3068.0,-0.0003
3067.0,-0.0004
3066.0,-0.0004
3065.0,-0.0004
3064.0,-0.0004
3063.0,-0.0004
3062.0,-0.0004
3061.0,-0.0004
3060.0,-0.0004
3059.0,-0.0003
3058.0,-0.0002
3057.0,-0.0002
3056.0,-0.0002
3055.0,-0.0002
3054.0,-0.0002
3053.0,-0.0002
3052.0,-0.0002
3051.0,-0.0002
3050.0,-0.0002
3049.0,-0.0002
3048.0,-0.0002
3047.0,-0.0002
3046.0,-0.0003
3045.0,-0.0003
3044.0,-0.0004
3043.0,-0.0004
3042.0,-0.0004
3041.0,-0.0004
3040.0,-0.0003
3039.0,-0.0003
3038.0,-0.0003
3037.0,-0.0002
3036.0,-0.0002
3035.0,-0.0002
3034.0,-0.0001
3033.0,-0.0001
3032.0,-0.0002
3031.0,-0.0002
3030.0,-0.0003
3029.0,-0.0003
3028.0,-0.0003
3027.0,-0.0003
3026.0,-0.0001
3025.0,-0.0
3024.0,0.0
3023.0,-0.0
3022.0,-0.0001
3021.0,-0.0002
3020.0,-0.0002
3019.0,-0.0003
3018.0,-0.0002
3017.0,-0.0002
3016.0,-0.0002
3015.0,-0.0002
3014.0,-0.0003
3013.0,-0.0003
3012.0,-0.0003
3011.0,-0.0003
3010.0,-0.0003
3009.0,-0.0003
3008.0,-0.0004
3007.0,-0.0004
3006.0,-0.0004
3005.0,-0.0003
3004.0,-0.0003
3003.0,-0.0003
3002.0,-0.0004
3001.0,-0.0005
3000.0,-0.0005
2999.0,-0.0004
2998.0,-0.0004
2997.0,-0.0004
2996.0,-0.0004
2995.0,-0.0004
2994.0,-0.0004
2993.0,-0.0003
2992.0,-0.0003
2991.0,-0.0003
2990.0,-0.0003
2989.0,-0.0004
2988.0,-0.0004
2987.0,-0.0004
2986.0,-0.0004
2985.0,-0.0003
2984.0,-0.0004
2983.0,-0.0004
2982.0,-0.0005
2981.0,-0.0005
2980.0,-0.0005
2979.0,-0.0005
2978.0,-0.0005
2977.0,-0.0005
2976.0,-0.0004
2975.0,-0.0004
2974.0,-0.0003
2973.0,-0.0003
2972.0,-0.0002
2971.0,-0.0002
2970.0,-0.0002
2969.0,-0.0002
2968.0,-0.0002
2967.0,-0.0003
2966.0,-0.0004
2965.0,-0.0004
2964.0,-0.0004
2963.0,-0.0003
2962.0,-0.0003
2961.0,-0.0003
2960.0,-0.0003
2959.0,-0.0003
2958.0,-0.0003
2957.0,-0.0003
2956.0,-0.0003
2955.0,-0.0004
2954.0,-0.0004
2953.0,-0.0004
2952.0,-0.0004
2951.0,-0.0004
2950.0,-0.0003
2949.0,-0.0002
2948.0,-0.0002
2947.0,-0.0002
2946.0,-0.0002
2945.0,-0.0002
2944.0,-0.0002
2943.0,-0.0002
2942.0,-0.0002
2941.0,-0.0002
2940.0,-0.0002
2939.0,-0.0002
2938.0,-0.0002
2937.0,-0.0002
2936.0,-0.0001
2935.0,-0.0001
2934.0,-0.0001
2933.0,-0.0001
2932.0,-0.0
2931.0,0.0001
2930.0,0.0002
2929.0,0.0002
2928.0,0.0002
2927.0,0.0002
2926.0,0.0003
2925.0,0.0004
2924.0,0.0004
2923.0,0.0003
2922.0,0.0003
2921.0,0.0003
2920.0,0.0003
2919.0,0.0003
2918.0,0.0003
2917.0,0.0002
2916.0,0.0001
2915.0,0.0001
2914.0,0.0002
2913.0,0.0002
2912.0,0.0002
2911.0,0.0002
2910.0,0.0001
2909.0,0.0001
2908.0,0.0001
2907.0,0.0001
2906.0,0.0002
2905.0,0.0002
2904.0,0.0002
2903.0,0.0001
2902.0,0.0001
2901.0,0.0
2900.0,0.0
2899.0,-0.0
2898.0,-0.0
2897.0,-0.0
2896.0,-0.0
2895.0,-0.0
2894.0,-0.0
2893.0,-0.0
2892.0,-0.0
2891.0,-0.0
2890.0,-0.0
2889.0,0.0
2888.0,0.0001
2887.0,0.0001
2886.0,0.0001
2885.0,0.0001
2884.0,0.0
2883.0,-0.0001
2882.0,-0.0001
2881.0,-0.0001
2880.0,-0.0001
2879.0,-0.0001
2878.0,-0.0
2877.0,-0.0001
2876.0,-0.0001
2875.0,-0.0001
2874.0,-0.0001
2873.0,-0.0001
2872.0,-0.0002
2871.0,-0.0002
2870.0,-0.0002
2869.0,-0.0002
2868.0,-0.0002
2867.0,-0.0001
2866.0,-0.0001
2865.0,-0.0001
2864.0,-0.0001
2863.0,-0.0001
2862.0,-0.0001
2861.0,-0.0001
2860.0,-0.0001
2859.0,-0.0
2858.0,0.0
2857.0,0.0001
2856.0,0.0001
2855.0,0.0001
2854.0,0.0001
2853.0,0.0001
2852.0,0.0001
2851.0,0.0001
2850.0,0.0001
2849.0,0.0001
2848.0,0.0001
2847.0,0.0001
2846.0,0.0001
2845.0,0.0001
2844.0,0.0001
2843.0,0.0001
2842.0,0.0001
2841.0,0.0001
2840.0,0.0001
2839.0,0.0001
2838.0,0.0001
2837.0,0.0
2836.0,-0.0
2835.0,-0.0001
2834.0,-0.0001
2833.0,0.0
2832.0,0.0001
2831.0,0.0002
2830.0,0.0002
2829.0,0.0001
2828.0,0.0001
2827.0,0.0
2826.0,0.0
2825.0,0.0
2824.0,0.0
2823.0,0.0
2822.0,0.0
2821.0,0.0001
2820.0,0.0001
2819.0,0.0
2818.0,-0.0
2817.0,-0.0
2816.0,-0.0001
2815.0,-0.0001
2814.0,-0.0
2813.0,-0.0
2812.0,0.0
2811.0,0.0001
2810.0,0.0001
2809.0,0.0
2808.0,-0.0
2807.0,-0.0001
2806.0,-0.0001
2805.0,-0.0
2804.0,0.0
2803.0,0.0001
2802.0,0.0002
2801.0,0.0002
2800.0,0.0002
2799.0,0.0002
2798.0,0.0001
2797.0,0.0001
2796.0,0.0001
2795.0,0.0
2794.0,0.0
2793.0,0.0
2792.0,0.0001
2791.0,0.0001
2790.0,0.0001
2789.0,0.0
2788.0,0.0
2787.0,0.0
2786.0,0.0001
2785.0,0.0002
2784.0,0.0002
2783.0,0.0002
2782.0,0.0001
2781.0,0.0001
2780.0,-0.0
2779.0,-0.0
2778.0,-0.0
2777.0,-0.0
2776.0,-0.0
2775.0,-0.0
2774.0,-0.0
2773.0,-0.0
2772.0,0.0
2771.0,0.0
2770.0,0.0
2769.0,-0.0
2768.0,-0.0
2767.0,0.0
2766.0,0.0001
2765.0,0.0002
2764.0,0.0002
2763.0,0.0002
2762.0,0.0001
2761.0,0.0001
2760.0,0.0
2759.0,-0.0
2758.0,-0.0
2757.0,0.0
2756.0,0.0
2755.0,0.0
2754.0,0.0
2753.0,0.0001
2752.0,0.0001
2751.0,0.0001
2750.0,0.0001
2749.0,0.0001
2748.0,0.0002
2747.0,0.0002
2746.0,0.0003
2745.0,0.0003
2744.0,0.0003
2743.0,0.0003
2742.0,0.0002
2741.0,0.0002
2740.0,0.0002
2739.0,0.0001
2738.0,0.0001
2737.0,0.0002
2736.0,0.0002
2735.0,0.0002
2734.0,0.0002
2733.0,0.0002
2732.0,0.0003
2731.0,0.0003
2730.0,0.0002
2729.0,0.0002
2728.0,0.0001
2727.0,0.0001
2726.0,0.0001
2725.0,0.0001
2724.0,0.0002
2723.0,0.0002
2722.0,0.0002
2721.0,0.0002
2720.0,0.0002
2719.0,0.0003
2718.0,0.0003
2717.0,0.0002
2716.0,0.0002
2715.0,0.0001
2714.0,0.0001
2713.0,0.0001
2712.0,0.0001
2711.0,0.0001
2710.0,0.0002
2709.0,0.0002
2708.0,0.0002
2707.0,0.0002
2706.0,0.0002
2705.0,0.0002
2704.0,0.0002
2703.0,0.0002
2702.0,0.0002
2701.0,0.0002
2700.0,0.0003
2699.0,0.0003
2698.0,0.0003
2697.0,0.0003
2696.0,0.0003
2695.0,0.0002
2694.0,0.0001
2693.0,0.0002
2692.0,0.0002
2691.0,0.0003
2690.0,0.0003
2689.0,0.0003
2688.0,0.0002
2687.0,0.0001
2686.0,0.0001
2685.0,0.0001
2684.0,0.0001
2683.0,0.0002
2682.0,0.0002
2681.0,0.0002
2680.0,0.0001
2679.0,0.0001
2678.0,0.0001
2677.0,0.0001
2676.0,0.0002
2675.0,0.0002
2674.0,0.0002
2673.0,0.0001
2672.0,0.0001
2671.0,0.0001
2670.0,0.0001
2669.0,0.0001
2668.0,0.0001
2667.0,0.0001
2666.0,0.0002
2665.0,0.0002
2664.0,0.0002
2663.0,0.0001
2662.0,0.0001
2661.0,0.0001
2660.0,0.0002
2659.0,0.0002
2658.0,0.0002
2657.0,0.0003
2656.0,0.0003
2655.0,0.0003
2654.0,0.0002
2653.0,0.0002
2652.0,0.0002
2651.0,0.0002
2650.0,0.0002
2649.0,0.0003
2648.0,0.0003
2647.0,0.0002
2646.0,0.0002
2645.0,0.0002
2644.0,0.0002
2643.0,0.0002
2642.0,0.0002
2641.0,0.0002
2640.0,0.0002
2639.0,0.0003
2638.0,0.0003
2637.0,0.0003
2636.0,0.0003
2635.0,0.0003
2634.0,0.0002
2633.0,0.0002
2632.0,0.0002
2631.0,0.0002
2630.0,0.0002
2629.0,0.0002
2628.0,0.0002
2627.0,0.0003
2626.0,0.0002
2625.0,0.0002
2624.0,0.0002
2623.0,0.0002
2622.0,0.0003
2621.0,0.0004
2620.0,0.0004
2619.0,0.0003
2618.0,0.0003
2617.0,0.0003
2616.0,0.0003
2615.0,0.0003
2614.0,0.0003
2613.0,0.0003
2612.0,0.0003
2611.0,0.0003
2610.0,0.0003
2609.0,0.0004
2608.0,0.0003
2607.0,0.0002
2606.0,0.0002
2605.0,0.0001
2604.0,0.0001
2603.0,0.0002
2602.0,0.0003
2601.0,0.0003
2600.0,0.0004
2599.0,0.0004
2598.0,0.0004
2597.0,0.0004
2596.0,0.0004
2595.0,0.0004
2594.0,0.0004
2593.0,0.0004
2592.0,0.0004
2591.0,0.0004
2590.0,0.0004
2589.0,0.0004
2588.0,0.0003
2587.0,0.0004
2586.0,0.0004
2585.0,0.0004
2584.0,0.0005
2583.0,0.0005
2582.0,0.0005
2581.0,0.0005
2580.0,0.0005
2579.0,0.0004
2578.0,0.0004
2577.0,0.0003
2576.0,0.0003
2575.0,0.0003
2574.0,0.0004
2573.0,0.0004
2572.0,0.0004
2571.0,0.0004
2570.0,0.0004
2569.0,0.0004
2568.0,0.0004
2567.0,0.0005
2566.0,0.0005
2565.0,0.0005
2564.0,0.0004
2563.0,0.0003
2562.0,0.0003
2561.0,0.0002
2560.0,0.0002
2559.0,0.0002
2558.0,0.0002
2557.0,0.0002
2556.0,0.0003
2555.0,0.0003
2554.0,0.0003
2553.0,0.0002
2552.0,0.0002
2551.0,0.0003
2550.0,0.0004
2549.0,0.0005
2548.0,0.0006
2547.0,0.0006
2546.0,0.0006
2545.0,0.0006
2544.0,0.0006
2543.0,0.0006
2542.0,0.0005
2541.0,0.0004
2540.0,0.0003
2539.0,0.0003
2538.0,0.0003
2537.0,0.0004
2536.0,0.0004
2535.0,0.0004
2534.0,0.0005
2533.0,0.0005
2532.0,0.0005
2531.0,0.0005
2530.0,0.0005
2529.0,0.0005
2528.0,0.0005
2527.0,0.0005
2526.0,0.0004
2525.0,0.0004
2524.0,0.0004
2523.0,0.0004
2522.0,0.0005
2521.0,0.0005
2520.0,0.0005
2519.0,0.0005
2518.0,0.0005
2517.0,0.0005
2516.0,0.0006
2515.0,0.0006
2514.0,0.0006
2513.0,0.0006
2512.0,0.0006
2511.0,0.0006
2510.0,0.0005
2509.0,0.0005
2508.0,0.0004
2507.0,0.0004
2506.0,0.0004
2505.0,0.0005
2504.0,0.0006
2503.0,0.0006
2502.0,0.0006
2501.0,0.0005
2500.0,0.0005
2499.0,0.0004
2498.0,0.0004
2497.0,0.0005
2496.0,0.0005
2495.0,0.0006
2494.0,0.0006
2493.0,0.0005
2492.0,0.0005
2491.0,0.0005
2490.0,0.0005
2489.0,0.0005
2488.0,0.0004
2487.0,0.0004
2486.0,0.0004
2485.0,0.0004
2484.0,0.0004
2483.0,0.0005
2482.0,0.0005
2481.0,0.0004
2480.0,0.0004
2479.0,0.0003
2478.0,0.0003
2477.0,0.0004
2476.0,0.0004
2475.0,0.0005
2474.0,0.0005
2473.0,0.0005
2472.0,0.0005
2471.0,0.0005
2470.0,0.0006
2469.0,0.0006
2468.0,0.0006
2467.0,0.0006
2466.0,0.0005
2465.0,0.0005
2464.0,0.0005
2463.0,0.0005
2462.0,0.0005
2461.0,0.0006
2460.0,0.0006
2459.0,0.0006
2458.0,0.0007
2457.0,0.0007
2456.0,0.0007
2455.0,0.0007
2454.0,0.0006
2453.0,0.0006
2452.0,0.0006
2451.0,0.0006
2450.0,0.0006
2449.0,0.0006
2448.0,0.0006
2447.0,0.0006
2446.0,0.0005
2445.0,0.0005
2444.0,0.0006
2443.0,0.0006
2442.0,0.0006
2441.0,0.0006
2440.0,0.0005
2439.0,0.0005
2438.0,0.0005
2437.0,0.0005
2436.0,0.0005
2435.0,0.0004
2434.0,0.0004
2433.0,0.0004
2432.0,0.0005
2431.0,0.0005
2430.0,0.0006
2429.0,0.0006
2428.0,0.0007
2427.0,0.0007
2426.0,0.0007
2425.0,0.0007
2424.0,0.0007
2423.0,0.0007
2422.0,0.0007
2421.0,0.0007
2420.0,0.0006
2419.0,0.0006
2418.0,0.0005
2417.0,0.0005
2416.0,0.0006
2415.0,0.0006
2414.0,0.0005
2413.0,0.0005
2412.0,0.0005
2411.0,0.0005
2410.0,0.0005
2409.0,0.0006
2408.0,0.0005
2407.0,0.0005
2406.0,0.0005
2405.0,0.0006
2404.0,0.0006
2403.0,0.0007
2402.0,0.0007
2401.0,0.0007
2400.0,0.0007
2399.0,0.0007
2398.0,0.0007
2397.0,0.0007
2396.0,0.0007
2395.0,0.0007
2394.0,0.0008
2393.0,0.0008
2392.0,0.0008
2391.0,0.0008
2390.0,0.0009
2389.0,0.0009
2388.0,0.0009
2387.0,0.0009
2386.0,0.001
2385.0,0.0011
2384.0,0.0011
2383.0,0.0011
2382.0,0.001
2381.0,0.0009
2380.0,0.0009
2379.0,0.0009
2378.0,0.0009
2377.0,0.001
2376.0,0.0011
2375.0,0.0012
2374.0,0.0011
2373.0,0.0009
2372.0,0.0008
2371.0,0.0009
2370.0,0.0011
2369.0,0.0013
2368.0,0.0015
2367.0,0.0016
2366.0,0.0019
2365.0,0.0021
2364.0,0.002
2363.0,0.0012
2362.0,0.0
2361.0,-0.0008
2360.0,-0.0005
2359.0,0.0007
2358.0,0.0021
2357.0,0.0027
2356.0,0.0028
2355.0,0.0026
2354.0,0.0023
2353.0,0.0018
2352.0,0.0015
2351.0,0.0014
2350.0,0.0015
2349.0,0.0015
2348.0,0.0014
2347.0,0.0011
2346.0,0.0009
2345.0,0.0009
2344.0,0.0013
2343.0,0.0017
2342.0,0.0017
2341.0,0.0013
2340.0,0.0009
2339.0,0.0008
2338.0,0.001
2337.0,0.0015
2336.0,0.0019
2335.0,0.0021
2334.0,0.0019
2333.0,0.0015
2332.0,0.0012
2331.0,0.0013
2330.0,0.0016
2329.0,0.002
2328.0,0.0024
2327.0,0.0026
2326.0,0.0027
2325.0,0.0026
2324.0,0.0023
2323.0,0.0019
2322.0,0.0017
2321.0,0.0017
2320.0,0.0019
2319.0,0.0021
2318.0,0.0022
2317.0,0.0021
2316.0,0.0018
2315.0,0.0016
2314.0,0.0016
2313.0,0.0016
2312.0,0.0017
2311.0,0.0018
2310.0,0.0019
2309.0,0.002
2308.0,0.002
2307.0,0.0019
2306.0,0.0018
2305.0,0.0017
2304.0,0.0017
2303.0,0.0018
2302.0,0.0018
2301.0,0.0018
2300.0,0.0018
2299.0,0.0017
2298.0,0.0017
2297.0,0.0017
2296.0,0.0016
2295.0,0.0016
2294.0,0.0015
2293.0,0.0014
2292.0,0.0014
2291.0,0.0014
2290.0,0.0014
2289.0,0.0014
2288.0,0.0013
2287.0,0.0013
2286.0,0.0013
2285.0,0.0012
2284.0,0.0012
2283.0,0.0011
2282.0,0.0011
2281.0,0.0011
2280.0,0.0011
2279.0,0.0011
2278.0,0.0011
2277.0,0.0011
2276.0,0.0012
2275.0,0.0012
2274.0,0.0012
2273.0,0.0012
2272.0,0.0012
2271.0,0.0012
2270.0,0.0012
2269.0,0.0012
2268.0,0.0011
2267.0,0.0011
2266.0,0.0012
2265.0,0.0012
2264.0,0.0012
2263.0,0.0013
2262.0,0.0012
2261.0,0.0011
2260.0,0.001
2259.0,0.001
2258.0,0.001
2257.0,0.0011
2256.0,0.0012
2255.0,0.0012
2254.0,0.0012
2253.0,0.0012
2252.0,0.0012
2251.0,0.0012
2250.0,0.0011
2249.0,0.0011
2248.0,0.0012
2247.0,0.0012
2246.0,0.0012
2245.0,0.0012
2244.0,0.0012
2243.0,0.0012
2242.0,0.0011
2241.0,0.0011
2240.0,0.0011
2239.0,0.0011
2238.0,0.0011
2237.0,0.0011
2236.0,0.0011
2235.0,0.0011
2234.0,0.0011
2233.0,0.0012
2232.0,0.0012
2231.0,0.0012
2230.0,0.0012
2229.0,0.0012
2228.0,0.0011
2227.0,0.0011
2226.0,0.0011
2225.0,0.0011
2224.0,0.0011
2223.0,0.001
2222.0,0.001
2221.0,0.001
2220.0,0.001
2219.0,0.0011
2218.0,0.0012
2217.0,0.0013
2216.0,0.0013
2215.0,0.0013
2214.0,0.0012
2213.0,0.0012
2212.0,0.0012
2211.0,0.0012
2210.0,0.0012
2209.0,0.0012
2208.0,0.0012
2207.0,0.0012
2206.0,0.0012
2205.0,0.0012
2204.0,0.0012
2203.0,0.0012
2202.0,0.0011
2201.0,0.0011
2200.0,0.0011
2199.0,0.0011
2198.0,0.0011
2197.0,0.0011
2196.0,0.001
2195.0,0.001
2194.0,0.0011
2193.0,0.0011
2192.0,0.0011
2191.0,0.0011
2190.0,0.0011
2189.0,0.0012
2188.0,0.0012
2187.0,0.0012
2186.0,0.0013
2185.0,0.0013
2184.0,0.0012
2183.0,0.0012
2182.0,0.0013
2181.0,0.0013
2180.0,0.0014
2179.0,0.0014
2178.0,0.0014
2177.0,0.0013
2176.0,0.0012
2175.0,0.0012
2174.0,0.0012
2173.0,0.0012
2172.0,0.0012
2171.0,0.0012
2170.0,0.0012
2169.0,0.0012
2168.0,0.0012
2167.0,0.0012
2166.0,0.0013
2165.0,0.0013
2164.0,0.0013
2163.0,0.0013
2162.0,0.0013
2161.0,0.0013
2160.0,0.0012
2159.0,0.0012
2158.0,0.0012
2157.0,0.0012
2156.0,0.0012
2155.0,0.0013
2154.0,0.0013
2153.0,0.0013
2152.0,0.0012
2151.0,0.0011
2150.0,0.0011
2149.0,0.0012
2148.0,0.0012
2147.0,0.0012
2146.0,0.0013
2145.0,0.0013
2144.0,0.0013
2143.0,0.0014
2142.0,0.0014
2141.0,0.0014
2140.0,0.0014
2139.0,0.0014
2138.0,0.0014
2137.0,0.0014
2136.0,0.0014
2135.0,0.0013
2134.0,0.0013
2133.0,0.0013
2132.0,0.0013
2131.0,0.0013
2130.0,0.0014
2129.0,0.0015
2128.0,0.0015
2127.0,0.0015
2126.0,0.0015
2125.0,0.0015
2124.0,0.0014
2123.0,0.0014
2122.0,0.0013
2121.0,0.0013
2120.0,0.0013
2119.0,0.0014
2118.0,0.0014
2117.0,0.0014
2116.0,0.0015
2115.0,0.0015
2114.0,0.0015
2113.0,0.0015
2112.0,0.0015
2111.0,0.0014
2110.0,0.0014
2109.0,0.0014
2108.0,0.0014
2107.0,0.0014
2106.0,0.0014
2105.0,0.0014
2104.0,0.0014
2103.0,0.0014
2102.0,0.0014
2101.0,0.0014
2100.0,0.0014
2099.0,0.0014
2098.0,0.0014
2097.0,0.0015
2096.0,0.0015
2095.0,0.0015
2094.0,0.0015
2093.0,0.0015
2092.0,0.0015
2091.0,0.0015
2090.0,0.0015
2089.0,0.0015
2088.0,0.0015
2087.0,0.0015
2086.0,0.0016
2085.0,0.0016
2084.0,0.0016
2083.0,0.0016
2082.0,0.0015
2081.0,0.0015
2080.0,0.0014
2079.0,0.0014
2078.0,0.0014
2077.0,0.0015
2076.0,0.0015
2075.0,0.0016
2074.0,0.0016
2073.0,0.0016
2072.0,0.0016
2071.0,0.0016
2070.0,0.0015
2069.0,0.0015
2068.0,0.0015
2067.0,0.0015
2066.0,0.0015
2065.0,0.0015
2064.0,0.0015
2063.0,0.0016
2062.0,0.0016
2061.0,0.0016
2060.0,0.0016
2059.0,0.0016
2058.0,0.0015
2057.0,0.0015
2056.0,0.0015
2055.0,0.0015
2054.0,0.0016
2053.0,0.0016
2052.0,0.0016
2051.0,0.0016
2050.0,0.0016
2049.0,0.0016
2048.0,0.0017
2047.0,0.0017
2046.0,0.0017
2045.0,0.0016
2044.0,0.0016
2043.0,0.0016
2042.0,0.0016
2041.0,0.0016
2040.0,0.0016
2039.0,0.0016
2038.0,0.0016
2037.0,0.0016
2036.0,0.0016
2035.0,0.0016
2034.0,0.0016
2033.0,0.0016
2032.0,0.0016
2031.0,0.0017
2030.0,0.0017
2029.0,0.0018
2028.0,0.0018
2027.0,0.0018
2026.0,0.0018
2025.0,0.0017
2024.0,0.0017
2023.0,0.0017
2022.0,0.0017
2021.0,0.0017
2020.0,0.0017
2019.0,0.0017
2018.0,0.0017
2017.0,0.0017
2016.0,0.0017
2015.0,0.0017
2014.0,0.0017
2013.0,0.0017
2012.0,0.0017
2011.0,0.0017
2010.0,0.0017
2009.0,0.0016
2008.0,0.0016
2007.0,0.0015
2006.0,0.0016
2005.0,0.0016
2004.0,0.0017
2003.0,0.0018
2002.0,0.0018
2001.0,0.0018
2000.0,0.0018
1999.0,0.0018
1998.0,0.0018
1997.0,0.0018
1996.0,0.0018
1995.0,0.0018
1994.0,0.0018
1993.0,0.0018
1992.0,0.0018
1991.0,0.0018
1990.0,0.0019
1989.0,0.0019
1988.0,0.002
1987.0,0.002
1986.0,0.002
1985.0,0.002
1984.0,0.002
1983.0,0.002
1982.0,0.0019
1981.0,0.0019
1980.0,0.0019
1979.0,0.0019
1978.0,0.0019
1977.0,0.0019
1976.0,0.0019
1975.0,0.0019
1974.0,0.0019
1973.0,0.002
1972.0,0.002
1971.0,0.002
1970.0,0.002
1969.0,0.0019
1968.0,0.0019
1967.0,0.0018
1966.0,0.0018
1965.0,0.0019
1964.0,0.002
1963.0,0.002
1962.0,0.002
1961.0,0.002
1960.0,0.0019
1959.0,0.0019
1958.0,0.0019
1957.0,0.002
1956.0,0.002
1955.0,0.002
1954.0,0.002
1953.0,0.002
1952.0,0.002
1951.0,0.002
1950.0,0.002
1949.0,0.0019
1948.0,0.0019
1947.0,0.0019
1946.0,0.0019
1945.0,0.002
1944.0,0.002
1943.0,0.002
1942.0,0.002
1941.0,0.0021
1940.0,0.0021
1939.0,0.0022
1938.0,0.0022
1937.0,0.0022
1936.0,0.0022
1935.0,0.0022
1934.0,0.0022
1933.0,0.0022
1932.0,0.0022
1931.0,0.0022
1930.0,0.0022
1929.0,0.0022
1928.0,0.0022
1927.0,0.0022
1926.0,0.0021
1925.0,0.0021
1924.0,0.0021
1923.0,0.002
1922.0,0.002
1921.0,0.0021
1920.0,0.0021
1919.0,0.0022
1918.0,0.0022
1917.0,0.0022
1916.0,0.0022
1915.0,0.0022
1914.0,0.0022
1913.0,0.0022
1912.0,0.0021
1911.0,0.0022
1910.0,0.0022
1909.0,0.0022
1908.0,0.0022
1907.0,0.0022
1906.0,0.0022
1905.0,0.0022
1904.0,0.0021
1903.0,0.0021
1902.0,0.0022
1901.0,0.0022
1900.0,0.0022
1899.0,0.0022
1898.0,0.0022
1897.0,0.0022
1896.0,0.0022
1895.0,0.0022
1894.0,0.0023
1893.0,0.0023
1892.0,0.0023
1891.0,0.0023
1890.0,0.0023
1889.0,0.0023
1888.0,0.0023
1887.0,0.0023
1886.0,0.0023
1885.0,0.0023
1884.0,0.0024
1883.0,0.0024
1882.0,0.0024
1881.0,0.0023
1880.0,0.0023
1879.0,0.0023
1878.0,0.0023
1877.0,0.0023
1876.0,0.0023
1875.0,0.0023
1874.0,0.0023
1873.0,0.0023
1872.0,0.0024
1871.0,0.0024
1870.0,0.0024
1869.0,0.0024
1868.0,0.0024
1867.0,0.0024
1866.0,0.0024
1865.0,0.0024
1864.0,0.0024
1863.0,0.0024
1862.0,0.0025
1861.0,0.0025
1860.0,0.0025
1859.0,0.0025
1858.0,0.0025
1857.0,0.0024
1856.0,0.0024
1855.0,0.0023
1854.0,0.0023
1853.0,0.0023
1852.0,0.0023
1851.0,0.0023
1850.0,0.0024
1849.0,0.0024
1848.0,0.0025
1847.0,0.0025
1846.0,0.0025
1845.0,0.0025
1844.0,0.0025
1843.0,0.0024
1842.0,0.0024
1841.0,0.0024
1840.0,0.0024
1839.0,0.0024
1838.0,0.0025
1837.0,0.0025
1836.0,0.0025
1835.0,0.0026
1834.0,0.0026
1833.0,0.0026
1832.0,0.0026
1831.0,0.0025
1830.0,0.0025
1829.0,0.0025
1828.0,0.0025
1827.0,0.0026
1826.0,0.0027
1825.0,0.0027
1824.0,0.0027
1823.0,0.0027
1822.0,0.0026
1821.0,0.0026
1820.0,0.0026
1819.0,0.0026
1818.0,0.0026
1817.0,0.0026
1816.0,0.0026
1815.0,0.0026
1814.0,0.0026
1813.0,0.0026
1812.0,0.0026
1811.0,0.0027
1810.0,0.0027
1809.0,0.0027
1808.0,0.0028
1807.0,0.0028
1806.0,0.0028
1805.0,0.0028
1804.0,0.0028
1803.0,0.0028
1802.0,0.0029
1801.0,0.0029
1800.0,0.0028
1799.0,0.0027
1798.0,0.0027
1797.0,0.0026
1796.0,0.0026
1795.0,0.0026
1794.0,0.0026
1793.0,0.0026
1792.0,0.0027
1791.0,0.0027
1790.0,0.0027
1789.0,0.0028
1788.0,0.0028
1787.0,0.0028
1786.0,0.0028
1785.0,0.0028
1784.0,0.0028
1783.0,0.0028
1782.0,0.0028
1781.0,0.0028
1780.0,0.0029
1779.0,0.0029
1778.0,0.0029
1777.0,0.0029
1776.0,0.0029
1775.0,0.0029
1774.0,0.0029
1773.0,0.0029
1772.0,0.0029
1771.0,0.0029
1770.0,0.0029
1769.0,0.0029
1768.0,0.0029
1767.0,0.0029
1766.0,0.0029
1765.0,0.0029
1764.0,0.0029
1763.0,0.0029
1762.0,0.0029
1761.0,0.0029
1760.0,0.0029
1759.0,0.003
1758.0,0.003
1757.0,0.003
1756.0,0.003
1755.0,0.003
1754.0,0.003
1753.0,0.003
1752.0,0.003
1751.0,0.0031
1750.0,0.0031
1749.0,0.0032
1748.0,0.0032
1747.0,0.0032
1746.0,0.0032
1745.0,0.0032
1744.0,0.0032
1743.0,0.0032
1742.0,0.0032
1741.0,0.0032
1740.0,0.0032
1739.0,0.0032
1738.0,0.0032
1737.0,0.0033
1736.0,0.0033
1735.0,0.0034
1734.0,0.0034
1733.0,0.0034
1732.0,0.0034
1731.0,0.0033
1730.0,0.0033
1729.0,0.0032
1728.0,0.0032
1727.0,0.0032
1726.0,0.0032
1725.0,0.0032
1724.0,0.0031
1723.0,0.0032
1722.0,0.0032
1721.0,0.0033
1720.0,0.0033
1719.0,0.0034
1718.0,0.0034
1717.0,0.0034
1716.0,0.0033
1715.0,0.0033
1714.0,0.0033
1713.0,0.0033
1712.0,0.0033
1711.0,0.0033
1710.0,0.0033
1709.0,0.0033
1708.0,0.0034
1707.0,0.0034
1706.0,0.0034
1705.0,0.0034
1704.0,0.0034
1703.0,0.0035
1702.0,0.0035
1701.0,0.0034
1700.0,0.0034
1699.0,0.0034
1698.0,0.0034
1697.0,0.0034
1696.0,0.0034
1695.0,0.0034
1694.0,0.0035
1693.0,0.0035
1692.0,0.0036
1691.0,0.0036
1690.0,0.0037
1689.0,0.0037
1688.0,0.0038
1687.0,0.0038
1686.0,0.0039
1685.0,0.004
1684.0,0.0039
1683.0,0.0038
1682.0,0.0037
1681.0,0.0037
1680.0,0.0037
1679.0,0.0038
1678.0,0.0039
1677.0,0.0039
1676.0,0.004
1675.0,0.004
1674.0,0.004
1673.0,0.0039
1672.0,0.004
1671.0,0.004
1670.0,0.004
1669.0,0.004
1668.0,0.004
1667.0,0.004
1666.0,0.004
1665.0,0.004
1664.0,0.0041
1663.0,0.0041
1662.0,0.0042
1661.0,0.0041
1660.0,0.0041
1659.0,0.0041
1658.0,0.004
1657.0,0.004
1656.0,0.0039
1655.0,0.0037
1654.0,0.0036
1653.0,0.0037
1652.0,0.0039
1651.0,0.004
1650.0,0.0041
1649.0,0.0041
1648.0,0.0041
1647.0,0.0041
1646.0,0.0041
1645.0,0.004
1644.0,0.004
1643.0,0.004
1642.0,0.004
1641.0,0.004
1640.0,0.0041
1639.0,0.0041
1638.0,0.0042
1637.0,0.0042
1636.0,0.0042
1635.0,0.0042
1634.0,0.0042
1633.0,0.0042
1632.0,0.0042
1631.0,0.0042
1630.0,0.0042
1629.0,0.0043
1628.0,0.0043
1627.0,0.0043
1626.0,0.0043
1625.0,0.0043
1624.0,0.0043
1623.0,0.0042
1622.0,0.0041
1621.0,0.0041
1620.0,0.0041
1619.0,0.0041
1618.0,0.0041
1617.0,0.0041
1616.0,0.0041
1615.0,0.0041
1614.0,0.0041
1613.0,0.004
1612.0,0.004
1611.0,0.004
1610.0,0.0041
1609.0,0.0041
1608.0,0.0042
1607.0,0.0043
1606.0,0.0044
1605.0,0.0045
1604.0,0.0048
1603.0,0.0051
1602.0,0.0053
1601.0,0.0055
1600.0,0.0055
1599.0,0.0054
1598.0,0.0052
1597.0,0.0051
1596.0,0.005
1595.0,0.0049
1594.0,0.0049
1593.0,0.0049
1592.0,0.0049
1591.0,0.0048
1590.0,0.0048
1589.0,0.0048
1588.0,0.0047
1587.0,0.0047
1586.0,0.0048
1585.0,0.0049
1584.0,0.0049
1583.0,0.005
1582.0,0.0049
1581.0,0.0048
1580.0,0.0048
1579.0,0.0047
1578.0,0.0046
1577.0,0.0046
1576.0,0.0045
1575.0,0.0045
1574.0,0.0046
1573.0,0.0046
1572.0,0.0047
1571.0,0.0047
1570.0,0.0046
1569.0,0.0046
1568.0,0.0045
1567.0,0.0045
1566.0,0.0045
1565.0,0.0045
1564.0,0.0045
1563.0,0.0045
1562.0,0.0045
1561.0,0.0043
1560.0,0.0041
1559.0,0.0041
1558.0,0.0043
1557.0,0.0045
1556.0,0.0045
1555.0,0.0045
1554.0,0.0045
1553.0,0.0045
1552.0,0.0045
1551.0,0.0045
1550.0,0.0046
1549.0,0.0046
1548.0,0.0046
1547.0,0.0045
1546.0,0.0045
1545.0,0.0045
1544.0,0.0046
1543.0,0.0047
1542.0,0.0047
1541.0,0.0046
1540.0,0.0046
1539.0,0.0046
1538.0,0.0046
1537.0,0.0046
1536.0,0.0046
1535.0,0.0046
1534.0,0.0046
1533.0,0.0047
1532.0,0.0047
1531.0,0.0046
1530.0,0.0046
1529.0,0.0046
1528.0,0.0046
1527.0,0.0046
1526.0,0.0046
1525.0,0.0046
1524.0,0.0046
1523.0,0.0046
1522.0,0.0046
1521.0,0.0046
1520.0,0.0046
1519.0,0.0047
1518.0,0.0047
1517.0,0.0048
1516.0,0.0048
1515.0,0.0047
1514.0,0.0047
1513.0,0.0046
1512.0,0.0046
1511.0,0.0046
1510.0,0.0045
1509.0,0.0043
1508.0,0.0041
1507.0,0.0041
1506.0,0.0042
1505.0,0.0042
1504.0,0.0042
1503.0,0.0042
1502.0,0.0041
1501.0,0.0041
1500.0,0.0041
1499.0,0.0042
1498.0,0.0045
1497.0,0.0052
1496.0,0.0061
1495.0,0.0071
1494.0,0.0079
1493.0,0.0085
1492.0,0.0087
1491.0,0.0086
1490.0,0.0081
1489.0,0.0075
1488.0,0.0071
1487.0,0.0069
1486.0,0.0066
1485.0,0.0065
1484.0,0.0063
1483.0,0.0061
1482.0,0.006
1481.0,0.0058
1480.0,0.0058
1479.0,0.0057
1478.0,0.0056
1477.0,0.0056
1476.0,0.0056
1475.0,0.0055
1474.0,0.0055
1473.0,0.0055
1472.0,0.0056
1471.0,0.0055
1470.0,0.0055
1469.0,0.0054
1468.0,0.0053
1467.0,0.0052
1466.0,0.0052
1465.0,0.0051
1464.0,0.0051
1463.0,0.0051
1462.0,0.0051
1461.0,0.0051
1460.0,0.0051
1459.0,0.0051
1458.0,0.0054
1457.0,0.0062
1456.0,0.007
1455.0,0.0077
1454.0,0.0083
1453.0,0.0089
1452.0,0.0093
1451.0,0.0095
1450.0,0.0094
1449.0,0.0092
1448.0,0.0089
1447.0,0.0086
1446.0,0.0085
1445.0,0.0084
1444.0,0.0082
1443.0,0.0081
1442.0,0.008
1441.0,0.0079
1440.0,0.0078
1439.0,0.0077
1438.0,0.0075
1437.0,0.0073
1436.0,0.0071
1435.0,0.007
1434.0,0.0069
1433.0,0.0069
1432.0,0.0069
1431.0,0.0068
1430.0,0.0068
1429.0,0.0067
1428.0,0.0066
1427.0,0.0066
1426.0,0.0065
1425.0,0.0064
1424.0,0.0064
1423.0,0.0064
1422.0,0.0064
1421.0,0.0064
1420.0,0.0065
1419.0,0.0065
1418.0,0.0065
1417.0,0.0064
1416.0,0.0064
1415.0,0.0064
1414.0,0.0064
1413.0,0.0064
1412.0,0.0063
1411.0,0.0063
1410.0,0.0063
1409.0,0.0063
1408.0,0.0063
1407.0,0.0063
1406.0,0.0063
1405.0,0.0064
1404.0,0.0064
1403.0,0.0063
1402.0,0.0063
1401.0,0.0063
1400.0,0.0063
1399.0,0.0063
1398.0,0.0063
1397.0,0.0063
1396.0,0.0063
1395.0,0.0063
1394.0,0.0063
1393.0,0.0063
1392.0,0.0063
1391.0,0.0063
1390.0,0.0063
1389.0,0.0063
1388.0,0.0063
1387.0,0.0063
1386.0,0.0064
1385.0,0.0065
1384.0,0.0065
1383.0,0.0066
1382.0,0.0066
1381.0,0.0067
1380.0,0.0067
1379.0,0.0068
1378.0,0.0068
1377.0,0.0069
1376.0,0.007
1375.0,0.0071
1374.0,0.0071
1373.0,0.0071
1372.0,0.007
1371.0,0.007
1370.0,0.007
1369.0,0.0071
1368.0,0.0072
1367.0,0.0072
1366.0,0.0073
1365.0,0.0072
1364.0,0.0072
1363.0,0.0072
1362.0,0.0072
1361.0,0.0072
1360.0,0.0072
1359.0,0.0072
1358.0,0.0072
1357.0,0.0072
1356.0,0.0072
1355.0,0.0071
1354.0,0.0071
1353.0,0.0071
1352.0,0.0071
1351.0,0.0072
1350.0,0.0072
1349.0,0.0073
1348.0,0.0073
1347.0,0.0072
1346.0,0.0072
1345.0,0.0072
1344.0,0.0072
1343.0,0.0072
1342.0,0.0072
1341.0,0.0072
1340.0,0.0072
1339.0,0.0072
1338.0,0.0072
1337.0,0.0072
1336.0,0.0072
1335.0,0.0072
1334.0,0.0072
1333.0,0.0072
1332.0,0.0073
1331.0,0.0073
1330.0,0.0074
1329.0,0.0076
1328.0,0.0076
1327.0,0.0076
1326.0,0.0076
1325.0,0.0075
1324.0,0.0074
1323.0,0.0074
1322.0,0.0074
1321.0,0.0074
1320.0,0.0074
1319.0,0.0075
1318.0,0.0075
1317.0,0.0076
1316.0,0.0076
1315.0,0.0075
1314.0,0.0075
1313.0,0.0075
1312.0,0.0075
1311.0,0.0076
1310.0,0.0076
1309.0,0.0077
1308.0,0.0077
1307.0,0.0077
1306.0,0.0076
1305.0,0.0076
1304.0,0.0077
1303.0,0.0077
1302.0,0.0077
1301.0,0.0077
1300.0,0.0077
1299.0,0.0077
1298.0,0.0077
1297.0,0.0077
1296.0,0.0077
1295.0,0.0077
1294.0,0.0077
1293.0,0.0077
1292.0,0.0077
1291.0,0.0078
1290.0,0.0078
1289.0,0.0079
1288.0,0.0079
1287.0,0.0079
1286.0,0.0079
1285.0,0.0079
1284.0,0.0079
1283.0,0.0079
1282.0,0.0079
1281.0,0.0079
1280.0,0.0079
1279.0,0.0079
1278.0,0.0079
1277.0,0.0079
1276.0,0.0079
1275.0,0.008
1274.0,0.008
1273.0,0.0081
1272.0,0.008
1271.0,0.008
1270.0,0.0079
1269.0,0.0079
1268.0,0.0078
1267.0,0.0078
1266.0,0.0078
1265.0,0.0078
1264.0,0.0079
1263.0,0.0079
1262.0,0.0079
1261.0,0.008
1260.0,0.008
1259.0,0.008
1258.0,0.0081
1257.0,0.008
1256.0,0.008
1255.0,0.008
1254.0,0.008
1253.0,0.008
1252.0,0.008
1251.0,0.008
1250.0,0.008
1249.0,0.008
1248.0,0.008
1247.0,0.008
1246.0,0.008
1245.0,0.008
1244.0,0.0081
1243.0,0.0081
1242.0,0.0081
1241.0,0.0081
1240.0,0.0081
1239.0,0.0082
1238.0,0.0081
1237.0,0.0081
1236.0,0.0082
1235.0,0.0082
1234.0,0.0082
1233.0,0.0083
1232.0,0.0083
1231.0,0.0083
1230.0,0.0083
1229.0,0.0084
1228.0,0.0084
1227.0,0.0084
1226.0,0.0084
1225.0,0.0084
1224.0,0.0084
1223.0,0.0084
1222.0,0.0084
1221.0,0.0084
1220.0,0.0084
1219.0,0.0084
1218.0,0.0084
1217.0,0.0084
1216.0,0.0084
1215.0,0.0085
1214.0,0.0085
1213.0,0.0086
1212.0,0.0086
1211.0,0.0086
1210.0,0.0086
1209.0,0.0085
1208.0,0.0085
1207.0,0.0086
1206.0,0.0086
1205.0,0.0087
1204.0,0.0087
1203.0,0.0088
1202.0,0.0088
1201.0,0.0088
1200.0,0.0088
1199.0,0.0088
1198.0,0.0089
1197.0,0.0089
1196.0,0.009
1195.0,0.009
1194.0,0.009
1193.0,0.009
1192.0,0.009
1191.0,0.009
1190.0,0.0091
1189.0,0.0092
1188.0,0.0093
1187.0,0.0093
1186.0,0.0093
1185.0,0.0094
1184.0,0.0095
1183.0,0.0096
1182.0,0.0097
1181.0,0.0098
1180.0,0.0098
1179.0,0.0097
1178.0,0.0096
1177.0,0.0096
1176.0,0.0096
1175.0,0.0096
1174.0,0.0096
1173.0,0.0096
1172.0,0.0096
1171.0,0.0096
1170.0,0.0096
1169.0,0.0096
1168.0,0.0095
1167.0,0.0095
1166.0,0.0096
1165.0,0.0096
1164.0,0.0097
1163.0,0.0097
1162.0,0.0097
1161.0,0.0098
1160.0,0.0098
1159.0,0.0099
1158.0,0.0099
1157.0,0.0101
1156.0,0.0102
1155.0,0.0104
1154.0,0.0105
1153.0,0.0106
1152.0,0.0106
1151.0,0.0106
1150.0,0.0106
1149.0,0.0105
1148.0,0.0104
1147.0,0.0104
1146.0,0.0103
1145.0,0.0103
1144.0,0.0103
1143.0,0.0103
1142.0,0.0103
1141.0,0.0103
1140.0,0.0103
1139.0,0.0103
1138.0,0.0104
1137.0,0.0104
1136.0,0.0103
1135.0,0.0103
1134.0,0.0103
1133.0,0.0104
1132.0,0.0104
1131.0,0.0104
1130.0,0.0104
1129.0,0.0104
1128.0,0.0104
1127.0,0.0104
1126.0,0.0104
1125.0,0.0104
1124.0,0.0104
1123.0,0.0104
1122.0,0.0103
1121.0,0.0103
1120.0,0.0103
1119.0,0.0102
1118.0,0.0102
1117.0,0.0103
1116.0,0.0103
1115.0,0.0104
1114.0,0.0103
1113.0,0.0104
1112.0,0.0104
1111.0,0.0105
1110.0,0.0105
1109.0,0.0105
1108.0,0.0104
1107.0,0.0103
1106.0,0.0103
1105.0,0.0103
1104.0,0.0103
1103.0,0.0103
1102.0,0.0103
1101.0,0.0103
1100.0,0.0103
1099.0,0.0103
1098.0,0.0103
1097.0,0.0102
1096.0,0.0102
1095.0,0.0102
1094.0,0.0103
1093.0,0.0105
1092.0,0.0105
1091.0,0.0106
1090.0,0.0105
1089.0,0.0105
1088.0,0.0104
1087.0,0.0103
1086.0,0.0103
1085.0,0.0103
1084.0,0.0103
1083.0,0.0104
1082.0,0.0105
1081.0,0.0105
1080.0,0.0106
1079.0,0.0107
1078.0,0.0108
1077.0,0.0108
1076.0,0.0108
1075.0,0.0108
1074.0,0.0109
1073.0,0.0111
1072.0,0.0113
1071.0,0.0115
1070.0,0.0117
1069.0,0.0117
1068.0,0.0117
1067.0,0.0116
1066.0,0.0116
1065.0,0.0116
1064.0,0.0115
1063.0,0.0115
1062.0,0.0114
1061.0,0.0114
1060.0,0.0113
1059.0,0.0113
1058.0,0.0112
1057.0,0.0112
1056.0,0.0112
1055.0,0.0111
1054.0,0.0111
1053.0,0.0111
1052.0,0.0112
1051.0,0.0112
1050.0,0.0112
1049.0,0.0112
1048.0,0.0112
1047.0,0.0111
1046.0,0.0111
1045.0,0.011
1044.0,0.011
1043.0,0.011
1042.0,0.011
1041.0,0.011
1040.0,0.011
1039.0,0.0109
1038.0,0.0109
1037.0,0.011
1036.0,0.0112
1035.0,0.0115
1034.0,0.0118
1033.0,0.0122
1032.0,0.0126
1031.0,0.0131
1030.0,0.0134
1029.0,0.0137
1028.0,0.0139
1027.0,0.0139
1026.0,0.0139
1025.0,0.0137
1024.0,0.0136
1023.0,0.0135
1022.0,0.0135
1021.0,0.0134
1020.0,0.0134
1019.0,0.0133
1018.0,0.0132
1017.0,0.0131
1016.0,0.013
1015.0,0.0129
1014.0,0.0129
1013.0,0.0129
1012.0,0.013
1011.0,0.013
1010.0,0.0129
1009.0,0.0129
1008.0,0.0128
1007.0,0.0128
1006.0,0.0128
1005.0,0.0129
1004.0,0.013
1003.0,0.0132
1002.0,0.0133
1001.0,0.0133
1000.0,0.0132
999.0,0.0131
998.0,0.013
997.0,0.0129
996.0,0.0129
995.0,0.013
994.0,0.013
993.0,0.0131
992.0,0.0131
991.0,0.0131
990.0,0.0131
989.0,0.0131
988.0,0.0131
987.0,0.0131
986.0,0.0131
985.0,0.0131
984.0,0.0131
983.0,0.0132
982.0,0.0132
981.0,0.0133
980.0,0.0133
979.0,0.0133
978.0,0.0134
977.0,0.0134
976.0,0.0135
975.0,0.0135
974.0,0.0135
973.0,0.0135
972.0,0.0135
971.0,0.0135
970.0,0.0135
969.0,0.0135
968.0,0.0136
967.0,0.0138
966.0,0.014
965.0,0.0141
964.0,0.0141
963.0,0.0141
962.0,0.014
961.0,0.014
960.0,0.014
959.0,0.0141
958.0,0.0141
957.0,0.0141
956.0,0.014
955.0,0.014
954.0,0.014
953.0,0.0141
952.0,0.014
951.0,0.014
950.0,0.0139
949.0,0.0139
948.0,0.014
947.0,0.0141
946.0,0.0142
945.0,0.0143
944.0,0.0144
943.0,0.0144
942.0,0.0144
941.0,0.0144
940.0,0.0144
939.0,0.0144
938.0,0.0144
937.0,0.0144
936.0,0.0144
935.0,0.0144
934.0,0.0145
933.0,0.0144
932.0,0.0144
931.0,0.0144
930.0,0.0144
929.0,0.0145
928.0,0.0146
927.0,0.0146
926.0,0.0146
925.0,0.0146
924.0,0.0146
923.0,0.0146
922.0,0.0146
921.0,0.0147
920.0,0.0148
919.0,0.0149
918.0,0.015
917.0,0.015
916.0,0.0151
915.0,0.0152
914.0,0.0154
913.0,0.0157
912.0,0.016
911.0,0.0163
910.0,0.0166
909.0,0.0168
908.0,0.017
907.0,0.0173
906.0,0.0175
905.0,0.0177
904.0,0.0177
903.0,0.0177
902.0,0.0176
901.0,0.0174
900.0,0.0172
899.0,0.017
898.0,0.0168
897.0,0.0166
896.0,0.0166
895.0,0.0166
894.0,0.0166
893.0,0.0165
892.0,0.0164
891.0,0.0163
890.0,0.0163
889.0,0.0163
888.0,0.0163
887.0,0.0164
886.0,0.0164
885.0,0.0164
884.0,0.0164
883.0,0.0165
882.0,0.0165
881.0,0.0166
880.0,0.0166
879.0,0.0167
878.0,0.0167
877.0,0.0167
876.0,0.0166
875.0,0.0165
874.0,0.0163
873.0,0.0163
872.0,0.0164
871.0,0.0166
870.0,0.0167
869.0,0.0168
868.0,0.0168
867.0,0.0167
866.0,0.0167
865.0,0.0166
864.0,0.0166
863.0,0.0165
862.0,0.0165
861.0,0.0166
860.0,0.0166
859.0,0.0166
858.0,0.0165
857.0,0.0165
856.0,0.0164
855.0,0.0164
854.0,0.0164
853.0,0.0164
852.0,0.0165
851.0,0.0166
850.0,0.0167
849.0,0.0168
848.0,0.0168
847.0,0.0169
846.0,0.017
845.0,0.0172
844.0,0.0174
843.0,0.0175
842.0,0.0176
841.0,0.0176
840.0,0.0177
839.0,0.0178
838.0,0.0179
837.0,0.0179
836.0,0.0179
835.0,0.0178
834.0,0.0178
833.0,0.0177
832.0,0.0177
831.0,0.0175
830.0,0.0173
829.0,0.0171
828.0,0.017
827.0,0.017
826.0,0.017
825.0,0.0171
824.0,0.0172
823.0,0.0172
822.0,0.0171
821.0,0.017
820.0,0.0168
819.0,0.0167
818.0,0.0167
817.0,0.0168
816.0,0.017
815.0,0.0171
814.0,0.0172
813.0,0.0172
812.0,0.0172
811.0,0.0173
810.0,0.0174
809.0,0.0174
808.0,0.0173
807.0,0.0171
806.0,0.017
805.0,0.017
804.0,0.017
803.0,0.017
802.0,0.0169
801.0,0.0169
800.0,0.017
799.0,0.0171
798.0,0.0172
797.0,0.0172
796.0,0.0172
795.0,0.0172
794.0,0.0171
793.0,0.0169
792.0,0.0169
791.0,0.0169
790.0,0.017
789.0,0.0172
788.0,0.0174
787.0,0.0175
786.0,0.0176
785.0,0.0177
784.0,0.0177
783.0,0.0177
782.0,0.0177
781.0,0.0177
780.0,0.0178
779.0,0.018
778.0,0.0182
777.0,0.0185
776.0,0.0188
775.0,0.0193
774.0,0.0199
773.0,0.0205
772.0,0.0213
771.0,0.022
770.0,0.0226
769.0,0.0232
768.0,0.0239
767.0,0.0248
766.0,0.0257
765.0,0.0267
764.0,0.0276
763.0,0.0285
762.0,0.0293
761.0,0.0303
760.0,0.0314
759.0,0.0326
758.0,0.0338
757.0,0.0349
756.0,0.0357
755.0,0.0362
754.0,0.0363
753.0,0.0362
752.0,0.0362
751.0,0.0365
750.0,0.037
749.0,0.0376
748.0,0.0381
747.0,0.0383
746.0,0.0381
745.0,0.0375
744.0,0.0366
743.0,0.0355
742.0,0.0344
741.0,0.0334
740.0,0.0326
739.0,0.0316
738.0,0.0306
737.0,0.0296
736.0,0.0288
735.0,0.0281
734.0,0.0273
733.0,0.0266
732.0,0.0259
731.0,0.0252
730.0,0.0244
729.0,0.0236
728.0,0.0229
727.0,0.0225
726.0,0.0224
725.0,0.0223
724.0,0.022
723.0,0.0215
722.0,0.0211
721.0,0.0208
720.0,0.0205
719.0,0.02
718.0,0.0194
717.0,0.0187
716.0,0.018
715.0,0.0174
714.0,0.0169
713.0,0.0167
712.0,0.0166
711.0,0.0168
710.0,0.0173
709.0,0.0185
708.0,0.0205
707.0,0.0236
706.0,0.0277
705.0,0.0331
704.0,0.0398
703.0,0.0475
702.0,0.0558
701.0,0.0642
700.0,0.0725
699.0,0.0806
698.0,0.0883
697.0,0.0949
696.0,0.0992
695.0,0.1002
694.0,0.0972
693.0,0.0911
692.0,0.0835
691.0,0.076
690.0,0.0692
689.0,0.0638
688.0,0.0596
687.0,0.0565
686.0,0.0542
685.0,0.0522
684.0,0.0502
683.0,0.0482
682.0,0.0465
681.0,0.0451
680.0,0.044
679.0,0.0429
678.0,0.0421
677.0,0.0418
676.0,0.0417
675.0,0.0413
674.0,0.0403
673.0,0.0391
672.0,0.0379
671.0,0.037
670.0,0.0365
669.0,0.0368
668.0,0.0373
667.0,0.0373
666.0,0.0372
665.0,0.0371
664.0,0.0372
663.0,0.0374
662.0,0.0375
661.0,0.0374
660.0,0.037
659.0,0.036
658.0,0.0347
657.0,0.0334
656.0,0.0327
655.0,0.0328
654.0,0.0334
653.0,0.0342
652.0,0.035
651.0,0.0354
650.0,0.0354
649.0,0.035
648.0,0.0345
647.0,0.0338
646.0,0.0331
645.0,0.0325
644.0,0.0322
643.0,0.0321
642.0,0.0323
641.0,0.0329
640.0,0.0338
639.0,0.0344
638.0,0.0345
637.0,0.0343
636.0,0.0342
635.0,0.0337
634.0,0.0325
633.0,0.0311
632.0,0.0306
631.0,0.0312
630.0,0.0321
629.0,0.0327
628.0,0.033
627.0,0.0332
626.0,0.0338
625.0,0.0346
624.0,0.0351
623.0,0.0352
622.0,0.035
621.0,0.0347
620.0,0.0346
619.0,0.0346
618.0,0.0347
617.0,0.035
616.0,0.0354
615.0,0.0353
614.0,0.0346
613.0,0.0335
612.0,0.0327
611.0,0.0325
610.0,0.0329
609.0,0.0333
608.0,0.0335
607.0,0.0335
606.0,0.0336
605.0,0.0341
604.0,0.0344
603.0,0.0337
602.0,0.032
601.0,0.0306
600.0,0.0307
