nm,Intensity
526.493,828.72
526.629,829.02
526.766,828.5
526.903,829.08
527.039,828.56
527.176,829.54
527.313,828.18
527.449,828.78
527.586,829.54
527.723,828.88
527.859,829.74
527.996,829.18
528.133,829.6
528.269,829.26
528.406,828.94
528.542,829.5
528.679,829.22
528.816,828.9
528.952,829.36
529.089,828.46
529.225,829.08
529.362,829.24
529.498,829.26
529.635,829.4
529.771,829.3
529.908,828.8
530.044,829.06
530.181,829.02
530.317,829.2
530.454,829.54
530.59,829.26
530.727,828.72
530.863,828.52
531.0,828.92
531.136,828.86
531.273,829.04
531.409,829.14
531.546,829.02
531.682,828.98
531.818,828.8
531.955,831.44
532.091,846.9
532.227,854.6
532.364,835.3
532.5,829.44
532.637,829.14
532.773,828.9
532.909,828.96
533.046,828.88
533.182,828.7
533.318,829.84
533.455,829.4
533.591,830.0
533.727,843.18
533.863,902.2
534.0,996.78
534.136,1045.08
534.272,1049.24
534.408,1033.9
534.545,1025.56
534.681,1020.52
534.817,1011.72
534.953,1002.06
535.09,988.0
535.226,982.78
535.362,979.62
535.498,977.0
535.634,972.88
535.771,971.12
535.907,964.68
536.043,961.34
536.179,957.36
536.315,954.36
536.451,954.18
536.588,949.98
536.724,950.8
536.86,949.5
536.996,949.68
537.132,948.86
537.268,946.9
537.404,947.32
537.54,945.86
537.676,946.72
537.812,948.42
537.948,948.36
538.084,946.08
538.22,946.48
538.357,948.46
538.493,947.5
538.629,949.16
538.765,949.42
538.901,950.42
539.037,950.24
539.173,949.72
539.309,949.38
539.444,952.24
539.58,953.66
539.716,955.66
539.852,957.6
539.988,958.88
540.124,960.14
540.26,957.0
540.396,955.52
540.532,953.64
540.668,955.34
540.804,955.46
540.94,954.42
541.076,955.02
541.211,954.28
541.347,955.06
541.483,955.62
541.619,953.32
541.755,954.84
541.891,956.24
542.026,956.02
542.162,956.06
542.298,956.86
542.434,955.06
542.57,957.94
542.705,957.82
542.841,957.18
542.977,958.82
543.113,962.36
543.249,960.66
543.384,961.02
543.52,960.58
543.656,960.08
543.791,962.54
543.927,962.92
544.063,961.78
544.199,964.0
544.334,963.88
544.47,962.94
544.606,962.52
544.741,963.48
544.877,964.98
545.013,967.38
545.148,966.18
545.284,966.16
545.42,967.04
545.555,968.4
545.691,966.3
545.827,966.46
545.962,967.4
546.098,967.58
546.233,968.88
546.369,966.58
546.504,970.18
546.64,970.9
546.776,970.52
546.911,970.9
547.047,969.84
547.182,972.22
547.318,970.08
547.453,970.6
547.589,973.58
547.724,972.14
547.86,971.56
547.995,972.92
548.131,974.56
548.266,973.44
548.402,975.72
548.537,972.82
548.673,975.54
548.808,977.6
548.944,977.18
549.079,975.88
549.214,978.3
549.35,976.68
549.485,975.8
549.621,976.38
549.756,978.88
549.892,977.04
550.027,978.38
550.162,976.92
550.298,977.56
550.433,981.66
550.568,997.02
550.704,1023.76
550.839,1005.28
550.974,983.38
551.11,980.64
551.245,979.68
551.38,981.7
551.516,981.24
551.651,982.54
551.786,982.16
551.922,983.86
552.057,985.34
552.192,985.08
552.327,984.62
552.463,984.8
552.598,986.08
552.733,990.74
552.868,996.72
553.004,991.22
553.139,987.34
553.274,986.36
553.409,986.74
553.544,987.48
553.68,989.2
553.815,989.58
553.95,989.78
554.085,989.42
554.22,989.88
554.356,987.42
554.491,989.16
554.626,991.66
554.761,989.4
554.896,991.56
555.031,992.48
555.166,992.92
555.301,993.72
555.437,995.74
555.572,998.08
555.707,1001.28
555.842,999.54
555.977,997.78
556.112,998.98
556.247,1001.82
556.382,1000.94
556.517,1003.94
556.652,1004.56
556.787,1004.08
556.922,1005.5
557.057,1005.86
557.192,1012.18
557.327,1018.1
557.462,1036.8
557.597,1055.84
557.732,1062.64
557.867,1040.12
558.002,1017.86
558.137,1010.16
558.272,1008.78
558.407,1004.66
558.542,1006.42
558.677,1004.24
558.812,1005.18
558.947,1003.36
559.082,1003.26
559.217,1004.5
559.351,1001.54
559.486,1005.06
559.621,1004.64
559.756,1003.52
559.891,1002.82
560.026,1003.7
560.161,1005.42
560.295,1008.66
560.43,1007.08
560.565,1006.6
560.7,1008.06
560.835,1008.76
560.97,1007.88
561.104,1012.34
561.239,1009.72
561.374,1011.62
561.509,1013.02
561.644,1014.92
561.778,1016.98
561.913,1020.4
562.048,1024.58
562.183,1025.16
562.317,1022.32
562.452,1020.08
562.587,1016.6
562.722,1017.18
562.856,1017.88
562.991,1017.22
563.126,1019.52
563.26,1019.28
563.395,1017.9
563.53,1021.5
563.665,1018.16
563.799,1020.7
563.934,1023.26
564.069,1021.6
564.203,1026.64
564.338,1025.66
564.472,1032.04
564.607,1032.12
564.742,1037.82
564.876,1042.5
565.011,1055.8
565.146,1065.02
565.28,1059.68
565.415,1048.48
565.549,1049.68
565.684,1051.08
565.818,1054.74
565.953,1053.72
566.088,1047.7
566.222,1041.96
566.357,1035.26
566.491,1033.66
566.626,1031.24
566.76,1030.16
566.895,1028.78
567.029,1028.84
567.164,1025.7
567.298,1028.06
567.433,1032.1
567.567,1037.18
567.702,1041.58
567.836,1043.44
567.971,1038.8
568.105,1037.18
568.24,1038.24
568.374,1034.66
568.509,1034.32
568.643,1033.76
568.777,1037.24
568.912,1035.7
569.046,1034.56
569.181,1036.82
569.315,1038.16
569.449,1038.62
569.584,1037.74
569.718,1040.7
569.853,1041.28
569.987,1041.14
570.121,1044.36
570.256,1046.26
570.39,1047.0
570.524,1054.64
570.659,1058.82
570.793,1066.32
570.927,1078.44
571.062,1098.28
571.196,1111.86
571.33,1132.78
571.465,1132.7
571.599,1123.62
571.733,1102.14
571.867,1084.4
572.002,1080.18
572.136,1074.14
572.27,1066.4
572.404,1058.48
572.539,1055.26
572.673,1051.2
572.807,1051.88
572.941,1052.42
573.076,1050.78
573.21,1051.28
573.344,1049.54
573.478,1055.06
573.612,1052.0
573.747,1054.84
573.881,1053.82
574.015,1056.28
574.149,1053.58
574.283,1058.44
574.417,1055.02
574.552,1053.4
574.686,1057.58
574.82,1055.96
574.954,1057.16
575.088,1057.84
575.222,1061.7
575.356,1070.2
575.491,1075.34
575.625,1074.32
575.759,1066.9
575.893,1062.3
576.027,1058.46
576.161,1061.78
576.295,1061.92
576.429,1064.02
576.563,1067.16
576.697,1068.78
576.831,1071.9
576.965,1070.42
577.099,1070.44
577.233,1071.16
577.367,1069.34
577.501,1065.86
577.635,1066.58
577.769,1063.14
577.903,1063.58
578.037,1061.42
578.171,1064.04
578.305,1061.84
578.439,1062.74
578.573,1065.3
578.707,1068.24
578.841,1063.4
578.975,1065.36
579.109,1066.08
579.243,1065.6
579.377,1065.54
579.511,1065.44
579.645,1068.1
579.779,1067.78
579.913,1067.48
580.046,1069.44
580.18,1068.52
580.314,1069.54
580.448,1072.4
580.582,1072.5
580.716,1073.24
580.85,1073.72
580.984,1075.28
581.117,1077.94
581.251,1075.88
581.385,1080.06
581.519,1087.78
581.653,1105.56
581.787,1132.14
581.92,1194.14
582.054,1317.28
582.188,1445.6
582.322,1387.1
582.456,1219.08
582.589,1128.32
582.723,1100.38
582.857,1091.96
582.991,1085.74
583.124,1083.76
583.258,1081.72
583.392,1079.6
583.526,1081.2
583.659,1078.7
583.793,1077.4
583.927,1080.04
584.061,1082.36
584.194,1081.88
584.328,1080.96
584.462,1082.52
584.595,1087.44
584.729,1085.48
584.863,1085.46
584.997,1086.58
585.13,1087.74
585.264,1090.22
585.398,1100.52
585.531,1119.2
585.665,1155.52
585.798,1195.22
585.932,1243.9
586.066,1266.4
586.199,1246.66
586.333,1215.76
586.467,1184.08
586.6,1154.24
586.734,1125.72
586.867,1110.3
587.001,1102.1
587.135,1096.44
587.268,1094.5
587.402,1094.3
587.535,1092.96
587.669,1094.32
587.802,1092.3
587.936,1090.96
588.07,1089.04
588.203,1086.08
588.337,1089.44
588.47,1088.9
588.604,1090.1
588.737,1085.12
588.871,1087.04
589.004,1084.44
589.138,1085.16
589.271,1087.92
589.405,1085.54
589.538,1088.3
589.672,1086.94
589.805,1084.52
589.939,1084.3
590.072,1087.14
590.206,1088.72
590.339,1086.4
590.472,1086.56
590.606,1085.98
590.739,1087.38
590.873,1089.12
591.006,1088.32
591.14,1088.46
591.273,1088.96
591.406,1090.98
591.54,1092.0
591.673,1086.92
591.807,1087.68
591.94,1091.18
592.073,1089.98
592.207,1090.64
592.34,1084.92
592.473,1090.8
592.607,1089.16
592.74,1087.94
592.873,1090.08
593.007,1086.96
593.14,1088.16
593.273,1090.74
593.407,1087.08
593.54,1087.24
593.673,1088.52
593.807,1087.64
593.94,1088.58
594.073,1089.38
594.207,1090.44
594.34,1088.96
594.473,1092.06
594.606,1091.08
594.74,1089.32
594.873,1091.14
595.006,1092.9
595.14,1093.2
595.273,1092.58
595.406,1092.64
595.539,1092.26
595.673,1095.04
595.806,1092.18
595.939,1093.38
596.072,1092.9
596.205,1094.84
596.339,1092.78
596.472,1094.56
596.605,1092.12
596.738,1094.8
596.871,1095.74
597.005,1094.78
597.138,1096.18
597.271,1097.52
597.404,1096.76
597.537,1096.06
597.67,1097.14
597.804,1097.16
597.937,1096.82
598.07,1097.34
598.203,1098.74
598.336,1100.72
598.469,1099.62
598.602,1098.22
598.735,1100.68
598.869,1100.32
599.002,1104.74
599.135,1100.04
599.268,1102.02
599.401,1103.24
599.534,1102.1
599.667,1099.94
599.8,1101.7
599.933,1100.98
600.066,1103.6
600.199,1100.84
600.332,1099.0
600.465,1101.96
600.598,1100.28
600.731,1102.72
600.865,1101.18
600.998,1100.94
601.131,1101.86
601.264,1101.38
601.397,1099.1
601.53,1100.28
601.663,1103.86
601.796,1100.42
601.929,1099.4
602.062,1100.82
602.195,1101.04
602.328,1100.8
602.46,1098.96
602.593,1102.68
602.726,1103.98
602.859,1101.78
602.992,1104.86
603.125,1105.86
603.258,1103.46
603.391,1107.74
603.524,1104.32
603.657,1105.18
603.79,1107.16
603.923,1108.16
604.056,1106.32
604.189,1106.76
604.322,1107.84
604.454,1106.54
604.587,1106.0
604.72,1107.16
604.853,1105.84
604.986,1106.08
605.119,1105.16
605.252,1102.62
605.385,1106.14
605.517,1105.34
605.65,1102.34
605.783,1101.2
605.916,1104.02
606.049,1105.0
606.182,1102.24
606.315,1102.4
606.447,1100.8
606.58,1104.1
606.713,1106.36
606.846,1103.74
606.979,1104.02
607.111,1108.2
607.244,1107.9
607.377,1109.08
607.51,1105.94
607.643,1110.98
607.775,1110.34
607.908,1111.58
608.041,1111.22
608.174,1115.46
608.306,1112.2
608.439,1112.44
608.572,1114.76
608.705,1115.4
608.837,1114.8
608.97,1113.96
609.103,1117.24
609.236,1117.34
609.368,1115.82
609.501,1116.6
609.634,1116.7
609.766,1119.06
609.899,1118.82
610.032,1116.4
610.164,1118.88
610.297,1119.04
610.43,1120.54
610.563,1118.72
610.695,1120.22
610.828,1119.94
610.961,1120.32
611.093,1119.78
611.226,1121.52
611.359,1123.58
611.491,1125.08
611.624,1124.84
611.756,1126.82
611.889,1128.16
612.022,1129.54
612.154,1130.04
612.287,1130.0
612.42,1131.68
612.552,1132.62
612.685,1135.3
612.817,1137.04
612.95,1137.48
613.083,1138.76
613.215,1140.38
613.348,1141.76
613.48,1140.66
613.613,1142.86
613.745,1143.58
613.878,1146.32
614.011,1146.86
614.143,1146.58
614.276,1148.54
614.408,1143.84
614.541,1146.84
614.673,1148.46
614.806,1149.04
614.938,1148.86
615.071,1150.44
615.203,1149.9
615.336,1149.82
615.469,1149.08
615.601,1149.94
615.734,1151.16
615.866,1151.66
615.999,1152.08
616.131,1153.32
616.263,1155.84
616.396,1155.48
616.528,1152.98
616.661,1159.52
616.793,1157.62
616.926,1160.52
617.058,1159.34
617.191,1164.88
617.323,1163.7
617.456,1166.6
617.588,1166.68
617.721,1168.72
617.853,1165.5
617.985,1171.46
618.118,1169.7
618.25,1168.58
618.383,1170.92
618.515,1172.2
618.648,1174.86
618.78,1174.04
618.912,1174.18
619.045,1168.64
619.177,1174.38
619.31,1177.16
619.442,1175.0
619.574,1173.5
619.707,1176.66
619.839,1176.68
619.971,1173.12
620.104,1172.86
620.236,1179.22
620.369,1175.98
620.501,1177.82
620.633,1178.92
620.766,1177.22
620.898,1179.42
621.03,1180.98
621.163,1184.4
621.295,1182.36
621.427,1182.48
621.56,1185.42
621.692,1185.42
621.824,1184.36
621.957,1185.76
622.089,1188.34
622.221,1186.16
622.353,1187.3
622.486,1188.92
622.618,1190.16
622.75,1193.68
622.883,1195.94
623.015,1196.94
623.147,1199.78
623.279,1200.5
623.412,1200.38
623.544,1198.84
623.676,1201.16
623.808,1203.0
623.941,1205.9
624.073,1204.66
624.205,1204.52
624.337,1208.28
624.47,1209.46
624.602,1204.62
624.734,1212.08
624.866,1214.92
624.999,1209.66
625.131,1212.06
625.263,1208.4
625.395,1210.9
625.527,1211.24
625.66,1215.3
625.792,1212.64
625.924,1216.46
626.056,1212.78
626.188,1214.88
626.321,1216.94
626.453,1216.28
626.585,1217.76
626.717,1215.5
626.849,1217.96
626.981,1218.92
627.114,1218.68
627.246,1219.72
627.378,1221.42
627.51,1221.94
627.642,1221.6
627.774,1222.12
627.906,1220.88
628.039,1224.44
628.171,1224.68
628.303,1225.3
628.435,1227.72
628.567,1229.76
628.699,1230.68
628.831,1229.32
628.963,1236.24
629.095,1236.16
629.228,1235.5
629.36,1236.88
629.492,1242.6
629.624,1239.58
629.756,1244.82
629.888,1244.22
630.02,1245.78
630.152,1239.08
630.284,1242.5
630.416,1243.28
630.548,1246.88
630.68,1244.26
630.813,1247.96
630.945,1247.62
631.077,1251.74
631.209,1252.76
631.341,1259.46
631.473,1262.64
631.605,1266.44
631.737,1269.16
631.869,1270.0
632.001,1276.12
632.133,1276.36
632.265,1272.76
632.397,1269.08
632.529,1264.4
632.661,1265.38
632.793,1265.2
632.925,1263.82
633.057,1260.42
633.189,1263.0
633.321,1260.4
633.453,1263.58
633.585,1264.94
633.717,1261.82
633.849,1260.02
633.981,1257.26
634.113,1257.1
634.245,1257.94
634.377,1260.9
634.509,1259.82
634.641,1259.66
634.773,1256.08
634.905,1260.56
635.036,1259.14
635.168,1256.18
635.3,1262.0
635.432,1265.66
635.564,1267.44
635.696,1271.74
635.828,1278.52
635.96,1283.38
636.092,1286.3
636.224,1295.58
636.356,1300.68
636.488,1315.64
636.62,1315.58
636.751,1309.54
636.883,1304.16
637.015,1293.0
637.147,1286.18
637.279,1282.12
637.411,1275.8
637.543,1280.04
637.675,1277.74
637.807,1273.42
637.938,1275.4
638.07,1276.7
638.202,1274.64
638.334,1276.52
638.466,1272.56
638.598,1274.92
638.73,1273.0
638.862,1273.52
638.993,1275.08
639.125,1277.62
639.257,1279.54
639.389,1280.14
639.521,1277.0
639.653,1277.52
639.784,1280.08
639.916,1275.18
640.048,1281.88
640.18,1278.22
640.312,1279.8
640.443,1280.5
640.575,1280.66
640.707,1281.16
640.839,1283.66
640.971,1282.34
641.103,1283.08
641.234,1284.22
641.366,1283.66
641.498,1286.8
641.63,1284.44
641.761,1285.84
641.893,1290.7
642.025,1288.06
642.157,1289.78
642.289,1290.06
642.42,1288.92
642.552,1285.82
642.684,1285.9
642.816,1291.24
642.947,1285.58
643.079,1287.16
643.211,1282.36
643.343,1282.28
643.474,1280.44
643.606,1281.2
643.738,1280.88
643.87,1283.02
644.001,1279.58
644.133,1279.42
644.265,1279.18
644.397,1277.96
644.528,1282.42
644.66,1282.52
644.792,1279.32
644.923,1276.04
645.055,1280.46
645.187,1279.3
645.319,1279.8
645.45,1280.38
645.582,1281.02
645.714,1279.74
645.845,1279.9
645.977,1278.38
646.109,1283.42
646.24,1282.7
646.372,1283.06
646.504,1283.78
646.635,1284.44
646.767,1285.38
646.899,1287.2
647.03,1284.82
647.162,1287.9
647.294,1288.64
647.425,1290.36
647.557,1287.24
647.689,1287.68
647.82,1289.16
647.952,1288.04
648.084,1286.48
648.215,1286.8
648.347,1286.6
648.479,1287.54
648.61,1288.64
648.742,1285.4
648.874,1284.46
649.005,1289.32
649.137,1283.1
649.268,1288.72
649.4,1287.9
649.532,1285.5
649.663,1284.66
649.795,1285.74
649.927,1284.7
650.058,1291.02
650.19,1283.36
650.321,1284.06
650.453,1282.44
650.585,1285.54
650.716,1283.5
650.848,1283.76
650.979,1283.32
651.111,1288.54
651.243,1283.42
651.374,1284.12
651.506,1289.98
651.637,1288.76
651.769,1286.92
651.9,1284.72
652.032,1289.4
652.164,1288.26
652.295,1286.5
652.427,1285.72
652.558,1287.96
652.69,1287.22
652.821,1288.72
652.953,1291.76
653.084,1287.36
653.216,1288.82
653.348,1288.78
653.479,1287.48
653.611,1292.88
653.742,1287.24
653.874,1290.48
654.005,1293.56
654.137,1296.98
654.268,1289.6
654.4,1290.76
654.531,1289.74
654.663,1289.02
654.794,1288.52
654.926,1290.62
655.057,1289.0
655.189,1289.04
655.32,1289.6
655.452,1290.68
655.583,1288.02
655.715,1289.84
655.846,1290.96
655.978,1290.18
656.109,1291.58
656.241,1290.32
656.372,1291.9
656.504,1290.06
656.635,1286.5
656.767,1293.86
656.898,1292.14
657.03,1293.12
657.161,1291.36
657.293,1292.62
657.424,1291.96
657.556,1293.24
657.687,1290.64
657.819,1290.44
657.95,1290.84
658.082,1295.86
658.213,1289.46
658.345,1294.56
658.476,1294.24
658.607,1293.34
658.739,1292.02
658.87,1292.96
659.002,1290.44
659.133,1294.96
659.265,1296.06
659.396,1296.4
659.528,1294.72
659.659,1290.7
659.79,1295.6
659.922,1296.42
660.053,1298.12
660.185,1292.7
660.316,1291.66
660.448,1291.8
660.579,1290.7
660.71,1293.36
660.842,1287.84
660.973,1289.14
661.105,1288.34
661.236,1285.34
661.367,1287.8
661.499,1287.36
661.63,1287.3
661.762,1287.42
661.893,1286.18
662.024,1284.6
662.156,1283.56
662.287,1282.58
662.419,1286.28
662.55,1285.34
662.681,1284.64
662.813,1288.68
662.944,1285.4
663.076,1283.74
