cm-1,A
4000.0,0.0002
3999.0,0.0003
3998.0,0.0003
3997.0,0.0004
3996.0,0.0004
3995.0,0.0004
3994.0,0.0004
3993.0,0.0003
3992.0,0.0003
3991.0,0.0002
3990.0,0.0002
3989.0,0.0001
3988.0,0.0001
3987.0,0.0
3986.0,0.0
3985.0,0.0001
3984.0,0.0001
3983.0,0.0001
3982.0,0.0001
3981.0,0.0001
3980.0,0.0001
3979.0,0.0002
3978.0,0.0003
3977.0,0.0004
3976.0,0.0004
3975.0,0.0005
3974.0,0.0004
3973.0,0.0004
3972.0,0.0003
3971.0,0.0003
3970.0,0.0003
3969.0,0.0003
3968.0,0.0003
3967.0,0.0003
3966.0,0.0003
3965.0,0.0004
3964.0,0.0004
3963.0,0.0005
3962.0,0.0005
3961.0,0.0005
3960.0,0.0005
3959.0,0.0004
3958.0,0.0004
3957.0,0.0004
3956.0,0.0004
3955.0,0.0004
3954.0,0.0004
3953.0,0.0005
3952.0,0.0005
3951.0,0.0006
3950.0,0.0005
3949.0,0.0005
3948.0,0.0004
3947.0,0.0004
3946.0,0.0005
3945.0,0.0005
3944.0,0.0005
3943.0,0.0005
3942.0,0.0004
3941.0,0.0003
3940.0,0.0003
3939.0,0.0004
3938.0,0.0005
3937.0,0.0005
3936.0,0.0005
3935.0,0.0005
3934.0,0.0004
3933.0,0.0004
3932.0,0.0005
3931.0,0.0005
3930.0,0.0005
3929.0,0.0005
3928.0,0.0005
3927.0,0.0005
3926.0,0.0005
3925.0,0.0005
3924.0,0.0005
3923.0,0.0006
3922.0,0.0006
3921.0,0.0006
3920.0,0.0005
3919.0,0.0003
3918.0,0.0002
3917.0,0.0002
3916.0,0.0003
3915.0,0.0004
3914.0,0.0005
3913.0,0.0006
3912.0,0.0006
3911.0,0.0007
3910.0,0.0006
3909.0,0.0006
3908.0,0.0005
3907.0,0.0004
3906.0,0.0003
3905.0,0.0002
3904.0,0.0002
3903.0,0.0002
3902.0,0.0002
3901.0,0.0003
3900.0,0.0003
3899.0,0.0003
3898.0,0.0004
3897.0,0.0004
3896.0,0.0004
3895.0,0.0004
3894.0,0.0004
3893.0,0.0004
3892.0,0.0005
3891.0,0.0005
3890.0,0.0005
3889.0,0.0005
3888.0,0.0004
3887.0,0.0003
3886.0,0.0002
3885.0,0.0003
3884.0,0.0004
3883.0,0.0005
3882.0,0.0006
3881.0,0.0006
3880.0,0.0006
3879.0,0.0005
3878.0,0.0004
3877.0,0.0003
3876.0,0.0003
3875.0,0.0004
3874.0,0.0005
3873.0,0.0005
3872.0,0.0005
3871.0,0.0005
3870.0,0.0004
3869.0,0.0004
3868.0,0.0005
3867.0,0.0006
3866.0,0.0007
3865.0,0.0007
3864.0,0.0007
3863.0,0.0006
3862.0,0.0005
3861.0,0.0003
3860.0,0.0003
3859.0,0.0003
3858.0,0.0004
3857.0,0.0005
3856.0,0.0005
3855.0,0.0005
3854.0,0.0005
3853.0,0.0005
3852.0,0.0005
3851.0,0.0006
3850.0,0.0006
3849.0,0.0006
3848.0,0.0006
3847.0,0.0006
3846.0,0.0006
3845.0,0.0005
3844.0,0.0004
3843.0,0.0003
3842.0,0.0002
3841.0,0.0002
3840.0,0.0002
3839.0,0.0003
3838.0,0.0004
3837.0,0.0004
3836.0,0.0004
3835.0,0.0004
3834.0,0.0004
3833.0,0.0005
3832.0,0.0005
3831.0,0.0005
3830.0,0.0005
3829.0,0.0005
3828.0,0.0005
3827.0,0.0006
3826.0,0.0007
3825.0,0.0007
3824.0,0.0006
3823.0,0.0005
3822.0,0.0005
3821.0,0.0006
3820.0,0.0006
3819.0,0.0007
3818.0,0.0006
3817.0,0.0006
3816.0,0.0005
3815.0,0.0006
3814.0,0.0006
3813.0,0.0006
3812.0,0.0005
3811.0,0.0003
3810.0,0.0002
3809.0,0.0001
3808.0,0.0002
3807.0,0.0003
3806.0,0.0005
3805.0,0.0006
3804.0,0.0006
3803.0,0.0007
3802.0,0.0008
3801.0,0.0008
3800.0,0.0008
3799.0,0.0006
3798.0,0.0005
3797.0,0.0004
3796.0,0.0004
3795.0,0.0004
3794.0,0.0005
3793.0,0.0005
3792.0,0.0005
3791.0,0.0004
3790.0,0.0003
3789.0,0.0003
3788.0,0.0003
3787.0,0.0004
3786.0,0.0005
3785.0,0.0006
3784.0,0.0006
3783.0,0.0006
3782.0,0.0006
3781.0,0.0006
3780.0,0.0006
3779.0,0.0005
3778.0,0.0005
3777.0,0.0005
3776.0,0.0005
3775.0,0.0005
3774.0,0.0006
3773.0,0.0006
3772.0,0.0007
3771.0,0.0008
3770.0,0.0008
3769.0,0.0008
3768.0,0.0007
3767.0,0.0007
3766.0,0.0006
3765.0,0.0006
3764.0,0.0007
3763.0,0.0007
3762.0,0.0008
3761.0,0.0007
3760.0,0.0007
3759.0,0.0007
3758.0,0.0007
3757.0,0.0007
3756.0,0.0007
3755.0,0.0007
3754.0,0.0007
3753.0,0.0007
3752.0,0.0008
3751.0,0.0007
3750.0,0.0007
3749.0,0.0006
3748.0,0.0007
3747.0,0.0007
3746.0,0.0007
3745.0,0.0007
3744.0,0.0007
3743.0,0.0008
3742.0,0.0009
3741.0,0.0009
3740.0,0.0009
3739.0,0.0009
3738.0,0.0009
3737.0,0.001
3736.0,0.0011
3735.0,0.0011
3734.0,0.001
3733.0,0.0008
3732.0,0.0007
3731.0,0.0006
3730.0,0.0005
3729.0,0.0005
3728.0,0.0004
3727.0,0.0003
3726.0,0.0003
3725.0,0.0003
3724.0,0.0003
3723.0,0.0004
3722.0,0.0006
3721.0,0.0007
3720.0,0.0007
3719.0,0.0007
3718.0,0.0007
3717.0,0.0007
3716.0,0.0007
3715.0,0.0006
3714.0,0.0007
3713.0,0.0008
3712.0,0.001
3711.0,0.0011
3710.0,0.001
3709.0,0.0008
3708.0,0.0007
3707.0,0.0007
3706.0,0.0006
3705.0,0.0005
3704.0,0.0004
3703.0,0.0003
3702.0,0.0003
3701.0,0.0004
3700.0,0.0005
3699.0,0.0005
3698.0,0.0006
3697.0,0.0006
3696.0,0.0007
3695.0,0.0007
3694.0,0.0007
3693.0,0.0007
3692.0,0.0007
3691.0,0.0007
3690.0,0.0007
3689.0,0.0007
3688.0,0.0007
3687.0,0.0007
3686.0,0.0008
3685.0,0.0008
3684.0,0.0009
3683.0,0.001
3682.0,0.0011
3681.0,0.0012
3680.0,0.0012
3679.0,0.0011
3678.0,0.001
3677.0,0.0009
3676.0,0.001
3675.0,0.0009
3674.0,0.0009
3673.0,0.0008
3672.0,0.0007
3671.0,0.0007
3670.0,0.0008
3669.0,0.0009
3668.0,0.001
3667.0,0.0011
3666.0,0.0011
3665.0,0.001
3664.0,0.0009
3663.0,0.0008
3662.0,0.0008
3661.0,0.0008
3660.0,0.0008
3659.0,0.0008
3658.0,0.0008
3657.0,0.0009
3656.0,0.0009
3655.0,0.001
3654.0,0.0011
3653.0,0.0011
3652.0,0.0011
3651.0,0.0012
3650.0,0.0013
3649.0,0.0013
3648.0,0.0013
3647.0,0.0013
3646.0,0.0014
3645.0,0.0014
3644.0,0.0015
3643.0,0.0015
3642.0,0.0014
3641.0,0.0014
3640.0,0.0014
3639.0,0.0014
3638.0,0.0014
3637.0,0.0015
3636.0,0.0015
3635.0,0.0015
3634.0,0.0015
3633.0,0.0015
3632.0,0.0015
3631.0,0.0015
3630.0,0.0016
3629.0,0.0018
3628.0,0.002
3627.0,0.002
3626.0,0.0021
3625.0,0.0021
3624.0,0.002
3623.0,0.0018
3622.0,0.0016
3621.0,0.0014
3620.0,0.0014
3619.0,0.0016
3618.0,0.0018
3617.0,0.002
3616.0,0.0021
3615.0,0.0021
3614.0,0.0022
3613.0,0.0022
3612.0,0.0022
3611.0,0.0022
3610.0,0.0023
3609.0,0.0023
3608.0,0.0024
3607.0,0.0024
3606.0,0.0023
3605.0,0.0023
3604.0,0.0023
3603.0,0.0024
3602.0,0.0025
3601.0,0.0025
3600.0,0.0026
3599.0,0.0027
3598.0,0.0026
3597.0,0.0026
3596.0,0.0027
3595.0,0.0027
3594.0,0.0028
3593.0,0.0028
3592.0,0.0028
3591.0,0.0028
3590.0,0.0027
3589.0,0.0027
3588.0,0.0027
3587.0,0.0027
3586.0,0.0027
3585.0,0.0028
3584.0,0.0029
3583.0,0.003
3582.0,0.003
3581.0,0.0031
3580.0,0.0032
3579.0,0.0033
3578.0,0.0034
3577.0,0.0035
3576.0,0.0035
3575.0,0.0035
3574.0,0.0035
3573.0,0.0035
3572.0,0.0035
3571.0,0.0036
3570.0,0.0038
3569.0,0.004
3568.0,0.0043
3567.0,0.0045
3566.0,0.0046
3565.0,0.0046
3564.0,0.0045
3563.0,0.0043
3562.0,0.0043
3561.0,0.0043
3560.0,0.0044
3559.0,0.0046
3558.0,0.0047
3557.0,0.0047
3556.0,0.0047
3555.0,0.0047
3554.0,0.0048
3553.0,0.0049
3552.0,0.0051
3551.0,0.0051
3550.0,0.0052
3549.0,0.0052
3548.0,0.0052
3547.0,0.0053
3546.0,0.0053
3545.0,0.0053
3544.0,0.0053
3543.0,0.0054
3542.0,0.0054
3541.0,0.0055
3540.0,0.0056
3539.0,0.0056
3538.0,0.0057
3537.0,0.0057
3536.0,0.0058
3535.0,0.0059
3534.0,0.006
3533.0,0.0061
3532.0,0.0062
3531.0,0.0063
3530.0,0.0064
3529.0,0.0065
3528.0,0.0066
3527.0,0.0066
3526.0,0.0066
3525.0,0.0066
3524.0,0.0065
3523.0,0.0065
3522.0,0.0065
3521.0,0.0066
3520.0,0.0066
3519.0,0.0067
3518.0,0.0067
3517.0,0.0068
3516.0,0.0068
3515.0,0.0069
3514.0,0.007
3513.0,0.0071
3512.0,0.0071
3511.0,0.0072
3510.0,0.0073
3509.0,0.0073
3508.0,0.0073
3507.0,0.0073
3506.0,0.0073
3505.0,0.0074
3504.0,0.0075
3503.0,0.0076
3502.0,0.0076
3501.0,0.0076
3500.0,0.0076
3499.0,0.0075
3498.0,0.0074
3497.0,0.0073
3496.0,0.0072
3495.0,0.0072
3494.0,0.0071
3493.0,0.0072
3492.0,0.0072
3491.0,0.0073
3490.0,0.0075
3489.0,0.0076
3488.0,0.0076
3487.0,0.0075
3486.0,0.0074
3485.0,0.0074
3484.0,0.0074
3483.0,0.0074
3482.0,0.0075
3481.0,0.0075
3480.0,0.0075
3479.0,0.0074
3478.0,0.0074
3477.0,0.0074
3476.0,0.0074
3475.0,0.0074
3474.0,0.0073
3473.0,0.0072
3472.0,0.007
3471.0,0.0069
3470.0,0.0069
3469.0,0.0069
3468.0,0.007
3467.0,0.0069
3466.0,0.0068
3465.0,0.0067
3464.0,0.0066
3463.0,0.0066
3462.0,0.0066
3461.0,0.0066
3460.0,0.0066
3459.0,0.0065
3458.0,0.0064
3457.0,0.0063
3456.0,0.0063
3455.0,0.0062
3454.0,0.0062
3453.0,0.0062
3452.0,0.0063
3451.0,0.0064
3450.0,0.0065
3449.0,0.0066
3448.0,0.0066
3447.0,0.0065
3446.0,0.0065
3445.0,0.0065
3444.0,0.0066
3443.0,0.0066
3442.0,0.0067
3441.0,0.0067
3440.0,0.0067
3439.0,0.0066
3438.0,0.0066
3437.0,0.0067
3436.0,0.0067
3435.0,0.0067
3434.0,0.0067
3433.0,0.0068
3432.0,0.0068
3431.0,0.0069
3430.0,0.007
3429.0,0.0071
3428.0,0.0072
3427.0,0.0072
3426.0,0.0073
3425.0,0.0074
3424.0,0.0076
3423.0,0.0076
3422.0,0.0076
3421.0,0.0076
3420.0,0.0077
3419.0,0.0078
3418.0,0.008
3417.0,0.008
3416.0,0.0081
3415.0,0.0082
3414.0,0.0083
3413.0,0.0084
3412.0,0.0086
3411.0,0.0086
3410.0,0.0086
3409.0,0.0086
3408.0,0.0087
3407.0,0.0089
3406.0,0.009
3405.0,0.0092
3404.0,0.0094
3403.0,0.0094
3402.0,0.0095
3401.0,0.0096
3400.0,0.0096
3399.0,0.0096
3398.0,0.0096
3397.0,0.0095
3396.0,0.0095
3395.0,0.0094
3394.0,0.0094
3393.0,0.0094
3392.0,0.0094
3391.0,0.0093
3390.0,0.0091
3389.0,0.0088
3388.0,0.0085
3387.0,0.0083
3386.0,0.0081
3385.0,0.008
3384.0,0.0079
3383.0,0.0078
3382.0,0.0078
3381.0,0.0078
3380.0,0.0077
3379.0,0.0076
3378.0,0.0076
3377.0,0.0075
3376.0,0.0074
3375.0,0.0073
3374.0,0.0072
3373.0,0.007
3372.0,0.0069
3371.0,0.0067
3370.0,0.0066
3369.0,0.0065
3368.0,0.0064
3367.0,0.0064
3366.0,0.0063
3365.0,0.0063
3364.0,0.0062
3363.0,0.0061
3362.0,0.0061
3361.0,0.006
3360.0,0.006
3359.0,0.0059
3358.0,0.0059
3357.0,0.0058
3356.0,0.0058
3355.0,0.0058
3354.0,0.0058
3353.0,0.0059
3352.0,0.0059
3351.0,0.0058
3350.0,0.0057
3349.0,0.0056
3348.0,0.0055
3347.0,0.0056
3346.0,0.0057
3345.0,0.0057
3344.0,0.0057
3343.0,0.0055
3342.0,0.0054
3341.0,0.0052
3340.0,0.0052
3339.0,0.0052
3338.0,0.0052
3337.0,0.0053
3336.0,0.0053
3335.0,0.0053
3334.0,0.0052
3333.0,0.0051
3332.0,0.0051
3331.0,0.005
3330.0,0.005
3329.0,0.005
3328.0,0.0051
3327.0,0.0051
3326.0,0.0051
3325.0,0.0051
3324.0,0.0051
3323.0,0.0051
3322.0,0.0051
3321.0,0.0051
3320.0,0.005
3319.0,0.0049
3318.0,0.0049
3317.0,0.0048
3316.0,0.0048
3315.0,0.0047
3314.0,0.0047
3313.0,0.0047
3312.0,0.0047
3311.0,0.0048
3310.0,0.0048
3309.0,0.0048
3308.0,0.0048
3307.0,0.0048
3306.0,0.0049
3305.0,0.0049
3304.0,0.0049
3303.0,0.0047
3302.0,0.0045
3301.0,0.0043
3300.0,0.0042
3299.0,0.0041
3298.0,0.0042
3297.0,0.0043
3296.0,0.0044
3295.0,0.0044
3294.0,0.0043
3293.0,0.0043
3292.0,0.0044
3291.0,0.0044
3290.0,0.0045
3289.0,0.0045
3288.0,0.0045
3287.0,0.0045
3286.0,0.0045
3285.0,0.0044
3284.0,0.0044
3283.0,0.0044
3282.0,0.0043
3281.0,0.0043
3280.0,0.0042
3279.0,0.0042
3278.0,0.0042
3277.0,0.0042
3276.0,0.0042
3275.0,0.0042
3274.0,0.0041
3273.0,0.0041
3272.0,0.004
3271.0,0.004
3270.0,0.0039
3269.0,0.0039
3268.0,0.0039
3267.0,0.004
3266.0,0.0041
3265.0,0.0041
3264.0,0.0041
3263.0,0.0041
3262.0,0.0041
3261.0,0.004
3260.0,0.0039
3259.0,0.0039
3258.0,0.0039
3257.0,0.0038
3256.0,0.0038
3255.0,0.0038
3254.0,0.0039
3253.0,0.0039
3252.0,0.0039
3251.0,0.0039
3250.0,0.004
3249.0,0.004
3248.0,0.004
3247.0,0.004
3246.0,0.0039
3245.0,0.0039
3244.0,0.0039
3243.0,0.004
3242.0,0.004
3241.0,0.0039
3240.0,0.0038
3239.0,0.0038
3238.0,0.0038
3237.0,0.0039
3236.0,0.0039
3235.0,0.0038
3234.0,0.0037
3233.0,0.0035
3232.0,0.0034
3231.0,0.0033
3230.0,0.0033
3229.0,0.0034
3228.0,0.0035
3227.0,0.0036
3226.0,0.0036
3225.0,0.0036
3224.0,0.0036
3223.0,0.0035
3222.0,0.0034
3221.0,0.0033
3220.0,0.0032
3219.0,0.0031
3218.0,0.0031
3217.0,0.0031
3216.0,0.0032
3215.0,0.0033
3214.0,0.0033
3213.0,0.0033
3212.0,0.0033
3211.0,0.0033
3210.0,0.0032
3209.0,0.0031
3208.0,0.003
3207.0,0.003
3206.0,0.003
3205.0,0.003
3204.0,0.003
3203.0,0.003
3202.0,0.0031
3201.0,0.0032
3200.0,0.0033
3199.0,0.0034
3198.0,0.0034
3197.0,0.0033
3196.0,0.0032
3195.0,0.0031
3194.0,0.003
3193.0,0.0029
3192.0,0.0028
3191.0,0.0028
3190.0,0.0027
3189.0,0.0027
3188.0,0.0027
3187.0,0.0028
3186.0,0.0029
3185.0,0.003
3184.0,0.0031
3183.0,0.0031
3182.0,0.0031
3181.0,0.003
3180.0,0.0029
3179.0,0.0029
3178.0,0.0028
3177.0,0.0028
3176.0,0.0027
3175.0,0.0027
3174.0,0.0026
3173.0,0.0026
3172.0,0.0026
3171.0,0.0026
3170.0,0.0027
3169.0,0.0027
3168.0,0.0027
3167.0,0.0026
3166.0,0.0025
3165.0,0.0024
3164.0,0.0023
3163.0,0.0023
3162.0,0.0023
3161.0,0.0023
3160.0,0.0024
3159.0,0.0025
3158.0,0.0025
3157.0,0.0024
3156.0,0.0023
3155.0,0.0023
3154.0,0.0023
3153.0,0.0024
3152.0,0.0024
3151.0,0.0024
3150.0,0.0023
3149.0,0.0022
3148.0,0.0022
3147.0,0.0023
3146.0,0.0023
3145.0,0.0022
3144.0,0.0022
3143.0,0.0021
3142.0,0.0022
3141.0,0.0023
3140.0,0.0024
3139.0,0.0023
3138.0,0.0023
3137.0,0.0022
3136.0,0.0021
3135.0,0.0022
3134.0,0.0022
3133.0,0.0022
3132.0,0.0021
3131.0,0.0021
3130.0,0.002
3129.0,0.002
3128.0,0.002
3127.0,0.0019
3126.0,0.0019
3125.0,0.0019
3124.0,0.002
3123.0,0.0021
3122.0,0.0021
3121.0,0.0021
3120.0,0.002
3119.0,0.002
3118.0,0.0021
3117.0,0.0021
3116.0,0.0021
3115.0,0.0021
3114.0,0.0021
3113.0,0.0021
3112.0,0.0021
3111.0,0.002
3110.0,0.0019
3109.0,0.0018
3108.0,0.0019
3107.0,0.0019
3106.0,0.002
3105.0,0.002
3104.0,0.002
3103.0,0.002
3102.0,0.002
3101.0,0.0019
3100.0,0.0019
3099.0,0.0019
3098.0,0.0018
3097.0,0.0018
3096.0,0.0018
3095.0,0.0017
3094.0,0.0017
3093.0,0.0017
3092.0,0.0017
3091.0,0.0017
3090.0,0.0016
3089.0,0.0016
3088.0,0.0015
3087.0,0.0015
3086.0,0.0014
3085.0,0.0014
3084.0,0.0014
3083.0,0.0014
3082.0,0.0014
3081.0,0.0015
3080.0,0.0014
3079.0,0.0014
3078.0,0.0014
3077.0,0.0015
3076.0,0.0015
3075.0,0.0015
3074.0,0.0016
3073.0,0.0016
3072.0,0.0016
3071.0,0.0016
3070.0,0.0016
3069.0,0.0016
3068.0,0.0015
3067.0,0.0015
3066.0,0.0015
3065.0,0.0014
3064.0,0.0014
3063.0,0.0014
3062.0,0.0014
3061.0,0.0013
3060.0,0.0013
3059.0,0.0013
3058.0,0.0012
3057.0,0.0012
3056.0,0.0012
3055.0,0.0013
3054.0,0.0013
3053.0,0.0014
3052.0,0.0014
3051.0,0.0013
3050.0,0.0013
3049.0,0.0012
3048.0,0.0011
3047.0,0.0011
3046.0,0.0011
3045.0,0.0011
3044.0,0.0011
3043.0,0.0012
3042.0,0.0012
3041.0,0.0013
3040.0,0.0013
3039.0,0.0012
3038.0,0.0012
3037.0,0.0012
3036.0,0.0012
3035.0,0.0012
3034.0,0.0011
3033.0,0.0011
3032.0,0.001
3031.0,0.001
3030.0,0.0009
3029.0,0.001
3028.0,0.001
3027.0,0.001
3026.0,0.0009
3025.0,0.0009
3024.0,0.0008
3023.0,0.0007
3022.0,0.0006
3021.0,0.0006
3020.0,0.0006
3019.0,0.0007
3018.0,0.0008
3017.0,0.0009
3016.0,0.001
3015.0,0.0011
3014.0,0.0012
3013.0,0.0012
3012.0,0.0012
3011.0,0.0011
3010.0,0.0009
3009.0,0.0008
3008.0,0.0007
3007.0,0.0007
3006.0,0.0008
3005.0,0.0009
3004.0,0.0009
3003.0,0.0009
3002.0,0.0009
3001.0,0.0008
3000.0,0.0008
2999.0,0.0008
2998.0,0.0007
2997.0,0.0007
2996.0,0.0006
2995.0,0.0006
2994.0,0.0006
2993.0,0.0006
2992.0,0.0006
2991.0,0.0006
2990.0,0.0007
2989.0,0.0007
2988.0,0.0008
2987.0,0.0009
2986.0,0.001
2985.0,0.0011
2984.0,0.0012
2983.0,0.0013
2982.0,0.0014
2981.0,0.0015
2980.0,0.0017
2979.0,0.0018
2978.0,0.002
2977.0,0.0021
2976.0,0.0023
2975.0,0.0025
2974.0,0.0028
2973.0,0.0032
2972.0,0.0038
2971.0,0.0043
2970.0,0.0049
2969.0,0.0055
2968.0,0.0061
2967.0,0.0066
2966.0,0.0072
2965.0,0.0078
2964.0,0.0084
2963.0,0.0091
2962.0,0.0096
2961.0,0.01
2960.0,0.0104
2959.0,0.0108
2958.0,0.0111
2957.0,0.0115
2956.0,0.012
2955.0,0.0125
2954.0,0.013
2953.0,0.0136
2952.0,0.0141
2951.0,0.0146
2950.0,0.0149
2949.0,0.015
2948.0,0.0147
2947.0,0.0141
2946.0,0.0133
2945.0,0.0122
2944.0,0.0112
2943.0,0.0104
2942.0,0.0096
2941.0,0.0091
2940.0,0.0088
2939.0,0.0085
2938.0,0.0084
2937.0,0.0084
2936.0,0.0085
2935.0,0.0088
2934.0,0.0093
2933.0,0.0098
2932.0,0.0105
2931.0,0.0112
2930.0,0.012
2929.0,0.0127
2928.0,0.0135
2927.0,0.0142
2926.0,0.015
2925.0,0.0157
2924.0,0.0165
2923.0,0.0172
2922.0,0.0179
2921.0,0.0185
2920.0,0.0192
2919.0,0.0197
2918.0,0.02
2917.0,0.0201
2916.0,0.02
2915.0,0.0197
2914.0,0.0191
2913.0,0.0185
2912.0,0.0179
2911.0,0.0174
2910.0,0.0168
2909.0,0.0163
2908.0,0.0159
2907.0,0.0155
2906.0,0.0152
2905.0,0.0149
2904.0,0.0146
2903.0,0.0141
2902.0,0.0136
2901.0,0.0131
2900.0,0.0126
2899.0,0.0122
2898.0,0.0118
2897.0,0.0114
2896.0,0.0111
2895.0,0.0108
2894.0,0.0106
2893.0,0.0105
2892.0,0.0104
2891.0,0.0102
2890.0,0.0101
2889.0,0.01
2888.0,0.0099
2887.0,0.0099
2886.0,0.01
2885.0,0.0101
2884.0,0.0102
2883.0,0.0104
2882.0,0.0106
2881.0,0.0108
2880.0,0.011
2879.0,0.0111
2878.0,0.0112
2877.0,0.0113
2876.0,0.0113
2875.0,0.0114
2874.0,0.0114
2873.0,0.0114
2872.0,0.0115
2871.0,0.0117
2870.0,0.0119
2869.0,0.0121
2868.0,0.0123
2867.0,0.0123
2866.0,0.0122
2865.0,0.0119
2864.0,0.0114
2863.0,0.0108
2862.0,0.0102
2861.0,0.0096
2860.0,0.009
2859.0,0.0086
2858.0,0.0082
2857.0,0.0079
2856.0,0.0076
2855.0,0.0074
2854.0,0.0073
2853.0,0.0072
2852.0,0.0072
2851.0,0.0072
2850.0,0.0072
2849.0,0.0073
2848.0,0.0075
2847.0,0.0077
2846.0,0.0081
2845.0,0.0085
2844.0,0.0091
2843.0,0.0096
2842.0,0.0102
2841.0,0.0107
2840.0,0.0112
2839.0,0.0116
2838.0,0.0117
2837.0,0.0117
2836.0,0.0115
2835.0,0.011
2834.0,0.0105
2833.0,0.0098
2832.0,0.0093
2831.0,0.0087
2830.0,0.0082
2829.0,0.0078
2828.0,0.0074
2827.0,0.0071
2826.0,0.0068
2825.0,0.0066
2824.0,0.0064
2823.0,0.0062
2822.0,0.006
2821.0,0.0058
2820.0,0.0057
2819.0,0.0056
2818.0,0.0055
2817.0,0.0055
2816.0,0.0054
2815.0,0.0054
2814.0,0.0053
2813.0,0.0053
2812.0,0.0052
2811.0,0.0051
2810.0,0.005
2809.0,0.005
2808.0,0.0049
2807.0,0.0047
2806.0,0.0047
2805.0,0.0046
2804.0,0.0046
2803.0,0.0046
2802.0,0.0045
2801.0,0.0044
2800.0,0.0043
2799.0,0.0043
2798.0,0.0043
2797.0,0.0043
2796.0,0.0043
2795.0,0.0043
2794.0,0.0043
2793.0,0.0042
2792.0,0.0042
2791.0,0.0042
2790.0,0.0042
2789.0,0.0042
2788.0,0.0041
2787.0,0.0041
2786.0,0.0041
2785.0,0.0041
2784.0,0.0041
2783.0,0.0041
2782.0,0.004
2781.0,0.0039
2780.0,0.0038
2779.0,0.0038
2778.0,0.0038
2777.0,0.0038
2776.0,0.0037
2775.0,0.0037
2774.0,0.0036
2773.0,0.0036
2772.0,0.0036
2771.0,0.0036
2770.0,0.0035
2769.0,0.0035
2768.0,0.0035
2767.0,0.0035
2766.0,0.0035
2765.0,0.0034
2764.0,0.0034
2763.0,0.0034
2762.0,0.0033
2761.0,0.0033
2760.0,0.0034
2759.0,0.0034
2758.0,0.0034
2757.0,0.0034
2756.0,0.0034
2755.0,0.0033
2754.0,0.0033
2753.0,0.0033
2752.0,0.0033
2751.0,0.0033
2750.0,0.0034
2749.0,0.0034
2748.0,0.0034
2747.0,0.0034
2746.0,0.0034
2745.0,0.0034
2744.0,0.0034
2743.0,0.0033
2742.0,0.0033
2741.0,0.0033
2740.0,0.0034
2739.0,0.0035
2738.0,0.0035
2737.0,0.0035
2736.0,0.0034
2735.0,0.0034
2734.0,0.0034
2733.0,0.0034
2732.0,0.0034
2731.0,0.0034
2730.0,0.0034
2729.0,0.0034
2728.0,0.0034
2727.0,0.0034
2726.0,0.0034
2725.0,0.0035
2724.0,0.0035
2723.0,0.0035
2722.0,0.0035
2721.0,0.0035
2720.0,0.0035
2719.0,0.0035
2718.0,0.0034
2717.0,0.0035
2716.0,0.0035
2715.0,0.0035
2714.0,0.0035
2713.0,0.0035
2712.0,0.0034
2711.0,0.0033
2710.0,0.0033
2709.0,0.0032
2708.0,0.0032
2707.0,0.0032
2706.0,0.0032
2705.0,0.0032
2704.0,0.0031
2703.0,0.0031
2702.0,0.0031
2701.0,0.0031
2700.0,0.0032
2699.0,0.0032
2698.0,0.0032
2697.0,0.0032
2696.0,0.0032
2695.0,0.0032
2694.0,0.0032
2693.0,0.0032
2692.0,0.0031
2691.0,0.0031
2690.0,0.003
2689.0,0.003
2688.0,0.003
2687.0,0.003
2686.0,0.003
2685.0,0.003
2684.0,0.003
2683.0,0.003
2682.0,0.0029
2681.0,0.0029
2680.0,0.0029
2679.0,0.0029
2678.0,0.0029
2677.0,0.003
2676.0,0.003
2675.0,0.0031
2674.0,0.0031
2673.0,0.0031
2672.0,0.0031
2671.0,0.0031
2670.0,0.0031
2669.0,0.0031
2668.0,0.0031
2667.0,0.0031
2666.0,0.003
2665.0,0.003
2664.0,0.003
2663.0,0.003
2662.0,0.003
2661.0,0.003
2660.0,0.0029
2659.0,0.0029
2658.0,0.0029
2657.0,0.0028
2656.0,0.0028
2655.0,0.0028
2654.0,0.0028
2653.0,0.0028
2652.0,0.0028
2651.0,0.0029
2650.0,0.0029
2649.0,0.0029
2648.0,0.0029
2647.0,0.0029
2646.0,0.0028
2645.0,0.0028
2644.0,0.0028
2643.0,0.0028
2642.0,0.0028
2641.0,0.0028
2640.0,0.0027
2639.0,0.0027
2638.0,0.0027
2637.0,0.0027
2636.0,0.0026
2635.0,0.0026
2634.0,0.0026
2633.0,0.0027
2632.0,0.0027
2631.0,0.0028
2630.0,0.0028
2629.0,0.0028
2628.0,0.0028
2627.0,0.0028
2626.0,0.0028
2625.0,0.0028
2624.0,0.0028
2623.0,0.0028
2622.0,0.0028
2621.0,0.0028
2620.0,0.0028
2619.0,0.0028
2618.0,0.0028
2617.0,0.0028
2616.0,0.0029
2615.0,0.0029
2614.0,0.0029
2613.0,0.0029
2612.0,0.0029
2611.0,0.0028
2610.0,0.0027
2609.0,0.0027
2608.0,0.0027
2607.0,0.0027
2606.0,0.0027
2605.0,0.0027
2604.0,0.0026
2603.0,0.0026
2602.0,0.0027
2601.0,0.0027
2600.0,0.0028
2599.0,0.0028
2598.0,0.0027
2597.0,0.0027
2596.0,0.0026
2595.0,0.0026
2594.0,0.0026
2593.0,0.0027
2592.0,0.0027
2591.0,0.0028
2590.0,0.0028
2589.0,0.0029
2588.0,0.0029
2587.0,0.0029
2586.0,0.0029
2585.0,0.0029
2584.0,0.0029
2583.0,0.0029
2582.0,0.0029
2581.0,0.0029
2580.0,0.0028
2579.0,0.0028
2578.0,0.0028
2577.0,0.0027
2576.0,0.0027
2575.0,0.0027
2574.0,0.0028
2573.0,0.0028
2572.0,0.0027
2571.0,0.0027
2570.0,0.0027
2569.0,0.0027
2568.0,0.0027
2567.0,0.0027
2566.0,0.0027
2565.0,0.0027
2564.0,0.0027
2563.0,0.0027
2562.0,0.0026
2561.0,0.0026
2560.0,0.0026
2559.0,0.0026
2558.0,0.0026
2557.0,0.0027
2556.0,0.0027
2555.0,0.0027
2554.0,0.0027
2553.0,0.0026
2552.0,0.0026
2551.0,0.0027
2550.0,0.0027
2549.0,0.0027
2548.0,0.0027
2547.0,0.0027
2546.0,0.0027
2545.0,0.0027
2544.0,0.0028
2543.0,0.0027
2542.0,0.0027
2541.0,0.0027
2540.0,0.0027
2539.0,0.0027
2538.0,0.0026
2537.0,0.0025
2536.0,0.0025
2535.0,0.0026
2534.0,0.0026
2533.0,0.0026
2532.0,0.0025
2531.0,0.0025
2530.0,0.0025
2529.0,0.0025
2528.0,0.0025
2527.0,0.0025
2526.0,0.0025
2525.0,0.0025
2524.0,0.0025
2523.0,0.0025
2522.0,0.0025
2521.0,0.0025
2520.0,0.0026
2519.0,0.0026
2518.0,0.0026
2517.0,0.0026
2516.0,0.0026
2515.0,0.0025
2514.0,0.0026
2513.0,0.0026
2512.0,0.0027
2511.0,0.0027
2510.0,0.0027
2509.0,0.0027
2508.0,0.0026
2507.0,0.0026
2506.0,0.0025
2505.0,0.0025
2504.0,0.0025
2503.0,0.0025
2502.0,0.0025
2501.0,0.0025
2500.0,0.0026
2499.0,0.0026
2498.0,0.0026
2497.0,0.0025
2496.0,0.0025
2495.0,0.0024
2494.0,0.0025
2493.0,0.0025
2492.0,0.0025
2491.0,0.0025
2490.0,0.0025
2489.0,0.0025
2488.0,0.0025
2487.0,0.0025
2486.0,0.0024
2485.0,0.0023
2484.0,0.0023
2483.0,0.0023
2482.0,0.0024
2481.0,0.0025
2480.0,0.0025
2479.0,0.0025
2478.0,0.0024
2477.0,0.0024
2476.0,0.0024
2475.0,0.0025
2474.0,0.0024
2473.0,0.0024
2472.0,0.0024
2471.0,0.0025
2470.0,0.0025
2469.0,0.0025
2468.0,0.0025
2467.0,0.0025
2466.0,0.0024
2465.0,0.0024
2464.0,0.0024
2463.0,0.0025
2462.0,0.0025
2461.0,0.0024
2460.0,0.0024
2459.0,0.0024
2458.0,0.0024
2457.0,0.0024
2456.0,0.0025
2455.0,0.0025
2454.0,0.0025
2453.0,0.0026
2452.0,0.0025
2451.0,0.0025
2450.0,0.0024
2449.0,0.0024
2448.0,0.0024
2447.0,0.0024
2446.0,0.0024
2445.0,0.0024
2444.0,0.0024
2443.0,0.0024
2442.0,0.0024
2441.0,0.0024
2440.0,0.0024
2439.0,0.0024
2438.0,0.0024
2437.0,0.0025
2436.0,0.0025
2435.0,0.0025
2434.0,0.0025
2433.0,0.0025
2432.0,0.0025
2431.0,0.0025
2430.0,0.0026
2429.0,0.0026
2428.0,0.0026
2427.0,0.0025
2426.0,0.0025
2425.0,0.0025
2424.0,0.0025
2423.0,0.0026
2422.0,0.0026
2421.0,0.0026
2420.0,0.0026
2419.0,0.0025
2418.0,0.0025
2417.0,0.0024
2416.0,0.0024
2415.0,0.0025
2414.0,0.0026
2413.0,0.0026
2412.0,0.0026
2411.0,0.0026
2410.0,0.0026
2409.0,0.0026
2408.0,0.0026
2407.0,0.0026
2406.0,0.0026
2405.0,0.0026
2404.0,0.0026
2403.0,0.0027
2402.0,0.0027
2401.0,0.0027
2400.0,0.0026
2399.0,0.0024
2398.0,0.0024
2397.0,0.0024
2396.0,0.0025
2395.0,0.0026
2394.0,0.0027
2393.0,0.0027
2392.0,0.0027
2391.0,0.0027
2390.0,0.0027
2389.0,0.0027
2388.0,0.0027
2387.0,0.0027
2386.0,0.0027
2385.0,0.0028
2384.0,0.0029
2383.0,0.0029
2382.0,0.003
2381.0,0.003
2380.0,0.0029
2379.0,0.0029
2378.0,0.0028
2377.0,0.0027
2376.0,0.0026
2375.0,0.0026
2374.0,0.0027
2373.0,0.0029
2372.0,0.0028
2371.0,0.0025
2370.0,0.0026
2369.0,0.0034
2368.0,0.0048
2367.0,0.0061
2366.0,0.0063
2365.0,0.005
2364.0,0.0033
2363.0,0.0026
2362.0,0.003
2361.0,0.0032
2360.0,0.0026
2359.0,0.0022
2358.0,0.0028
2357.0,0.004
2356.0,0.0048
2355.0,0.0048
2354.0,0.0041
2353.0,0.0031
2352.0,0.0025
2351.0,0.0025
2350.0,0.0028
2349.0,0.003
2348.0,0.0028
2347.0,0.0024
2346.0,0.0023
2345.0,0.0026
2344.0,0.003
2343.0,0.0031
2342.0,0.0028
2341.0,0.0023
2340.0,0.002
2339.0,0.002
2338.0,0.0021
2337.0,0.0024
2336.0,0.0027
2335.0,0.0027
2334.0,0.0024
2333.0,0.0019
2332.0,0.0013
2331.0,0.0008
2330.0,0.0004
2329.0,0.0002
2328.0,0.0005
2327.0,0.0011
2326.0,0.0019
2325.0,0.0026
2324.0,0.0027
2323.0,0.0024
2322.0,0.002
2321.0,0.0019
2320.0,0.0021
2319.0,0.0024
2318.0,0.0028
2317.0,0.003
2316.0,0.003
2315.0,0.003
2314.0,0.003
2313.0,0.0031
2312.0,0.0031
2311.0,0.0032
2310.0,0.0032
2309.0,0.0032
2308.0,0.0032
2307.0,0.0033
2306.0,0.0034
2305.0,0.0034
2304.0,0.0034
2303.0,0.0032
2302.0,0.0031
2301.0,0.003
2300.0,0.0029
2299.0,0.0029
2298.0,0.0029
2297.0,0.003
2296.0,0.003
2295.0,0.0031
2294.0,0.0031
2293.0,0.0031
2292.0,0.003
2291.0,0.0029
2290.0,0.0029
2289.0,0.0029
2288.0,0.0029
2287.0,0.003
2286.0,0.003
2285.0,0.0031
2284.0,0.0031
2283.0,0.0032
2282.0,0.0032
2281.0,0.0033
2280.0,0.0032
2279.0,0.0032
2278.0,0.0031
2277.0,0.0031
2276.0,0.003
2275.0,0.003
2274.0,0.003
2273.0,0.003
2272.0,0.0031
2271.0,0.0031
2270.0,0.0032
2269.0,0.0032
2268.0,0.0032
2267.0,0.0031
2266.0,0.0032
2265.0,0.0032
2264.0,0.0033
2263.0,0.0033
2262.0,0.0032
2261.0,0.0032
2260.0,0.0032
2259.0,0.0032
2258.0,0.0033
2257.0,0.0033
2256.0,0.0033
2255.0,0.0033
2254.0,0.0033
2253.0,0.0033
2252.0,0.0033
2251.0,0.0034
2250.0,0.0034
2249.0,0.0034
2248.0,0.0034
2247.0,0.0033
2246.0,0.0033
2245.0,0.0033
2244.0,0.0033
2243.0,0.0033
2242.0,0.0033
2241.0,0.0033
2240.0,0.0033
2239.0,0.0033
2238.0,0.0032
2237.0,0.0032
2236.0,0.0033
2235.0,0.0033
2234.0,0.0033
2233.0,0.0032
2232.0,0.0032
2231.0,0.0033
2230.0,0.0033
2229.0,0.0033
2228.0,0.0033
2227.0,0.0033
2226.0,0.0033
2225.0,0.0033
2224.0,0.0033
2223.0,0.0033
2222.0,0.0033
2221.0,0.0033
2220.0,0.0033
2219.0,0.0033
2218.0,0.0033
2217.0,0.0033
2216.0,0.0033
2215.0,0.0033
2214.0,0.0034
2213.0,0.0034
2212.0,0.0034
2211.0,0.0034
2210.0,0.0034
2209.0,0.0034
2208.0,0.0033
2207.0,0.0033
2206.0,0.0033
2205.0,0.0033
2204.0,0.0033
2203.0,0.0033
2202.0,0.0033
2201.0,0.0034
2200.0,0.0034
2199.0,0.0034
2198.0,0.0034
2197.0,0.0034
2196.0,0.0033
2195.0,0.0033
2194.0,0.0032
2193.0,0.0032
2192.0,0.0032
2191.0,0.0032
2190.0,0.0033
2189.0,0.0033
2188.0,0.0034
2187.0,0.0034
2186.0,0.0034
2185.0,0.0033
2184.0,0.0033
2183.0,0.0033
2182.0,0.0033
2181.0,0.0033
2180.0,0.0033
2179.0,0.0033
2178.0,0.0033
2177.0,0.0033
2176.0,0.0033
2175.0,0.0033
2174.0,0.0033
2173.0,0.0032
2172.0,0.0032
2171.0,0.0032
2170.0,0.0033
2169.0,0.0032
2168.0,0.0032
2167.0,0.0031
2166.0,0.0031
2165.0,0.0031
2164.0,0.0031
2163.0,0.0031
2162.0,0.0032
2161.0,0.0032
2160.0,0.0032
2159.0,0.0032
2158.0,0.0031
2157.0,0.0031
2156.0,0.0032
2155.0,0.0032
2154.0,0.0032
2153.0,0.0032
2152.0,0.0032
2151.0,0.0032
2150.0,0.0032
2149.0,0.0032
2148.0,0.0032
2147.0,0.0032
2146.0,0.0032
2145.0,0.0032
2144.0,0.0031
2143.0,0.0031
2142.0,0.0031
2141.0,0.0031
2140.0,0.0031
2139.0,0.0031
2138.0,0.003
2137.0,0.003
2136.0,0.0031
2135.0,0.0031
2134.0,0.0032
2133.0,0.0032
2132.0,0.0032
2131.0,0.0032
2130.0,0.0032
2129.0,0.0033
2128.0,0.0033
2127.0,0.0033
2126.0,0.0033
2125.0,0.0032
2124.0,0.0032
2123.0,0.0031
2122.0,0.0031
2121.0,0.0031
2120.0,0.0031
2119.0,0.0032
2118.0,0.0032
2117.0,0.0033
2116.0,0.0033
2115.0,0.0033
2114.0,0.0033
2113.0,0.0033
2112.0,0.0033
2111.0,0.0032
2110.0,0.0032
2109.0,0.0032
2108.0,0.0032
2107.0,0.0032
2106.0,0.0031
2105.0,0.0031
2104.0,0.0031
2103.0,0.0031
2102.0,0.0031
2101.0,0.0031
2100.0,0.003
2099.0,0.003
2098.0,0.003
2097.0,0.003
2096.0,0.003
2095.0,0.0031
2094.0,0.0031
2093.0,0.003
2092.0,0.003
2091.0,0.003
2090.0,0.003
2089.0,0.003
2088.0,0.003
2087.0,0.003
2086.0,0.003
2085.0,0.0029
2084.0,0.0029
2083.0,0.003
2082.0,0.003
2081.0,0.003
2080.0,0.003
2079.0,0.003
2078.0,0.0031
2077.0,0.0031
2076.0,0.0031
2075.0,0.0031
2074.0,0.003
2073.0,0.003
2072.0,0.003
2071.0,0.003
2070.0,0.003
2069.0,0.0029
2068.0,0.0029
2067.0,0.0029
2066.0,0.0029
2065.0,0.0029
2064.0,0.0029
2063.0,0.0029
2062.0,0.0029
2061.0,0.0029
2060.0,0.0029
2059.0,0.0029
2058.0,0.0029
2057.0,0.0029
2056.0,0.0029
2055.0,0.0029
2054.0,0.003
2053.0,0.003
2052.0,0.003
2051.0,0.003
2050.0,0.003
2049.0,0.003
2048.0,0.0029
2047.0,0.0029
2046.0,0.0029
2045.0,0.0028
2044.0,0.0028
2043.0,0.0029
2042.0,0.0029
2041.0,0.003
2040.0,0.003
2039.0,0.003
2038.0,0.003
2037.0,0.003
2036.0,0.003
2035.0,0.003
2034.0,0.003
2033.0,0.003
2032.0,0.0029
2031.0,0.0029
2030.0,0.003
2029.0,0.003
2028.0,0.003
2027.0,0.003
2026.0,0.003
2025.0,0.003
2024.0,0.003
2023.0,0.003
2022.0,0.003
2021.0,0.003
2020.0,0.0029
2019.0,0.0029
2018.0,0.0029
2017.0,0.003
2016.0,0.003
2015.0,0.003
2014.0,0.003
2013.0,0.003
2012.0,0.003
2011.0,0.003
2010.0,0.003
2009.0,0.0029
2008.0,0.0029
2007.0,0.0029
2006.0,0.0029
2005.0,0.003
2004.0,0.0031
2003.0,0.0031
2002.0,0.0031
2001.0,0.0031
2000.0,0.003
1999.0,0.003
1998.0,0.003
1997.0,0.003
1996.0,0.003
1995.0,0.003
1994.0,0.003
1993.0,0.0031
1992.0,0.0031
1991.0,0.0031
1990.0,0.0031
1989.0,0.0031
1988.0,0.0031
1987.0,0.0032
1986.0,0.0032
1985.0,0.0031
1984.0,0.0031
1983.0,0.0031
1982.0,0.0031
1981.0,0.0031
1980.0,0.0031
1979.0,0.0031
1978.0,0.0031
1977.0,0.003
1976.0,0.003
1975.0,0.003
1974.0,0.0031
1973.0,0.0031
1972.0,0.0032
1971.0,0.0032
1970.0,0.0032
1969.0,0.0032
1968.0,0.0031
1967.0,0.003
1966.0,0.003
1965.0,0.003
1964.0,0.003
1963.0,0.003
1962.0,0.0031
1961.0,0.0031
1960.0,0.0031
1959.0,0.0031
1958.0,0.0031
1957.0,0.003
1956.0,0.003
1955.0,0.003
1954.0,0.0031
1953.0,0.0031
1952.0,0.0032
1951.0,0.0031
1950.0,0.0031
1949.0,0.003
1948.0,0.003
1947.0,0.003
1946.0,0.003
1945.0,0.0031
1944.0,0.0031
1943.0,0.0031
1942.0,0.0031
1941.0,0.0031
1940.0,0.0031
1939.0,0.0031
1938.0,0.0031
1937.0,0.0031
1936.0,0.0031
1935.0,0.0031
1934.0,0.0031
1933.0,0.0031
1932.0,0.0031
1931.0,0.0031
1930.0,0.0031
1929.0,0.0031
1928.0,0.0031
1927.0,0.0031
1926.0,0.0031
1925.0,0.0031
1924.0,0.0032
1923.0,0.0032
1922.0,0.0032
1921.0,0.0032
1920.0,0.0031
1919.0,0.0031
1918.0,0.0031
1917.0,0.003
1916.0,0.003
1915.0,0.0031
1914.0,0.0031
1913.0,0.0031
1912.0,0.0031
1911.0,0.0031
1910.0,0.003
1909.0,0.003
1908.0,0.0031
1907.0,0.0032
1906.0,0.0032
1905.0,0.0032
1904.0,0.0031
1903.0,0.0031
1902.0,0.0031
1901.0,0.0031
1900.0,0.0032
1899.0,0.0032
1898.0,0.0032
1897.0,0.0031
1896.0,0.0031
1895.0,0.003
1894.0,0.003
1893.0,0.003
1892.0,0.0031
1891.0,0.0031
1890.0,0.0031
1889.0,0.0031
1888.0,0.0031
1887.0,0.0031
1886.0,0.0031
1885.0,0.0031
1884.0,0.0031
1883.0,0.0031
1882.0,0.0031
1881.0,0.003
1880.0,0.003
1879.0,0.003
1878.0,0.0031
1877.0,0.0031
1876.0,0.0032
1875.0,0.0032
1874.0,0.0032
1873.0,0.0032
1872.0,0.0032
1871.0,0.0031
1870.0,0.0031
1869.0,0.0031
1868.0,0.0032
1867.0,0.0032
1866.0,0.0033
1865.0,0.0033
1864.0,0.0033
1863.0,0.0032
1862.0,0.0032
1861.0,0.0032
1860.0,0.0032
1859.0,0.0032
1858.0,0.0032
1857.0,0.0032
1856.0,0.0032
1855.0,0.0032
1854.0,0.0032
1853.0,0.0032
1852.0,0.0033
1851.0,0.0033
1850.0,0.0033
1849.0,0.0033
1848.0,0.0032
1847.0,0.0032
1846.0,0.0031
1845.0,0.0031
1844.0,0.0031
1843.0,0.0032
1842.0,0.0032
1841.0,0.0032
1840.0,0.0032
1839.0,0.0032
1838.0,0.0032
1837.0,0.0032
1836.0,0.0032
1835.0,0.0032
1834.0,0.0032
1833.0,0.0032
1832.0,0.0032
1831.0,0.0033
1830.0,0.0033
1829.0,0.0033
1828.0,0.0034
1827.0,0.0034
1826.0,0.0033
1825.0,0.0033
1824.0,0.0033
1823.0,0.0033
1822.0,0.0033
1821.0,0.0033
1820.0,0.0032
1819.0,0.0032
1818.0,0.0032
1817.0,0.0032
1816.0,0.0033
1815.0,0.0033
1814.0,0.0033
1813.0,0.0033
1812.0,0.0033
1811.0,0.0033
1810.0,0.0032
1809.0,0.0032
1808.0,0.0032
1807.0,0.0032
1806.0,0.0032
1805.0,0.0032
1804.0,0.0033
1803.0,0.0033
1802.0,0.0033
1801.0,0.0033
1800.0,0.0032
1799.0,0.0032
1798.0,0.0032
1797.0,0.0032
1796.0,0.0032
1795.0,0.0032
1794.0,0.0032
1793.0,0.0033
1792.0,0.0033
1791.0,0.0033
1790.0,0.0033
1789.0,0.0034
1788.0,0.0034
1787.0,0.0034
1786.0,0.0034
1785.0,0.0034
1784.0,0.0034
1783.0,0.0033
1782.0,0.0033
1781.0,0.0033
1780.0,0.0033
1779.0,0.0034
1778.0,0.0034
1777.0,0.0034
1776.0,0.0034
1775.0,0.0034
1774.0,0.0033
1773.0,0.0033
1772.0,0.0033
1771.0,0.0034
1770.0,0.0035
1769.0,0.0035
1768.0,0.0036
1767.0,0.0036
1766.0,0.0036
1765.0,0.0035
1764.0,0.0035
1763.0,0.0035
1762.0,0.0034
1761.0,0.0034
1760.0,0.0033
1759.0,0.0034
1758.0,0.0034
1757.0,0.0034
1756.0,0.0035
1755.0,0.0036
1754.0,0.0036
1753.0,0.0036
1752.0,0.0036
1751.0,0.0036
1750.0,0.0036
1749.0,0.0036
1748.0,0.0036
1747.0,0.0036
1746.0,0.0036
1745.0,0.0036
1744.0,0.0037
1743.0,0.0037
1742.0,0.0037
1741.0,0.0036
1740.0,0.0036
1739.0,0.0036
1738.0,0.0037
1737.0,0.0037
1736.0,0.0037
1735.0,0.0038
1734.0,0.0038
1733.0,0.0037
1732.0,0.0037
1731.0,0.0037
1730.0,0.0037
1729.0,0.0038
1728.0,0.0038
1727.0,0.0038
1726.0,0.0037
1725.0,0.0037
1724.0,0.0036
1723.0,0.0036
1722.0,0.0036
1721.0,0.0037
1720.0,0.0037
1719.0,0.0037
1718.0,0.0038
1717.0,0.0038
1716.0,0.0038
1715.0,0.0038
1714.0,0.0038
1713.0,0.0039
1712.0,0.0039
1711.0,0.0039
1710.0,0.004
1709.0,0.004
1708.0,0.004
1707.0,0.004
1706.0,0.004
1705.0,0.0041
1704.0,0.0041
1703.0,0.0042
1702.0,0.0043
1701.0,0.0044
1700.0,0.0046
1699.0,0.0046
1698.0,0.0046
1697.0,0.0046
1696.0,0.0047
1695.0,0.0049
1694.0,0.0052
1693.0,0.0053
1692.0,0.0055
1691.0,0.0057
1690.0,0.0059
1689.0,0.0061
1688.0,0.0063
1687.0,0.0065
1686.0,0.0067
1685.0,0.007
1684.0,0.0075
1683.0,0.0078
1682.0,0.0079
1681.0,0.0079
1680.0,0.0078
1679.0,0.0077
1678.0,0.0076
1677.0,0.0074
1676.0,0.0072
1675.0,0.0069
1674.0,0.0067
1673.0,0.0065
1672.0,0.0062
1671.0,0.006
1670.0,0.0059
1669.0,0.0059
1668.0,0.0059
1667.0,0.0058
1666.0,0.0057
1665.0,0.0055
1664.0,0.0054
1663.0,0.0053
1662.0,0.0053
1661.0,0.0054
1660.0,0.0054
1659.0,0.0054
1658.0,0.0054
1657.0,0.0054
1656.0,0.0054
1655.0,0.0054
1654.0,0.0054
1653.0,0.0052
1652.0,0.0051
1651.0,0.0051
1650.0,0.0051
1649.0,0.0051
1648.0,0.0051
1647.0,0.0051
1646.0,0.0051
1645.0,0.0051
1644.0,0.0052
1643.0,0.0052
1642.0,0.0053
1641.0,0.0053
1640.0,0.0054
1639.0,0.0055
1638.0,0.0055
1637.0,0.0056
1636.0,0.0058
1635.0,0.006
1634.0,0.0061
1633.0,0.0061
1632.0,0.0062
1631.0,0.0063
1630.0,0.0064
1629.0,0.0067
1628.0,0.0071
1627.0,0.0074
1626.0,0.0077
1625.0,0.008
1624.0,0.0083
1623.0,0.0088
1622.0,0.0092
1621.0,0.0096
1620.0,0.0098
1619.0,0.0099
1618.0,0.0098
1617.0,0.0094
1616.0,0.0091
1615.0,0.0088
1614.0,0.0086
1613.0,0.0083
1612.0,0.008
1611.0,0.0077
1610.0,0.0074
1609.0,0.007
1608.0,0.0067
1607.0,0.0065
1606.0,0.0063
1605.0,0.0061
1604.0,0.006
1603.0,0.0059
1602.0,0.0058
1601.0,0.0057
1600.0,0.0056
1599.0,0.0056
1598.0,0.0055
1597.0,0.0054
1596.0,0.0053
1595.0,0.0052
1594.0,0.0051
1593.0,0.0051
1592.0,0.0051
1591.0,0.005
1590.0,0.005
1589.0,0.0049
1588.0,0.0049
1587.0,0.0049
1586.0,0.0048
1585.0,0.0048
1584.0,0.0048
1583.0,0.0048
1582.0,0.0048
1581.0,0.0048
1580.0,0.0048
1579.0,0.0047
1578.0,0.0047
1577.0,0.0047
1576.0,0.0047
1575.0,0.0047
1574.0,0.0047
1573.0,0.0046
1572.0,0.0045
1571.0,0.0044
1570.0,0.0044
1569.0,0.0044
1568.0,0.0044
1567.0,0.0044
1566.0,0.0044
1565.0,0.0044
1564.0,0.0044
1563.0,0.0044
1562.0,0.0044
1561.0,0.0044
1560.0,0.0045
1559.0,0.0045
1558.0,0.0044
1557.0,0.0044
1556.0,0.0044
1555.0,0.0044
1554.0,0.0044
1553.0,0.0045
1552.0,0.0045
1551.0,0.0045
1550.0,0.0045
1549.0,0.0044
1548.0,0.0044
1547.0,0.0044
1546.0,0.0044
1545.0,0.0044
1544.0,0.0044
1543.0,0.0044
1542.0,0.0044
1541.0,0.0045
1540.0,0.0045
1539.0,0.0044
1538.0,0.0044
1537.0,0.0044
1536.0,0.0044
1535.0,0.0044
1534.0,0.0044
1533.0,0.0043
1532.0,0.0043
1531.0,0.0043
1530.0,0.0043
1529.0,0.0043
1528.0,0.0044
1527.0,0.0045
1526.0,0.0045
1525.0,0.0045
1524.0,0.0043
1523.0,0.0042
1522.0,0.0042
1521.0,0.0043
1520.0,0.0043
1519.0,0.0043
1518.0,0.0044
1517.0,0.0043
1516.0,0.0043
1515.0,0.0042
1514.0,0.0042
1513.0,0.0042
1512.0,0.0042
1511.0,0.0043
1510.0,0.0043
1509.0,0.0043
1508.0,0.0043
1507.0,0.0041
1506.0,0.004
1505.0,0.004
1504.0,0.004
1503.0,0.004
1502.0,0.004
1501.0,0.004
1500.0,0.004
1499.0,0.0039
1498.0,0.0039
1497.0,0.0039
1496.0,0.0039
1495.0,0.004
1494.0,0.004
1493.0,0.0039
1492.0,0.0039
1491.0,0.0039
1490.0,0.0039
1489.0,0.0039
1488.0,0.0039
1487.0,0.0039
1486.0,0.004
1485.0,0.004
1484.0,0.004
1483.0,0.004
1482.0,0.004
1481.0,0.004
1480.0,0.0041
1479.0,0.0041
1478.0,0.0042
1477.0,0.0043
1476.0,0.0045
1475.0,0.0047
1474.0,0.005
1473.0,0.0057
1472.0,0.0065
1471.0,0.0072
1470.0,0.0079
1469.0,0.0086
1468.0,0.0094
1467.0,0.0103
1466.0,0.0115
1465.0,0.0129
1464.0,0.0141
1463.0,0.015
1462.0,0.0155
1461.0,0.0159
1460.0,0.0162
1459.0,0.0165
1458.0,0.0168
1457.0,0.0172
1456.0,0.0175
1455.0,0.0175
1454.0,0.0175
1453.0,0.0175
1452.0,0.0174
1451.0,0.0172
1450.0,0.0169
1449.0,0.0164
1448.0,0.0156
1447.0,0.0147
1446.0,0.0139
1445.0,0.0131
1444.0,0.0123
1443.0,0.0117
1442.0,0.0112
1441.0,0.0108
1440.0,0.0106
1439.0,0.0105
1438.0,0.0106
1437.0,0.0108
1436.0,0.0108
1435.0,0.0106
1434.0,0.0103
1433.0,0.0098
1432.0,0.0092
1431.0,0.0086
1430.0,0.0081
1429.0,0.0078
1428.0,0.0076
1427.0,0.0075
1426.0,0.0074
1425.0,0.0072
1424.0,0.007
1423.0,0.0069
1422.0,0.0068
1421.0,0.0067
1420.0,0.0067
1419.0,0.0067
1418.0,0.0067
1417.0,0.0066
1416.0,0.0065
1415.0,0.0065
1414.0,0.0064
1413.0,0.0063
1412.0,0.0062
1411.0,0.0061
1410.0,0.0061
1409.0,0.006
1408.0,0.006
1407.0,0.0059
1406.0,0.0059
1405.0,0.0059
1404.0,0.0059
1403.0,0.0058
1402.0,0.0058
1401.0,0.0057
1400.0,0.0056
1399.0,0.0056
1398.0,0.0056
1397.0,0.0055
1396.0,0.0054
1395.0,0.0053
1394.0,0.0053
1393.0,0.0053
1392.0,0.0052
1391.0,0.0052
1390.0,0.0052
1389.0,0.0052
1388.0,0.0052
1387.0,0.0053
1386.0,0.0056
1385.0,0.0061
1384.0,0.0069
1383.0,0.0082
1382.0,0.01
1381.0,0.0125
1380.0,0.0156
1379.0,0.0193
1378.0,0.0229
1377.0,0.0259
1376.0,0.0276
1375.0,0.0276
1374.0,0.026
1373.0,0.0235
1372.0,0.0211
1371.0,0.0188
1370.0,0.0168
1369.0,0.0151
1368.0,0.0138
1367.0,0.0129
1366.0,0.0122
1365.0,0.0118
1364.0,0.0116
1363.0,0.0117
1362.0,0.012
1361.0,0.0123
1360.0,0.0126
1359.0,0.0127
1358.0,0.0127
1357.0,0.0125
1356.0,0.0121
1355.0,0.0117
1354.0,0.0112
1353.0,0.0107
1352.0,0.0103
1351.0,0.01
1350.0,0.0098
1349.0,0.0095
1348.0,0.0094
1347.0,0.0092
1346.0,0.009
1345.0,0.0089
1344.0,0.0087
1343.0,0.0086
1342.0,0.0085
1341.0,0.0084
1340.0,0.0084
1339.0,0.0083
1338.0,0.0083
1337.0,0.0083
1336.0,0.0082
1335.0,0.0082
1334.0,0.0082
1333.0,0.0082
1332.0,0.0083
1331.0,0.0084
1330.0,0.0084
1329.0,0.0084
1328.0,0.0083
1327.0,0.0083
1326.0,0.0082
1325.0,0.0082
1324.0,0.0081
1323.0,0.0081
1322.0,0.008
1321.0,0.0079
1320.0,0.0078
1319.0,0.0078
1318.0,0.0078
1317.0,0.0078
1316.0,0.0078
1315.0,0.0077
1314.0,0.0077
1313.0,0.0077
1312.0,0.0076
1311.0,0.0076
1310.0,0.0077
1309.0,0.0077
1308.0,0.0078
1307.0,0.0079
1306.0,0.0081
1305.0,0.0082
1304.0,0.0082
1303.0,0.0082
1302.0,0.0082
1301.0,0.0081
1300.0,0.0081
1299.0,0.0081
1298.0,0.0082
1297.0,0.0082
1296.0,0.0083
1295.0,0.0083
1294.0,0.0083
1293.0,0.0083
1292.0,0.0083
1291.0,0.0082
1290.0,0.0081
1289.0,0.008
1288.0,0.008
1287.0,0.0079
1286.0,0.0079
1285.0,0.008
1284.0,0.008
1283.0,0.008
1282.0,0.008
1281.0,0.008
1280.0,0.008
1279.0,0.008
1278.0,0.0079
1277.0,0.0079
1276.0,0.0079
1275.0,0.0078
1274.0,0.0078
1273.0,0.0078
1272.0,0.0078
1271.0,0.0078
1270.0,0.0079
1269.0,0.0079
1268.0,0.008
1267.0,0.008
1266.0,0.0081
1265.0,0.0081
1264.0,0.0082
1263.0,0.0082
1262.0,0.0082
1261.0,0.0082
1260.0,0.0083
1259.0,0.0084
1258.0,0.0085
1257.0,0.0086
1256.0,0.0086
1255.0,0.0086
1254.0,0.0085
1253.0,0.0085
1252.0,0.0085
1251.0,0.0085
1250.0,0.0085
1249.0,0.0084
1248.0,0.0084
1247.0,0.0084
1246.0,0.0084
1245.0,0.0084
1244.0,0.0084
1243.0,0.0083
1242.0,0.0083
1241.0,0.0083
1240.0,0.0083
1239.0,0.0084
1238.0,0.0084
1237.0,0.0085
1236.0,0.0085
1235.0,0.0085
1234.0,0.0085
1233.0,0.0085
1232.0,0.0085
1231.0,0.0086
1230.0,0.0086
1229.0,0.0087
1228.0,0.0087
1227.0,0.0087
1226.0,0.0087
1225.0,0.0088
1224.0,0.0089
1223.0,0.0089
1222.0,0.009
1221.0,0.0091
1220.0,0.0093
1219.0,0.0093
1218.0,0.0094
1217.0,0.0094
1216.0,0.0094
1215.0,0.0094
1214.0,0.0094
1213.0,0.0094
1212.0,0.0094
1211.0,0.0094
1210.0,0.0094
1209.0,0.0095
1208.0,0.0095
1207.0,0.0096
1206.0,0.0096
1205.0,0.0097
1204.0,0.0098
1203.0,0.0099
1202.0,0.0099
1201.0,0.01
1200.0,0.01
1199.0,0.0101
1198.0,0.0102
1197.0,0.0103
1196.0,0.0104
1195.0,0.0105
1194.0,0.0106
1193.0,0.0106
1192.0,0.0107
1191.0,0.0107
1190.0,0.0108
1189.0,0.0108
1188.0,0.0109
1187.0,0.0109
1186.0,0.011
1185.0,0.011
1184.0,0.011
1183.0,0.0111
1182.0,0.0112
1181.0,0.0112
1180.0,0.0113
1179.0,0.0114
1178.0,0.0116
1177.0,0.0117
1176.0,0.0119
1175.0,0.0122
1174.0,0.0124
1173.0,0.0127
1172.0,0.0131
1171.0,0.0135
1170.0,0.014
1169.0,0.0145
1168.0,0.0149
1167.0,0.0152
1166.0,0.0154
1165.0,0.0156
1164.0,0.0158
1163.0,0.016
1162.0,0.0162
1161.0,0.0164
1160.0,0.0165
1159.0,0.0167
1158.0,0.017
1157.0,0.0173
1156.0,0.0175
1155.0,0.0178
1154.0,0.0182
1153.0,0.0185
1152.0,0.0188
1151.0,0.0191
1150.0,0.0193
1149.0,0.0195
1148.0,0.0197
1147.0,0.0199
1146.0,0.02
1145.0,0.0201
1144.0,0.0203
1143.0,0.0205
1142.0,0.0207
1141.0,0.0208
1140.0,0.021
1139.0,0.0211
1138.0,0.0212
1137.0,0.0214
1136.0,0.0216
1135.0,0.0217
1134.0,0.0218
1133.0,0.022
1132.0,0.0221
1131.0,0.0222
1130.0,0.0223
1129.0,0.0225
1128.0,0.0227
1127.0,0.0229
1126.0,0.0231
1125.0,0.0232
1124.0,0.0234
1123.0,0.0237
1122.0,0.024
1121.0,0.0242
1120.0,0.0245
1119.0,0.0248
1118.0,0.0251
1117.0,0.0255
1116.0,0.0259
1115.0,0.0262
1114.0,0.0265
1113.0,0.0267
1112.0,0.027
1111.0,0.0273
1110.0,0.0275
1109.0,0.0278
1108.0,0.0281
1107.0,0.0283
1106.0,0.0286
1105.0,0.0288
1104.0,0.0289
1103.0,0.0291
1102.0,0.0291
1101.0,0.0291
1100.0,0.029
1099.0,0.0289
1098.0,0.0287
1097.0,0.0284
1096.0,0.0282
1095.0,0.0281
1094.0,0.028
1093.0,0.0279
1092.0,0.0278
1091.0,0.0277
1090.0,0.0275
1089.0,0.0274
1088.0,0.0273
1087.0,0.0272
1086.0,0.0271
1085.0,0.027
1084.0,0.0269
1083.0,0.0268
1082.0,0.0267
1081.0,0.0265
1080.0,0.0264
1079.0,0.0263
1078.0,0.0261
1077.0,0.0259
1076.0,0.0257
1075.0,0.0255
1074.0,0.0254
1073.0,0.0254
1072.0,0.0254
1071.0,0.0253
1070.0,0.0252
1069.0,0.0251
1068.0,0.0249
1067.0,0.0247
1066.0,0.0246
1065.0,0.0244
1064.0,0.0244
1063.0,0.0243
1062.0,0.0242
1061.0,0.0241
1060.0,0.024
1059.0,0.0238
1058.0,0.0237
1057.0,0.0235
1056.0,0.0234
1055.0,0.0233
1054.0,0.0233
1053.0,0.0232
1052.0,0.0231
1051.0,0.023
1050.0,0.0228
1049.0,0.0228
1048.0,0.0228
1047.0,0.0229
1046.0,0.0229
1045.0,0.0228
1044.0,0.0228
1043.0,0.0226
1042.0,0.0224
1041.0,0.0223
1040.0,0.0222
1039.0,0.0221
1038.0,0.022
1037.0,0.022
1036.0,0.0219
1035.0,0.0218
1034.0,0.0217
1033.0,0.0216
1032.0,0.0215
1031.0,0.0214
1030.0,0.0212
1029.0,0.0211
1028.0,0.0211
1027.0,0.021
1026.0,0.021
1025.0,0.0209
1024.0,0.0208
1023.0,0.0207
1022.0,0.0206
1021.0,0.0206
1020.0,0.0205
1019.0,0.0204
1018.0,0.0203
1017.0,0.0201
1016.0,0.0201
1015.0,0.0201
1014.0,0.0201
1013.0,0.02
1012.0,0.0199
1011.0,0.0198
1010.0,0.0197
1009.0,0.0197
1008.0,0.0197
1007.0,0.0198
1006.0,0.0201
1005.0,0.0205
1004.0,0.0209
1003.0,0.0213
1002.0,0.0216
1001.0,0.0219
1000.0,0.0222
999.0,0.0226
998.0,0.0227
997.0,0.0227
996.0,0.0224
995.0,0.022
994.0,0.0214
993.0,0.021
992.0,0.0206
991.0,0.0203
990.0,0.0201
989.0,0.0198
988.0,0.0196
987.0,0.0195
986.0,0.0195
985.0,0.0195
984.0,0.0195
983.0,0.0196
982.0,0.0197
981.0,0.0199
980.0,0.0201
979.0,0.0203
978.0,0.0207
977.0,0.0213
976.0,0.022
975.0,0.0227
974.0,0.0233
973.0,0.0235
972.0,0.0234
971.0,0.023
970.0,0.0225
969.0,0.0219
968.0,0.0214
967.0,0.0209
966.0,0.0206
965.0,0.0204
964.0,0.0203
963.0,0.0202
962.0,0.0201
961.0,0.02
960.0,0.0199
959.0,0.0198
958.0,0.0197
957.0,0.0196
956.0,0.0195
955.0,0.0194
954.0,0.0194
953.0,0.0193
952.0,0.0192
951.0,0.0191
950.0,0.0191
949.0,0.0191
948.0,0.0192
947.0,0.0192
946.0,0.0192
945.0,0.0193
944.0,0.0195
943.0,0.0196
942.0,0.0196
941.0,0.0196
940.0,0.0196
939.0,0.0196
938.0,0.0196
937.0,0.0196
936.0,0.0195
935.0,0.0195
934.0,0.0194
933.0,0.0194
932.0,0.0194
931.0,0.0193
930.0,0.0192
929.0,0.0192
928.0,0.0191
927.0,0.0191
926.0,0.0191
925.0,0.0191
924.0,0.019
923.0,0.019
922.0,0.0189
921.0,0.0189
920.0,0.0188
919.0,0.0188
918.0,0.0188
917.0,0.019
916.0,0.0192
915.0,0.0194
914.0,0.0194
913.0,0.0192
912.0,0.019
911.0,0.0189
910.0,0.0189
909.0,0.0189
908.0,0.0189
907.0,0.0189
906.0,0.0189
905.0,0.019
904.0,0.0192
903.0,0.0196
902.0,0.0201
901.0,0.0206
900.0,0.0211
899.0,0.0215
898.0,0.0216
897.0,0.0214
896.0,0.0211
895.0,0.0207
894.0,0.0204
893.0,0.0202
892.0,0.02
891.0,0.0198
890.0,0.0198
889.0,0.0197
888.0,0.0196
887.0,0.0195
886.0,0.0194
885.0,0.0194
884.0,0.0195
883.0,0.0196
882.0,0.0195
881.0,0.0195
880.0,0.0194
879.0,0.0192
878.0,0.019
877.0,0.0189
876.0,0.0188
875.0,0.0189
874.0,0.019
873.0,0.019
872.0,0.019
871.0,0.0189
870.0,0.0188
869.0,0.0188
868.0,0.0189
867.0,0.019
866.0,0.0191
865.0,0.0191
864.0,0.0192
863.0,0.0192
862.0,0.0192
861.0,0.0191
860.0,0.0189
859.0,0.0188
858.0,0.0187
857.0,0.0188
856.0,0.0188
855.0,0.0188
854.0,0.0187
853.0,0.0186
852.0,0.0187
851.0,0.0187
850.0,0.0188
849.0,0.0189
848.0,0.0189
847.0,0.019
846.0,0.0191
845.0,0.0194
844.0,0.0199
843.0,0.0207
842.0,0.0213
841.0,0.0216
840.0,0.0214
839.0,0.0209
838.0,0.0203
837.0,0.0198
836.0,0.0194
835.0,0.019
834.0,0.0187
833.0,0.0186
832.0,0.0186
831.0,0.0187
830.0,0.0187
829.0,0.0187
828.0,0.0186
827.0,0.0185
826.0,0.0184
825.0,0.0182
824.0,0.0181
823.0,0.018
822.0,0.0179
821.0,0.0177
820.0,0.0177
819.0,0.0178
818.0,0.0179
817.0,0.018
816.0,0.0181
815.0,0.0182
814.0,0.0185
813.0,0.0189
812.0,0.0195
811.0,0.0201
810.0,0.0206
809.0,0.021
808.0,0.0211
807.0,0.0211
806.0,0.021
805.0,0.0207
804.0,0.0203
803.0,0.0199
802.0,0.0195
801.0,0.0193
800.0,0.0193
799.0,0.0194
798.0,0.0195
797.0,0.0195
796.0,0.0193
795.0,0.019
794.0,0.0187
793.0,0.0184
792.0,0.0183
791.0,0.0183
790.0,0.0184
789.0,0.0185
788.0,0.0186
787.0,0.0184
786.0,0.0183
785.0,0.0182
784.0,0.0182
783.0,0.0182
782.0,0.0182
781.0,0.0182
780.0,0.018
779.0,0.0178
778.0,0.0177
777.0,0.0177
776.0,0.0178
775.0,0.0181
774.0,0.0183
773.0,0.0185
772.0,0.0186
771.0,0.0187
770.0,0.0186
769.0,0.0186
768.0,0.0185
767.0,0.0184
766.0,0.0183
765.0,0.0182
764.0,0.0183
763.0,0.0184
762.0,0.0186
761.0,0.0187
760.0,0.0188
759.0,0.0187
758.0,0.0187
757.0,0.0187
756.0,0.0186
755.0,0.0185
754.0,0.0184
753.0,0.0183
752.0,0.0184
751.0,0.0186
750.0,0.0188
749.0,0.0188
748.0,0.0186
747.0,0.0183
746.0,0.0182
745.0,0.0184
744.0,0.0185
743.0,0.0185
742.0,0.0186
741.0,0.0188
740.0,0.0192
739.0,0.0195
738.0,0.0196
737.0,0.0195
736.0,0.0193
735.0,0.0192
734.0,0.019
733.0,0.0189
732.0,0.0188
731.0,0.0188
730.0,0.0188
729.0,0.019
728.0,0.0191
727.0,0.0192
726.0,0.0191
725.0,0.0192
724.0,0.0194
723.0,0.0198
722.0,0.0201
721.0,0.0202
720.0,0.0201
719.0,0.02
718.0,0.0201
717.0,0.0203
716.0,0.0206
715.0,0.0208
714.0,0.0208
713.0,0.0208
712.0,0.0207
711.0,0.0205
710.0,0.0203
709.0,0.0202
708.0,0.0202
707.0,0.0202
706.0,0.0201
705.0,0.0199
704.0,0.0196
703.0,0.0195
702.0,0.0197
701.0,0.0201
700.0,0.0203
699.0,0.0202
698.0,0.0198
697.0,0.0195
696.0,0.0193
695.0,0.0191
694.0,0.0188
693.0,0.0185
692.0,0.0183
691.0,0.0185
690.0,0.0192
689.0,0.0202
688.0,0.0213
687.0,0.0222
686.0,0.0228
685.0,0.0237
684.0,0.0247
683.0,0.025
682.0,0.0242
681.0,0.0229
680.0,0.0219
679.0,0.0217
678.0,0.022
677.0,0.0221
676.0,0.0224
675.0,0.0232
674.0,0.0243
673.0,0.0252
672.0,0.0255
671.0,0.025
670.0,0.0242
669.0,0.0243
668.0,0.0252
667.0,0.0256
666.0,0.0255
665.0,0.0247
664.0,0.0232
663.0,0.0216
662.0,0.0205
661.0,0.0203
660.0,0.0208
659.0,0.0212
658.0,0.0213
657.0,0.0211
656.0,0.021
655.0,0.0207
654.0,0.0202
653.0,0.0199
652.0,0.0202
651.0,0.0209
650.0,0.0215
649.0,0.0217
648.0,0.0213
647.0,0.0207
646.0,0.0202
645.0,0.0199
644.0,0.0197
643.0,0.0197
642.0,0.0198
641.0,0.0201
640.0,0.0206
639.0,0.0213
638.0,0.0221
637.0,0.023
636.0,0.0238
635.0,0.0241
634.0,0.0236
633.0,0.0229
632.0,0.0227
631.0,0.0231
630.0,0.0239
629.0,0.0245
628.0,0.0246
627.0,0.0245
626.0,0.0243
625.0,0.0244
624.0,0.0249
623.0,0.0253
622.0,0.0256
621.0,0.0261
620.0,0.0268
619.0,0.0274
618.0,0.0275
617.0,0.0272
616.0,0.027
615.0,0.027
614.0,0.0269
613.0,0.0267
612.0,0.0266
611.0,0.0268
610.0,0.0276
609.0,0.0291
608.0,0.0315
607.0,0.0342
606.0,0.0363
605.0,0.0372
604.0,0.0371
603.0,0.0369
602.0,0.0377
601.0,0.0398
600.0,0.0423
