nm,Intensity
528.65,1847.4
528.734,1848.1
528.819,1848.95
528.903,1849.05
528.987,1850.65
529.071,1848.0
529.155,1849.45
529.239,1847.55
529.324,1848.05
529.408,1848.9
529.492,1847.55
529.576,1850.95
529.66,1850.4
529.745,1849.95
529.829,1848.55
529.913,1850.9
529.997,1850.15
530.081,1848.75
530.165,1848.15
530.25,1848.2
530.334,1850.3
530.418,1849.0
530.502,1848.75
530.586,1849.6
530.67,1851.25
530.754,1848.55
530.839,1847.25
530.923,1848.6
531.007,1848.95
531.091,1851.05
531.175,1849.7
531.259,1851.25
531.344,1850.1
531.428,1852.45
531.512,1854.85
531.596,1856.45
531.68,1867.7
531.764,1924.05
531.848,2149.0
531.933,2629.85
532.017,3064.5
532.101,3033.65
532.185,2681.05
532.269,2187.9
532.353,1920.05
532.437,1857.55
532.521,1850.8
532.606,1852.75
532.69,1851.75
532.774,1852.15
532.858,1850.35
532.942,1853.75
533.026,1852.8
533.11,1853.4
533.194,1854.9
533.279,1856.1
533.363,1861.8
533.447,1882.75
533.531,1941.7
533.615,2096.7
533.699,2412.0
533.783,2785.95
533.867,3202.0
533.951,3604.9
534.036,3817.8
534.12,3926.5
534.204,3990.2
534.288,3950.95
534.372,3956.05
534.456,3940.05
534.54,3897.9
534.624,3889.8
534.708,3917.35
534.792,3957.7
534.877,3989.25
534.961,3973.6
535.045,3905.9
535.129,3936.85
535.213,3973.95
535.297,3976.55
535.381,3966.8
535.465,3993.5
535.549,3957.55
535.633,3902.55
535.717,3905.6
535.801,3952.2
535.886,3947.85
535.97,3948.45
536.054,3951.85
536.138,3893.1
536.222,3883.05
536.306,3933.65
536.39,3944.6
536.474,3925.3
536.558,3922.95
536.642,3928.9
536.726,3979.05
536.81,3969.45
536.894,3962.1
536.978,3955.85
537.062,3968.5
537.146,3968.7
537.231,4008.4
537.315,4046.2
537.399,4057.75
537.483,4049.9
537.567,4144.8
537.651,4112.7
537.735,4127.4
537.819,4154.0
537.903,4120.3
537.987,4084.5
538.071,4083.25
538.155,4099.45
538.239,4134.65
538.323,4145.4
538.407,4110.4
538.491,4137.25
538.575,4132.6
538.659,4133.9
538.743,4223.05
538.827,4231.2
538.911,4194.95
538.995,4215.65
539.079,4210.75
539.163,4229.95
539.247,4222.65
539.331,4255.15
539.415,4270.0
539.499,4319.25
539.583,4246.7
539.667,4283.35
539.751,4334.05
539.835,4351.5
539.919,4339.0
540.003,4339.65
540.087,4346.4
540.171,4379.6
540.255,4420.85
540.339,4443.55
540.423,4419.4
540.507,4443.65
540.591,4405.4
540.675,4457.7
540.759,4413.1
540.843,4373.8
540.927,4344.85
541.011,4418.35
541.095,4428.95
541.179,4414.2
541.263,4412.8
541.347,4406.5
541.431,4452.2
541.515,4459.85
541.599,4490.4
541.683,4505.85
541.767,4463.85
541.851,4465.1
541.935,4493.6
542.019,4526.4
542.103,4522.35
542.187,4544.95
542.271,4547.05
542.355,4551.35
542.439,4586.45
542.523,4577.85
542.607,4565.95
542.691,4542.95
542.775,4587.75
542.859,4635.15
542.943,4719.0
543.027,4677.35
543.111,4650.35
543.195,4583.15
543.279,4592.45
543.363,4628.55
543.446,4633.35
543.53,4694.45
543.614,4656.9
543.698,4644.1
543.782,4701.55
543.866,4727.9
543.95,4664.4
544.034,4624.85
544.118,4645.6
544.202,4710.05
544.286,4687.85
544.37,4688.6
544.454,4752.35
544.538,4755.55
544.622,4703.85
544.706,4730.15
544.789,4725.15
544.873,4891.1
544.957,4881.25
545.041,4849.4
545.125,4825.55
545.209,4823.35
545.293,4783.55
545.377,4838.2
545.461,4813.1
545.545,4872.9
545.629,4882.8
545.713,4825.2
545.796,4900.85
545.88,4964.1
545.964,4906.25
546.048,4860.2
546.132,4887.35
546.216,4927.3
546.3,4976.35
546.384,4924.55
546.468,4969.05
546.552,4942.7
546.635,4946.25
546.719,4913.5
546.803,4950.35
546.887,4998.75
546.971,4984.3
547.055,4946.1
547.139,4935.25
547.223,4932.2
547.306,5023.6
547.39,5010.7
547.474,5000.1
547.558,5056.4
547.642,5047.8
547.726,5019.75
547.81,5045.0
547.894,5118.25
547.977,5151.35
548.061,5147.25
548.145,5140.0
548.229,5171.35
548.313,5172.25
548.397,5166.9
548.481,5205.85
548.564,5235.8
548.648,5211.35
548.732,5159.05
548.816,5136.05
548.9,5152.3
548.984,5188.3
549.068,5168.55
549.151,5158.25
549.235,5221.7
549.319,5257.8
549.403,5271.55
549.487,5265.4
549.571,5277.1
549.655,5190.0
549.738,5226.65
549.822,5273.8
549.906,5294.65
549.99,5308.3
550.074,5236.4
550.158,5204.15
550.241,5269.25
550.325,5289.25
550.409,5353.6
550.493,5435.05
550.577,5531.9
550.66,5562.95
550.744,5515.15
550.828,5544.0
550.912,5442.25
550.996,5359.15
551.08,5408.35
551.163,5422.9
551.247,5434.25
551.331,5433.5
551.415,5453.0
551.499,5484.45
551.582,5535.7
551.666,5465.9
551.75,5507.25
551.834,5543.55
551.918,5559.0
552.001,5619.0
552.085,5548.5
552.169,5501.8
552.253,5438.35
552.337,5530.55
552.42,5526.65
552.504,5554.05
552.588,5585.6
552.672,5593.05
552.755,5622.35
552.839,5647.9
552.923,5592.85
553.007,5563.9
553.091,5614.3
553.174,5619.0
553.258,5598.7
553.342,5548.35
553.426,5570.75
553.509,5583.7
553.593,5585.6
553.677,5556.15
553.761,5650.25
553.844,5706.8
553.928,5655.85
554.012,5651.85
554.096,5621.55
554.179,5616.2
554.263,5633.05
554.347,5706.8
554.431,5727.0
554.514,5655.45
554.598,5705.7
554.682,5719.0
554.766,5727.0
554.849,5657.05
554.933,5722.05
555.017,5816.7
555.101,5762.9
555.184,5720.65
555.268,5736.45
555.352,5779.25
555.436,5828.7
555.519,5909.25
555.603,5936.3
555.687,5845.65
555.771,5842.3
555.854,5886.4
555.938,5858.0
556.022,5852.35
556.105,5830.9
556.189,5823.9
556.273,5915.7
556.357,5895.95
556.44,5901.55
556.524,5897.45
556.608,5913.15
556.691,5920.8
556.775,5951.45
556.859,6032.85
556.943,5959.45
557.026,5899.75
557.11,5968.2
557.194,6038.0
557.277,6081.55
557.361,6174.25
557.445,6240.35
557.528,6201.8
557.612,6304.7
557.696,6248.0
557.779,6235.75
557.863,6228.25
557.947,6127.0
558.031,6013.3
558.114,6010.95
558.198,5999.35
558.282,6080.65
558.365,6134.5
558.449,6127.65
558.533,6080.65
558.616,6037.3
558.7,6101.8
558.784,6177.7
558.867,6140.0
558.951,6128.25
559.035,6101.85
559.118,6083.8
559.202,6041.35
559.286,6025.05
559.369,6100.4
559.453,6119.6
559.537,6083.3
559.62,6110.7
559.704,6065.5
559.788,6013.1
559.871,6111.55
559.955,6219.7
560.038,6228.7
560.122,6206.45
560.206,6241.45
560.289,6249.1
560.373,6223.25
560.457,6183.0
560.54,6215.4
560.624,6315.75
560.708,6276.1
560.791,6224.9
560.875,6304.5
560.958,6278.1
561.042,6295.95
561.126,6368.45
561.209,6292.5
561.293,6296.65
561.377,6336.8
561.46,6338.9
561.544,6404.9
561.627,6454.7
561.711,6519.6
561.795,6454.5
561.878,6442.3
561.962,6421.55
562.045,6454.0
562.129,6378.85
562.213,6367.1
562.296,6365.5
562.38,6394.8
562.463,6464.15
562.547,6499.85
562.631,6507.75
562.714,6501.9
562.798,6431.0
562.881,6511.55
562.965,6604.85
563.049,6609.8
563.132,6504.4
563.216,6445.65
563.299,6441.25
563.383,6576.85
563.467,6607.4
563.55,6485.9
563.634,6396.95
563.717,6474.2
563.801,6504.55
563.884,6572.3
563.968,6741.95
564.052,6724.55
564.135,6514.95
564.219,6485.55
564.302,6592.2
564.386,6728.6
564.469,6748.85
564.553,6737.25
564.636,6683.7
564.72,6763.4
564.804,6836.45
564.887,6941.3
564.971,6869.95
565.054,6823.25
565.138,6885.05
565.221,6940.2
565.305,6964.2
565.388,6923.0
565.472,6933.65
565.556,6993.5
565.639,7030.85
565.723,6978.15
565.806,6931.9
565.89,6924.4
565.973,6909.45
566.057,6967.15
566.14,6890.1
566.224,6950.2
566.307,6945.65
566.391,6840.8
566.474,6838.65
566.558,6880.2
566.641,6818.5
566.725,6810.85
566.808,6915.85
566.892,6873.55
566.975,6822.35
567.059,6793.6
567.142,7019.35
567.226,7063.55
567.309,6953.85
567.393,6938.95
567.476,6917.95
567.56,6917.25
567.643,7039.75
567.727,7083.3
567.81,7093.55
567.894,7065.15
567.977,7045.35
568.061,7096.65
568.144,7140.6
568.228,7142.5
568.311,7011.75
568.395,7008.95
568.478,7101.2
568.562,7142.1
568.645,7062.1
568.729,7034.7
568.812,7077.9
568.896,7085.0
568.979,7063.95
569.063,7051.85
569.146,7193.05
569.23,7344.3
569.313,7299.0
569.396,7173.95
569.48,7095.2
569.563,7027.05
569.647,7093.15
569.73,7270.25
569.814,7293.7
569.897,7291.15
569.981,7296.25
570.064,7203.85
570.148,7194.7
570.231,7169.55
570.314,7180.35
570.398,7419.4
570.481,7437.15
570.565,7423.1
570.648,7417.0
570.732,7505.25
570.815,7687.6
570.898,7727.4
570.982,7795.25
571.065,7691.2
571.149,7682.95
571.232,7873.3
571.316,7928.75
571.399,7851.3
571.482,7777.7
571.566,7886.25
571.649,7813.85
571.733,7809.6
571.816,7657.05
571.9,7583.9
571.983,7580.8
572.066,7647.35
572.15,7683.05
572.233,7602.85
572.317,7476.05
572.4,7504.25
572.483,7542.4
572.567,7619.8
572.65,7617.9
572.734,7546.6
572.817,7545.15
572.9,7575.0
572.984,7634.55
573.067,7595.65
573.15,7576.95
573.234,7552.4
573.317,7606.95
573.401,7570.45
573.484,7553.25
573.567,7472.6
573.651,7466.35
573.734,7498.6
573.818,7589.0
573.901,7673.5
573.984,7675.65
574.068,7591.05
574.151,7592.6
574.234,7568.8
574.318,7552.5
574.401,7560.8
574.484,7515.1
574.568,7510.9
574.651,7636.15
574.734,7685.55
574.818,7647.95
574.901,7614.7
574.985,7664.25
575.068,7795.35
575.151,7779.95
575.235,7681.9
575.318,7753.3
575.401,7785.5
575.485,7897.9
575.568,7869.85
575.651,7858.35
575.735,7723.1
575.818,7645.2
575.901,7845.15
575.985,7911.3
576.068,7672.55
576.151,7735.5
576.235,7877.9
576.318,7800.55
576.401,7824.3
576.484,7882.25
576.568,7938.3
576.651,7941.1
576.734,7881.4
576.818,7895.5
576.901,7830.25
576.984,7783.75
577.068,7983.15
577.151,8065.85
577.234,7976.15
577.318,7855.85
577.401,7889.95
577.484,7888.55
577.567,7802.9
577.651,7711.05
577.734,7790.8
577.817,7895.05
577.901,7889.65
577.984,7907.95
578.067,7831.7
578.15,7715.15
578.234,7782.5
578.317,7900.0
578.4,7913.7
578.484,7798.15
578.567,7812.75
578.65,7807.9
578.733,7788.85
578.817,7924.9
578.9,7943.3
578.983,8062.55
579.066,8088.25
579.15,7944.1
579.233,7926.7
579.316,7910.3
579.399,7893.25
579.483,7903.5
579.566,7870.45
579.649,7885.6
579.732,7921.2
579.816,7972.1
579.899,7994.65
579.982,7961.5
580.065,8073.65
580.149,8138.65
580.232,7945.8
580.315,8062.1
580.398,8234.2
580.482,8159.15
580.565,8131.85
580.648,8115.75
580.731,7967.2
580.815,7997.95
580.898,8064.15
580.981,8164.05
581.064,8187.1
581.147,8223.7
581.231,8359.0
581.314,8227.05
581.397,8119.1
581.48,8264.4
581.563,8313.1
581.647,8374.85
581.73,8546.3
581.813,8865.3
581.896,9313.1
581.979,9741.45
582.063,9975.65
582.146,9954.55
582.229,9834.9
582.312,9526.65
582.395,8998.6
582.479,8546.95
582.562,8344.7
582.645,8334.1
582.728,8379.1
582.811,8224.45
582.895,8013.6
582.978,8073.4
583.061,8188.95
583.144,8155.95
583.227,8161.5
583.31,8231.0
583.394,8157.05
583.477,8071.4
583.56,8129.85
583.643,8008.5
583.726,8121.2
583.809,8356.6
583.893,8449.15
583.976,8345.9
584.059,8145.45
584.142,8079.3
584.225,8051.65
584.308,8143.5
584.391,8256.75
584.475,8361.8
584.558,8191.55
584.641,8117.5
584.724,8137.95
584.807,8215.25
584.89,8168.15
584.973,8152.6
585.057,8209.65
585.14,8291.15
585.223,8301.6
585.306,8302.85
585.389,8411.55
585.472,8543.7
585.555,8678.55
585.638,8723.45
585.722,8978.45
585.805,9243.0
585.888,9275.2
585.971,9255.1
586.054,9182.2
586.137,9266.9
586.22,9216.95
586.303,8941.8
586.386,8769.4
586.47,8613.8
586.553,8565.05
586.636,8470.6
586.719,8477.4
586.802,8494.25
586.885,8459.55
586.968,8366.9
587.051,8197.75
587.134,8189.95
587.217,8250.85
587.3,8311.9
587.384,8417.4
587.467,8303.6
587.55,8181.6
587.633,8278.0
587.716,8404.15
587.799,8462.75
587.882,8355.7
587.965,8294.2
588.048,8408.65
588.131,8360.9
588.214,8259.7
588.297,8251.15
588.38,8367.95
588.463,8364.05
588.546,8217.65
588.63,8435.1
588.713,8554.6
588.796,8435.8
588.879,8322.45
588.962,8332.95
589.045,8342.25
589.128,8268.05
589.211,8143.05
589.294,8178.4
589.377,8270.9
589.46,8404.75
589.543,8417.0
589.626,8110.25
589.709,8163.3
589.792,8227.75
589.875,8270.2
589.958,8321.5
590.041,8278.65
590.124,8318.85
590.207,8380.2
590.29,8310.1
590.373,8289.65
590.456,8301.8
590.539,8317.8
590.622,8315.2
590.705,8354.25
590.788,8240.95
590.871,8216.5
590.954,8262.5
591.037,8367.8
591.12,8437.05
591.203,8465.2
591.286,8391.9
591.369,8401.45
591.452,8458.6
591.535,8453.7
591.618,8270.85
591.701,8270.15
591.784,8351.6
591.867,8313.1
591.95,8497.65
592.033,8594.95
592.116,8420.2
592.199,8336.9
592.282,8382.45
592.365,8398.75
592.448,8303.6
592.531,8411.95
592.614,8272.05
592.697,8287.2
592.78,8445.1
592.863,8526.55
592.946,8466.25
593.029,8345.8
593.112,8389.65
593.195,8402.35
593.278,8428.0
593.361,8389.05
593.443,8385.7
593.526,8497.9
593.609,8379.5
593.692,8193.85
593.775,8259.35
593.858,8381.55
593.941,8492.2
594.024,8511.6
594.107,8446.95
594.19,8376.0
594.273,8364.75
594.356,8403.9
594.439,8400.0
594.522,8437.5
594.604,8442.85
594.687,8446.4
594.77,8477.65
594.853,8592.0
594.936,8538.2
595.019,8563.5
595.102,8627.25
595.185,8550.0
595.268,8488.1
595.351,8542.15
595.434,8375.25
595.516,8372.0
595.599,8527.7
595.682,8486.1
595.765,8453.85
595.848,8404.1
595.931,8521.5
596.014,8657.9
596.097,8572.8
596.18,8575.25
596.262,8478.15
596.345,8453.2
596.428,8469.05
596.511,8540.95
596.594,8646.55
596.677,8736.2
596.76,8681.95
596.843,8703.95
596.925,8605.4
597.008,8529.4
597.091,8455.95
597.174,8466.9
597.257,8644.15
597.34,8558.35
597.423,8675.5
597.505,8682.9
597.588,8558.8
597.671,8440.45
597.754,8500.3
597.837,8644.75
597.92,8556.3
598.002,8474.7
598.085,8595.9
598.168,8716.05
598.251,8626.75
598.334,8579.25
598.417,8517.05
598.499,8526.05
598.582,8628.2
598.665,8716.3
598.748,8634.6
598.831,8527.45
598.914,8537.0
598.996,8697.0
599.079,8688.0
599.162,8693.2
599.245,8799.35
599.328,8848.15
599.41,8687.15
599.493,8581.2
599.576,8552.8
599.659,8605.45
599.742,8697.65
599.824,8696.95
599.907,8874.15
599.99,8741.85
600.073,8581.0
600.156,8680.25
600.238,8747.15
600.321,8748.85
600.404,8687.85
600.487,8651.25
600.57,8761.8
600.652,8819.8
600.735,8786.0
600.818,8680.3
600.901,8760.8
600.983,8825.15
601.066,8838.25
601.149,8863.7
601.232,8842.05
601.314,8704.45
601.397,8642.15
601.48,8741.2
601.563,8798.7
601.645,8789.95
601.728,8822.6
601.811,8768.05
601.894,8755.25
601.976,8923.6
602.059,8905.65
602.142,8720.7
602.225,8763.4
602.307,8904.35
602.39,8882.5
602.473,8865.2
602.556,8886.8
602.638,8824.9
602.721,8770.45
602.804,8717.95
602.887,8846.75
602.969,8944.5
603.052,8917.45
603.135,8969.15
603.217,8831.55
603.3,8886.8
603.383,8806.75
603.466,8837.8
603.548,8814.9
603.631,8841.35
603.714,8942.95
603.796,8993.5
603.879,8975.3
603.962,8944.4
604.045,8983.6
604.127,8920.95
604.21,8852.25
604.293,8863.95
604.375,8863.2
604.458,9025.7
604.541,9218.75
604.623,9164.0
604.706,8915.75
604.789,8851.55
604.871,8860.6
604.954,8841.55
605.037,8841.55
605.119,8831.75
605.202,9011.85
605.285,9109.65
605.367,9192.35
605.45,9063.35
605.533,8870.5
605.615,8865.35
605.698,9055.5
605.781,9152.25
605.863,8992.95
605.946,8992.0
606.029,9043.25
606.111,8946.9
606.194,9141.95
606.277,9324.85
606.359,9387.7
606.442,9073.75
606.524,8880.3
606.607,8939.45
606.69,9113.7
606.772,9239.1
606.855,9255.5
606.938,9064.6
607.02,8999.85
607.103,9187.15
607.185,9315.55
607.268,9183.5
607.351,9123.25
607.433,9064.55
607.516,9135.7
607.599,9211.45
607.681,9279.05
607.764,9189.6
607.846,9272.5
607.929,9229.3
608.012,9283.6
608.094,9316.2
608.177,9141.85
608.259,9112.0
608.342,9106.9
608.425,9179.0
608.507,9461.0
608.59,9511.3
608.672,9355.55
608.755,9136.45
608.837,9152.3
608.92,9309.2
609.003,9497.65
609.085,9444.8
609.168,9317.8
609.25,9350.1
609.333,9256.35
609.415,9132.65
609.498,9166.45
609.581,9318.1
609.663,9533.4
609.746,9521.1
609.828,9523.0
609.911,9439.2
609.993,9247.05
610.076,9320.75
610.158,9480.9
610.241,9433.3
610.324,9490.55
610.406,9699.35
610.489,9518.15
610.571,9355.9
610.654,9514.45
610.736,9553.45
610.819,9406.95
610.901,9592.45
610.984,9735.85
611.066,9579.5
611.149,9500.1
611.231,9598.3
611.314,9655.65
611.396,9533.6
611.479,9584.5
611.561,9712.1
611.644,9746.6
611.727,9662.35
611.809,9531.2
611.892,9515.25
611.974,9442.85
612.057,9516.55
612.139,9612.2
612.222,9789.85
612.304,9995.1
612.386,9947.2
612.469,9828.3
612.551,9708.85
612.634,9840.0
612.716,9718.5
612.799,9586.5
612.881,9603.55
612.964,9569.3
613.046,9615.7
613.129,9496.8
613.211,9511.7
613.294,9631.35
613.376,9961.2
613.459,10162.0
613.541,10024.8
613.624,9805.35
613.706,9777.1
613.789,9785.25
613.871,9723.65
613.953,9744.1
614.036,9757.6
614.118,9738.4
614.201,9760.15
614.283,10012.7
614.366,10257.9
614.448,10029.4
614.531,9995.3
614.613,10077.6
614.695,10115.0
614.778,10051.0
614.86,9877.2
614.943,9829.4
615.025,10056.8
615.108,10170.8
615.19,10002.6
615.272,10039.0
615.355,10052.4
615.437,10060.9
615.52,9912.65
615.602,9867.65
615.684,9979.1
615.767,10115.0
615.849,10364.4
615.932,10246.8
616.014,10083.7
616.097,10046.2
616.179,9919.2
616.261,10013.0
616.344,10088.3
616.426,10256.8
616.508,10427.8
616.591,10370.4
616.673,10268.0
616.756,10280.5
616.838,10117.7
616.92,10112.7
617.003,10261.2
617.085,10198.3
617.168,10108.3
617.25,10283.6
617.332,10383.7
617.415,10377.5
617.497,10323.8
617.579,10257.8
617.662,10291.0
617.744,10432.3
617.826,10385.8
617.909,10533.2
617.991,10624.2
618.073,10522.7
618.156,10455.5
618.238,10556.5
618.32,10511.3
618.403,10375.7
618.485,10434.3
618.567,10645.0
618.65,10649.0
618.732,10527.4
618.814,10631.3
618.897,10707.8
618.979,10615.1
619.061,10547.0
619.144,10519.6
619.226,10480.9
619.308,10705.0
619.391,10564.7
619.473,10334.9
619.555,10588.8
619.638,10811.0
619.72,10824.0
619.802,10567.5
619.885,10617.8
619.967,10799.5
620.049,10811.6
620.131,10669.6
620.214,10791.8
620.296,10809.0
620.378,10714.1
620.461,10781.5
620.543,10796.2
620.625,10740.0
620.707,10798.2
620.79,10990.7
620.872,10845.8
620.954,10782.5
621.037,10951.9
621.119,10872.7
621.201,10847.0
621.283,10779.7
621.366,10805.6
621.448,10648.5
621.53,10789.1
621.612,11156.6
621.695,11119.7
621.777,10874.2
621.859,10779.0
621.941,10836.0
622.024,10909.9
622.106,10899.4
622.188,11103.1
622.27,11304.9
622.353,11249.8
622.435,11093.3
622.517,10874.7
622.599,10745.7
622.682,10912.7
622.764,11162.0
622.846,11199.8
622.928,11017.3
623.01,11009.8
623.093,11126.7
623.175,11207.3
623.257,11392.7
623.339,11360.4
623.422,11079.0
623.504,11015.8
623.586,11234.7
623.668,11002.5
623.75,10958.8
623.833,11274.7
623.915,11343.6
623.997,11410.4
624.079,11327.0
624.161,11160.0
624.244,11158.5
624.326,11222.0
624.408,11259.6
624.49,11306.2
624.572,11403.4
624.654,11400.8
624.737,11548.0
624.819,11572.3
624.901,11296.0
624.983,11362.8
625.065,11394.0
625.147,11358.9
625.23,11258.3
625.312,11311.0
625.394,11528.3
625.476,11647.1
625.558,11425.7
625.64,11356.9
625.723,11421.5
625.805,11453.8
625.887,11439.2
625.969,11428.3
626.051,11441.9
626.133,11424.1
626.215,11464.2
626.298,11488.0
626.38,11524.0
626.462,11512.2
626.544,11472.9
626.626,11596.7
626.708,11579.1
626.79,11410.7
626.872,11474.7
626.955,11427.8
627.037,11475.5
627.119,11603.3
627.201,11660.8
627.283,11731.6
627.365,11469.8
627.447,11274.3
627.529,11499.8
627.611,11760.4
627.693,11832.0
627.776,11748.8
627.858,11827.6
627.94,11813.2
628.022,11653.0
628.104,11643.8
628.186,11477.5
628.268,11740.7
628.35,11905.2
628.432,11581.8
628.514,11577.6
628.596,11689.9
628.678,12011.7
628.761,12054.3
628.843,11798.3
628.925,11606.5
629.007,11768.0
629.089,12077.0
629.171,12138.8
629.253,12038.7
629.335,12071.8
629.417,11923.5
629.499,12013.5
629.581,12060.0
629.663,12087.7
629.745,11897.7
629.827,11837.8
629.909,12045.0
629.991,12065.8
630.073,11848.5
630.155,11662.2
630.237,11737.8
630.319,12071.4
630.401,12167.0
630.483,12026.5
630.565,11773.0
630.647,11964.7
630.73,12281.8
630.812,12304.5
630.894,12116.1
630.976,12083.3
631.058,12123.0
631.14,12156.8
631.222,12136.0
631.304,12075.4
631.386,12099.4
631.468,12169.2
631.55,12380.0
631.632,12407.7
631.714,12177.8
631.796,12198.3
631.877,12418.1
631.959,12572.0
632.041,12393.8
632.123,12352.4
632.205,12271.7
632.287,12260.0
632.369,12335.1
632.451,12511.0
632.533,12394.2
632.615,12240.4
632.697,12098.5
632.779,12197.0
632.861,12436.0
632.943,12458.3
633.025,12447.1
633.107,12250.3
633.189,12133.2
633.271,12395.0
633.353,12301.7
633.435,12404.7
633.517,12610.0
633.599,12717.5
633.681,12624.9
633.763,12413.8
633.844,12253.9
633.926,12555.3
634.008,12586.7
634.09,12241.8
634.172,12284.7
634.254,12399.9
634.336,12412.3
634.418,12184.9
634.5,12268.7
634.582,12563.4
634.664,12479.5
634.746,12329.0
634.827,12275.7
634.909,12272.5
634.991,12263.5
635.073,12318.5
635.155,12357.3
635.237,12455.9
635.319,12555.0
635.401,12552.7
635.483,12276.2
635.564,12160.8
635.646,12193.3
635.728,12201.0
635.81,12522.0
635.892,12596.7
635.974,12708.5
636.056,12632.8
636.138,12773.2
636.219,12811.8
636.301,12520.4
636.383,12493.3
636.465,12914.5
636.547,13428.3
636.629,12886.3
636.711,12710.6
636.792,12607.7
636.874,12569.2
636.956,12688.5
637.038,12728.1
637.12,12714.4
637.202,12746.8
637.283,12438.5
637.365,12203.5
637.447,12334.7
637.529,12364.9
637.611,12130.8
637.693,12183.9
637.774,12410.8
637.856,12490.5
637.938,12639.8
638.02,12512.7
638.102,12315.0
638.184,12379.7
638.265,12413.5
638.347,12626.2
638.429,12717.3
638.511,12809.9
638.593,12700.8
638.674,12533.4
638.756,12316.8
638.838,12276.4
638.92,12190.2
639.002,12301.8
639.083,12482.6
639.165,12679.8
639.247,12667.7
639.329,12375.8
639.41,12468.8
639.492,12389.5
639.574,12074.5
639.656,12243.8
639.737,12541.8
639.819,12386.6
639.901,12294.2
639.983,12341.9
640.065,12450.5
640.146,12590.8
640.228,12688.3
640.31,12425.3
640.392,12241.8
640.473,12184.0
640.555,12061.4
640.637,12067.7
640.719,12343.3
640.8,12387.3
640.882,12384.8
640.964,12499.5
641.045,12287.8
641.127,12151.5
641.209,12234.0
641.291,12180.3
641.372,12204.6
641.454,12370.2
641.536,12354.0
641.618,12364.5
641.699,12361.7
641.781,12382.4
641.863,12259.6
641.944,12285.8
642.026,12393.8
642.108,12325.6
642.189,12213.0
642.271,12392.7
642.353,12551.1
642.435,12401.1
642.516,12467.8
642.598,12472.3
642.68,12185.2
642.761,12231.4
642.843,12241.8
642.925,12263.7
643.006,12448.3
643.088,12342.5
643.17,12095.8
643.251,12297.4
643.333,12075.0
643.415,11818.7
643.496,12167.2
643.578,12477.8
643.66,12225.0
643.741,12184.3
643.823,12134.8
643.905,12316.1
643.986,12539.3
644.068,12617.8
644.149,12491.2
644.231,12588.5
644.313,12567.3
644.394,12324.8
644.476,12280.2
644.558,12384.0
644.639,12225.9
644.721,12053.5
644.803,12189.8
644.884,12106.1
644.966,11958.9
645.047,11986.4
645.129,12101.5
645.211,12205.8
645.292,12372.4
645.374,12665.5
645.455,12589.0
645.537,12222.4
645.619,12105.2
645.7,12265.1
645.782,12315.8
645.863,12233.6
645.945,12133.5
646.027,12085.5
646.108,11993.8
646.19,11856.8
646.271,12095.2
646.353,12364.5
646.435,12226.3
646.516,11998.4
646.598,11982.2
646.679,12179.0
646.761,12287.2
646.842,12336.1
646.924,12430.0
647.005,12428.3
647.087,11850.5
647.169,11627.5
647.25,12036.2
647.332,12373.5
647.413,12358.4
647.495,12177.3
647.576,12023.7
647.658,11983.4
647.739,11693.0
647.821,11854.1
647.902,12131.0
647.984,12143.6
648.066,12101.0
648.147,12126.2
648.229,11904.7
648.31,11913.2
648.392,11740.7
648.473,11615.0
648.555,11789.8
648.636,12081.0
648.718,12179.2
648.799,12095.1
648.881,11977.5
648.962,11906.3
649.044,11996.0
649.125,11686.3
649.207,11434.8
649.288,11449.7
649.37,11831.7
649.451,12035.9
649.533,12044.8
649.614,11949.1
649.696,11785.3
649.777,11445.3
649.859,11646.5
649.94,12020.2
650.022,11996.0
650.103,11874.1
650.184,11601.0
650.266,11363.9
650.347,11639.3
650.429,11741.1
650.51,11824.7
650.592,11678.8
650.673,11713.8
650.755,11711.1
650.836,11787.5
650.918,11759.3
650.999,11734.5
651.08,11789.5
651.162,11599.8
651.243,11370.8
651.325,11360.8
651.406,11778.4
651.488,12326.0
651.569,12085.2
651.651,11528.5
651.732,11280.5
651.813,11518.8
651.895,11648.3
651.976,11682.9
652.058,11597.4
652.139,11700.5
652.22,11624.2
652.302,11489.4
652.383,11374.7
652.465,11414.7
652.546,11568.0
652.627,11603.3
652.709,11672.7
652.79,11351.0
652.872,11371.0
652.953,11503.8
653.034,11200.6
653.116,11099.3
653.197,11284.8
653.278,11266.3
653.36,11328.7
653.441,11375.3
653.523,11457.8
653.604,11421.1
653.685,11392.3
653.767,11269.2
653.848,11149.3
653.929,10932.2
654.011,11054.4
654.092,11187.9
654.173,10870.6
654.255,11091.3
654.336,11299.0
654.418,10956.3
654.499,11030.3
654.58,11284.0
654.662,11185.2
654.743,10996.5
654.824,10977.9
654.906,10852.7
654.987,10996.1
655.068,11266.9
655.149,11284.7
655.231,11253.2
655.312,11152.7
655.393,10948.9
655.475,10770.0
655.556,10698.8
655.637,10717.8
655.719,11138.8
655.8,11410.5
655.881,11231.3
655.963,10955.3
656.044,10963.8
656.125,10901.3
656.206,10649.0
656.288,10712.7
656.369,10772.2
656.45,10794.7
656.532,10780.3
656.613,10806.2
656.694,10981.2
656.775,10903.2
656.857,10897.5
656.938,10793.1
657.019,10653.7
657.1,10728.0
657.182,10749.0
657.263,10918.1
657.344,10785.8
657.425,10768.3
657.507,10752.3
657.588,10591.8
657.669,10408.3
657.75,10469.5
657.832,10640.3
657.913,10653.8
657.994,10406.9
658.075,10329.5
658.157,10509.0
658.238,10462.5
658.319,10510.2
658.4,10565.7
658.482,10660.8
658.563,10719.8
658.644,10596.8
658.725,10422.7
658.806,10287.0
658.888,10331.5
658.969,10527.0
659.05,10471.9
659.131,10524.1
659.212,10411.8
659.294,10205.8
659.375,10080.3
659.456,10030.0
659.537,10083.9
659.618,10170.7
659.7,10331.8
659.781,10403.3
659.862,10381.6
659.943,10261.2
660.024,10285.8
660.105,10176.7
660.187,9986.05
660.268,10146.8
660.349,10261.3
660.43,10156.5
660.511,9860.5
660.592,9780.1
660.674,10120.5
660.755,10169.0
660.836,10068.4
660.917,10012.4
660.998,9904.9
661.079,9679.3
