nm,Intensity
791.588,4772.3
791.862,4775.3
792.136,4769.3
792.411,4746.3
792.685,4737.9
792.959,4709.3
793.233,4705.0
793.507,4681.8
793.781,4715.2
794.056,4697.8
794.33,4675.3
794.604,4682.6
794.878,4676.5
795.152,4713.8
795.426,4691.7
795.701,4695.7
795.975,4709.0
796.249,4697.1
796.523,4690.1
796.797,4674.1
797.071,4689.2
797.345,4687.9
797.619,4688.7
797.894,4668.2
798.168,4681.1
798.442,4661.8
798.716,4683.7
798.99,4680.8
799.264,4675.4
799.538,4658.2
799.812,4666.5
800.086,4665.6
800.36,4663.4
800.634,4662.8
800.908,4644.5
801.182,4627.3
801.456,4641.5
801.73,4623.0
802.004,4615.4
802.278,4603.2
802.552,4614.8
802.826,4599.7
803.1,4616.0
803.374,4607.8
803.648,4599.6
803.922,4600.4
804.196,4609.1
804.47,4582.9
804.744,4597.9
805.018,4600.1
805.292,4596.2
805.566,4597.2
805.84,4605.9
806.114,4583.0
806.388,4587.9
806.662,4575.5
806.936,4585.4
807.209,4570.5
807.483,4562.8
807.757,4571.9
808.031,4568.2
808.305,4550.1
808.579,4557.3
808.853,4539.4
809.127,4539.5
809.4,4549.5
809.674,4573.6
809.948,4565.9
810.222,4595.6
810.496,4587.8
810.77,4560.3
811.043,4539.0
811.317,4531.3
811.591,4525.7
811.865,4541.3
812.139,4530.8
812.412,4520.5
812.686,4506.6
812.96,4516.8
813.234,4513.0
813.507,4502.2
813.781,4496.6
814.055,4494.4
814.329,4520.3
814.602,4494.6
814.876,4482.3
815.15,4467.3
815.424,4443.9
815.697,4434.8
815.971,4457.1
816.245,4447.5
816.518,4453.0
816.792,4425.4
817.066,4426.9
817.34,4446.8
817.613,4424.9
817.887,4426.1
818.161,4419.0
818.434,4435.0
818.708,4431.9
818.981,4439.1
819.255,4420.1
819.529,4415.8
819.802,4404.8
820.076,4407.5
820.35,4399.7
820.623,4396.4
820.897,4400.6
821.17,4397.0
821.444,4397.5
821.718,4391.2
821.991,4379.1
822.265,4374.6
822.538,4367.2
822.812,4362.1
823.085,4361.9
823.359,4360.4
823.632,4376.7
823.906,4362.4
824.18,4361.0
824.453,4363.2
824.727,4365.0
825.0,4363.4
825.274,4361.1
825.547,4360.6
825.821,4338.8
826.094,4324.0
826.367,4341.2
826.641,4327.6
826.914,4328.6
827.188,4315.4
827.461,4317.9
827.735,4308.2
828.008,4321.0
828.282,4321.2
828.555,4319.0
828.828,4302.1
829.102,4305.3
829.375,4294.4
829.649,4297.1
829.922,4304.1
830.195,4280.8
830.469,4276.5
830.742,4282.8
831.016,4281.1
831.289,4276.1
831.562,4286.4
831.836,4296.2
832.109,4274.6
832.382,4264.8
832.656,4269.1
832.929,4244.8
833.202,4262.7
833.476,4269.3
833.749,4249.9
834.022,4249.0
834.295,4247.6
834.569,4244.0
834.842,4242.8
835.115,4251.0
835.388,4255.2
835.662,4245.3
835.935,4244.0
836.208,4251.7
836.481,4240.6
836.755,4240.2
837.028,4244.1
837.301,4255.1
837.574,4265.1
837.848,4274.5
838.121,4292.1
838.394,4275.8
838.667,4267.8
838.94,4246.3
839.213,4236.7
839.487,4257.9
839.76,4232.7
840.033,4260.0
840.306,4274.6
840.579,4254.5
840.852,4227.6
841.125,4225.4
841.399,4226.4
841.672,4216.3
841.945,4206.1
842.218,4203.6
842.491,4218.2
842.764,4194.9
843.037,4189.8
843.31,4196.5
843.583,4199.2
843.856,4206.5
844.129,4192.7
844.402,4188.7
844.675,4184.6
844.948,4190.2
845.221,4184.9
845.495,4185.1
845.768,4173.5
846.041,4184.2
846.314,4180.7
846.586,4179.7
846.859,4179.7
847.132,4178.0
847.405,4177.9
847.678,4178.1
847.951,4182.1
848.224,4165.3
848.497,4166.0
848.77,4170.1
849.043,4170.4
849.316,4177.6
849.589,4179.9
849.862,4170.5
850.135,4176.4
850.408,4172.6
850.681,4169.1
850.953,4173.0
851.226,4164.6
851.499,4166.8
851.772,4173.2
852.045,4168.0
852.318,4161.0
852.591,4165.4
852.863,4154.1
853.136,4157.7
853.409,4154.6
853.682,4149.1
853.955,4163.1
854.227,4160.6
854.5,4153.1
854.773,4150.2
855.046,4129.5
855.318,4157.8
855.591,4146.1
855.864,4145.9
856.137,4146.1
856.409,4138.7
856.682,4131.6
856.955,4140.7
857.228,4134.3
857.5,4128.3
857.773,4137.6
858.046,4144.4
858.318,4141.3
858.591,4130.8
858.864,4122.9
859.137,4127.7
859.409,4122.5
859.682,4124.9
859.954,4114.2
860.227,4131.4
860.5,4125.9
860.772,4123.6
861.045,4125.6
861.318,4122.8
861.59,4112.9
861.863,4135.0
862.135,4137.0
862.408,4137.6
862.681,4146.0
862.953,4144.8
863.226,4140.0
863.498,4136.7
863.771,4134.0
864.043,4137.8
864.316,4125.1
864.588,4119.7
864.861,4119.1
865.133,4110.9
865.406,4103.7
865.678,4111.9
865.951,4099.5
866.223,4099.0
866.496,4106.9
866.768,4098.8
867.041,4096.7
867.313,4103.4
867.586,4104.5
867.858,4103.4
868.131,4103.2
868.403,4104.9
868.675,4101.4
868.948,4086.8
869.22,4093.4
869.493,4087.0
869.765,4085.6
870.037,4092.7
870.31,4080.9
870.582,4094.6
870.854,4090.8
871.127,4081.4
871.399,4078.3
871.672,4082.7
871.944,4086.6
872.216,4078.4
872.488,4077.8
872.761,4080.7
873.033,4079.8
873.305,4084.2
873.578,4077.0
873.85,4083.5
874.122,4089.3
874.394,4082.1
874.667,4082.3
874.939,4072.1
875.211,4079.8
875.483,4091.1
875.756,4091.3
876.028,4105.5
876.3,4111.8
876.572,4103.3
876.845,4090.1
877.117,4088.9
877.389,4083.4
877.661,4077.2
877.933,4070.2
878.205,4070.9
878.478,4074.6
878.75,4076.2
879.022,4065.7
879.294,4064.5
879.566,4054.1
879.838,4055.4
880.11,4061.3
880.382,4056.7
880.654,4053.4
880.927,4045.1
881.199,4046.5
881.471,4040.5
881.743,4039.2
882.015,4046.4
882.287,4034.9
882.559,4046.8
882.831,4035.4
883.103,4044.0
883.375,4042.0
883.647,4046.4
883.919,4043.7
884.191,4041.2
884.463,4054.8
884.735,4051.5
885.007,4052.5
885.279,4054.8
885.551,4062.0
885.823,4072.7
886.095,4066.2
886.367,4061.0
886.639,4047.5
886.91,4044.5
887.182,4034.6
887.454,4032.8
887.726,4029.2
887.998,4023.2
888.27,4018.2
888.542,4017.7
888.814,4007.4
889.085,4002.9
889.357,3999.3
889.629,4002.8
889.901,4003.5
890.173,3999.2
890.445,4007.7
890.716,4005.2
890.988,4005.6
891.26,4002.9
891.532,4006.3
891.804,4000.9
892.075,4001.5
892.347,3990.7
892.619,3988.0
892.891,3992.2
893.162,3994.4
893.434,3983.5
893.706,3985.7
893.978,3985.4
894.249,3978.6
894.521,3979.1
894.793,3977.4
895.064,3982.4
895.336,3972.6
895.608,3981.9
895.879,3969.6
896.151,3971.9
896.423,3974.4
896.694,3968.2
896.966,3966.5
897.237,3966.5
897.509,3965.7
897.781,3968.3
898.052,3966.2
898.324,3961.6
898.595,3951.2
898.867,3960.9
899.139,3959.4
899.41,3959.8
899.682,3957.8
899.953,3956.8
900.225,3959.2
900.496,3958.0
900.768,3945.5
901.039,3953.8
901.311,3946.0
901.582,3950.3
901.854,3940.2
902.125,3942.2
902.397,3939.2
902.668,3949.9
902.94,3943.4
903.211,3944.0
903.482,3937.1
903.754,3942.5
904.025,3943.0
904.297,3932.9
904.568,3930.0
904.839,3935.7
905.111,3938.3
905.382,3933.4
905.654,3930.7
905.925,3926.7
906.196,3925.7
906.468,3923.6
906.739,3926.1
907.01,3932.0
907.282,3928.9
907.553,3918.1
907.824,3920.0
908.096,3917.8
908.367,3921.2
908.638,3924.3
908.909,3917.7
909.181,3910.7
909.452,3910.5
909.723,3907.5
909.994,3916.6
910.266,3912.4
910.537,3915.8
910.808,3905.4
911.079,3910.0
911.35,3910.4
911.622,3909.1
911.893,3906.4
912.164,3901.3
912.435,3897.8
912.706,3903.2
912.977,3899.1
913.249,3902.2
913.52,3904.6
913.791,3896.7
914.062,3896.9
914.333,3899.6
914.604,3897.1
914.875,3893.5
915.146,3895.9
915.417,3893.9
915.688,3890.8
915.959,3891.3
916.231,3891.2
916.502,3888.7
916.773,3887.6
917.044,3890.7
917.315,3886.0
917.586,3887.7
917.857,3888.1
918.128,3885.8
918.399,3883.7
918.67,3885.6
918.941,3884.7
919.211,3884.7
919.482,3877.8
919.753,3883.3
920.024,3880.5
920.295,3876.8
920.566,3870.9
920.837,3874.4
921.108,3873.9
921.379,3870.9
921.65,3872.7
921.921,3870.7
922.191,3871.5
922.462,3868.1
922.733,3866.8
923.004,3863.8
923.275,3868.0
923.546,3864.5
923.816,3866.9
924.087,3860.0
924.358,3863.9
924.629,3863.9
924.9,3861.8
925.17,3859.7
925.441,3853.9
925.712,3854.1
925.983,3859.6
926.253,3858.6
926.524,3859.3
926.795,3858.2
927.065,3854.2
927.336,3850.2
927.607,3855.1
927.877,3851.8
928.148,3847.6
928.419,3851.1
928.689,3852.3
928.96,3849.5
929.231,3845.3
929.501,3848.6
929.772,3845.8
930.043,3846.4
930.313,3844.4
930.584,3843.6
930.854,3839.3
931.125,3841.3
931.396,3837.3
931.666,3841.0
931.937,3839.7
932.207,3836.1
932.478,3839.2
932.748,3837.2
933.019,3836.6
933.289,3833.0
933.56,3838.4
933.83,3833.5
934.101,3834.6
934.371,3835.0
934.642,3828.2
934.912,3827.3
935.183,3829.9
935.453,3825.9
935.723,3829.8
935.994,3831.3
936.264,3829.6
936.535,3833.0
936.805,3827.7
937.075,3825.3
937.346,3826.8
937.616,3826.6
937.886,3823.5
938.157,3825.6
938.427,3825.7
938.697,3823.9
938.968,3824.8
939.238,3821.9
939.508,3819.5
939.779,3825.6
940.049,3819.9
940.319,3819.2
940.59,3817.2
940.86,3819.2
941.13,3818.8
941.4,3816.0
941.671,3813.2
941.941,3814.5
942.211,3813.2
942.481,3816.1
942.751,3816.7
943.022,3817.0
943.292,3812.4
943.562,3813.9
943.832,3814.2
944.102,3813.2
944.372,3811.8
944.642,3816.8
944.913,3812.3
945.183,3808.7
945.453,3805.7
945.723,3806.6
945.993,3807.4
946.263,3806.7
946.533,3810.3
946.803,3811.3
947.073,3811.2
947.343,3803.6
947.613,3806.6
947.883,3804.1
948.153,3806.2
948.423,3804.1
948.693,3804.9
948.963,3805.6
949.233,3804.8
949.503,3807.6
949.773,3805.6
950.043,3801.3
950.313,3801.6
950.583,3797.2
950.853,3801.1
951.123,3803.8
951.393,3798.1
951.663,3801.7
951.933,3802.1
952.202,3801.3
952.472,3799.1
952.742,3797.0
953.012,3797.3
953.282,3795.5
953.552,3797.5
953.822,3797.1
954.091,3798.6
954.361,3797.8
954.631,3799.2
954.901,3798.8
955.17,3798.1
955.44,3795.0
955.71,3793.8
955.98,3796.7
956.25,3791.3
956.519,3792.4
956.789,3795.1
957.059,3793.6
957.328,3793.2
957.598,3793.5
957.868,3792.5
958.137,3791.1
958.407,3793.2
958.677,3793.8
958.946,3793.4
959.216,3789.6
959.486,3790.2
959.755,3789.9
960.025,3787.0
960.294,3786.7
960.564,3790.3
960.834,3791.6
961.103,3788.7
961.373,3785.8
961.642,3784.1
961.912,3789.3
962.181,3789.1
962.451,3788.0
962.72,3787.9
962.99,3786.0
963.259,3785.8
963.529,3785.8
963.798,3783.8
964.068,3785.5
964.337,3785.8
964.607,3789.7
964.876,3786.7
965.146,3786.3
965.415,3784.5
965.684,3784.1
965.954,3787.9
966.223,3783.6
966.493,3786.2
966.762,3783.5
967.031,3785.1
967.301,3785.6
967.57,3783.5
967.839,3784.6
968.109,3782.2
968.378,3786.1
968.647,3781.7
968.917,3782.2
969.186,3782.0
969.455,3781.5
969.724,3778.9
969.994,3777.9
970.263,3781.2
970.532,3783.1
970.801,3780.9
971.071,3783.5
971.34,3779.4
971.609,3780.6
971.878,3782.3
972.147,3780.1
972.417,3779.4
972.686,3778.9
972.955,3779.1
973.224,3780.5
973.493,3777.5
973.762,3781.6
974.031,3778.1
974.3,3776.5
974.57,3777.2
974.839,3778.4
975.108,3778.8
975.377,3777.0
975.646,3778.6
975.915,3775.6
976.184,3774.2
976.453,3775.4
976.722,3775.3
976.991,3777.9
977.26,3776.2
977.529,3776.8
977.798,3776.2
978.067,3775.8
978.336,3776.5
978.605,3774.2
978.874,3776.5
979.143,3776.2
979.412,3775.5
979.68,3775.7
979.949,3776.4
980.218,3773.4
980.487,3774.7
980.756,3773.5
981.025,3772.7
981.294,3773.7
981.563,3772.6
981.831,3771.6
982.1,3773.6
982.369,3772.3
982.638,3773.6
982.907,3773.5
983.175,3773.0
983.444,3776.1
983.713,3772.0
983.982,3772.0
984.25,3772.6
984.519,3774.9
984.788,3771.0
985.057,3773.1
985.325,3772.6
985.594,3771.4
985.863,3772.7
986.131,3771.9
986.4,3775.9
986.669,3772.8
986.937,3771.8
987.206,3770.8
987.475,3769.4
987.743,3769.6
988.012,3769.5
988.28,3768.3
988.549,3770.9
988.817,3770.9
989.086,3769.5
989.355,3769.0
989.623,3770.7
989.892,3767.7
990.16,3769.2
990.429,3768.8
990.697,3770.3
990.966,3770.8
991.234,3769.6
991.503,3768.4
991.771,3766.9
992.04,3768.8
992.308,3768.5
992.576,3768.1
992.845,3769.4
993.113,3769.2
993.382,3767.9
993.65,3767.2
993.918,3767.8
994.187,3766.7
994.455,3769.2
994.723,3768.5
994.992,3767.0
995.26,3768.8
995.528,3766.0
995.797,3767.3
996.065,3769.2
996.333,3768.6
996.602,3767.1
996.87,3767.7
997.138,3767.2
997.406,3767.6
997.675,3765.2
997.943,3768.5
998.211,3767.8
998.479,3765.1
998.747,3769.3
999.016,3766.1
999.284,3765.2
999.552,3765.9
999.82,3764.6
1000.09,3765.3
1000.36,3766.7
1000.62,3763.5
1000.89,3766.4
1001.16,3765.8
1001.43,3767.0
1001.7,3764.9
1001.97,3763.8
1002.23,3766.8
1002.5,3763.9
1002.77,3763.3
1003.04,3763.8
1003.31,3765.0
1003.57,3766.4
1003.84,3761.2
1004.11,3762.9
1004.38,3763.9
1004.65,3763.8
1004.91,3762.0
1005.18,3762.6
1005.45,3762.1
1005.72,3762.5
1005.98,3762.7
1006.25,3762.7
1006.52,3762.0
1006.79,3762.5
1007.06,3764.0
1007.32,3762.0
1007.59,3762.5
1007.86,3763.1
1008.13,3763.8
1008.4,3764.1
1008.66,3765.0
1008.93,3764.4
1009.2,3764.1
1009.47,3765.0
1009.73,3766.3
1010.0,3767.5
1010.27,3767.7
1010.54,3767.3
1010.81,3766.7
1011.07,3769.9
1011.34,3769.6
1011.61,3770.3
1011.88,3770.3
1012.14,3770.9
1012.41,3768.0
1012.68,3770.7
1012.95,3773.9
1013.21,3772.7
1013.48,3769.6
1013.75,3772.1
1014.02,3776.4
1014.29,3773.5
1014.55,3775.5
1014.82,3775.8
1015.09,3773.6
1015.36,3773.0
1015.62,3772.2
1015.89,3773.6
1016.16,3771.9
1016.43,3773.8
1016.69,3770.6
1016.96,3772.0
1017.23,3771.2
1017.5,3771.1
1017.76,3769.0
1018.03,3767.8
1018.3,3768.9
1018.57,3767.2
1018.83,3767.4
1019.1,3768.0
1019.37,3766.1
1019.63,3765.7
1019.9,3765.1
1020.17,3761.4
1020.44,3766.1
1020.7,3763.5
1020.97,3761.2
1021.24,3764.4
1021.51,3762.0
1021.77,3762.3
1022.04,3764.1
1022.31,3763.1
1022.58,3763.2
1022.84,3761.4
1023.11,3762.1
1023.38,3761.6
1023.64,3758.7
1023.91,3760.3
1024.18,3759.0
1024.45,3761.5
1024.71,3758.4
1024.98,3759.8
1025.25,3758.5
1025.51,3757.5
1025.78,3758.3
1026.05,3756.9
1026.32,3758.8
1026.58,3755.8
1026.85,3756.7
1027.12,3755.7
1027.38,3758.5
1027.65,3757.2
1027.92,3757.4
1028.19,3758.8
1028.45,3755.7
1028.72,3758.5
1028.99,3754.5
1029.25,3756.8
1029.52,3755.9
1029.79,3755.7
1030.05,3758.4
1030.32,3756.8
1030.59,3756.5
1030.85,3757.4
1031.12,3757.5
1031.39,3757.3
1031.66,3759.9
1031.92,3758.5
1032.19,3757.0
1032.46,3754.8
1032.72,3755.6
1032.99,3755.9
1033.26,3755.6
1033.52,3754.1
1033.79,3756.7
1034.06,3754.8
1034.32,3757.4
1034.59,3757.6
1034.86,3757.0
1035.12,3755.2
1035.39,3756.3
1035.66,3757.1
1035.92,3754.9
1036.19,3755.6
1036.46,3754.8
1036.72,3754.6
1036.99,3755.4
1037.26,3755.0
1037.52,3756.4
1037.79,3755.5
1038.06,3756.4
1038.32,3754.2
1038.59,3754.6
1038.86,3755.0
1039.12,3753.8
1039.39,3754.1
1039.66,3757.5
1039.92,3755.2
1040.19,3755.5
1040.46,3754.6
1040.72,3755.2
1040.99,3755.0
1041.26,3754.1
1041.52,3755.4
1041.79,3755.2
1042.06,3754.5
1042.32,3756.4
1042.59,3752.9
1042.86,3755.8
1043.12,3754.8
1043.39,3754.6
1043.65,3754.6
1043.92,3755.6
1044.19,3756.6
1044.45,3755.8
1044.72,3755.3
1044.99,3753.5
1045.25,3754.0
1045.52,3754.8
1045.79,3755.0
1046.05,3756.2
1046.32,3754.5
1046.58,3753.4
1046.85,3756.3
1047.12,3753.6
1047.38,3755.1
1047.65,3755.6
1047.92,3753.4
1048.18,3753.8
1048.45,3755.3
1048.71,3754.6
1048.98,3753.2
1049.25,3753.5
1049.51,3754.6
1049.78,3752.1
1050.04,3754.1
1050.31,3753.3
1050.58,3753.6
1050.84,3753.4
1051.11,3755.3
1051.37,3753.6
1051.64,3753.4
1051.91,3755.1
1052.17,3756.6
1052.44,3754.9
1052.7,3754.0
1052.97,3753.6
1053.24,3754.4
1053.5,3753.9
1053.77,3753.2
1054.03,3753.7
1054.3,3754.6
1054.57,3753.6
1054.83,3753.6
1055.1,3755.9
1055.36,3753.3
1055.63,3753.1
1055.9,3753.5
1056.16,3753.1
1056.43,3753.7
1056.69,3752.5
1056.96,3756.6
1057.23,3753.5
1057.49,3753.3
1057.76,3753.4
1058.02,3753.3
1058.29,3753.7
1058.55,3753.9
1058.82,3753.5
1059.09,3754.8
1059.35,3753.3
1059.62,3753.8
1059.88,3753.4
1060.15,3753.4
1060.41,3757.0
1060.68,3753.2
1060.95,3753.9
1061.21,3753.8
1061.48,3752.7
1061.74,3752.1
1062.01,3755.0
1062.27,3755.3
1062.54,3754.3
1062.8,3752.9
1063.07,3754.4
1063.34,3753.4
1063.6,3752.1
1063.87,3753.1
1064.13,3753.9
1064.4,3753.1
1064.66,3752.9
1064.93,3752.2
1065.19,3755.8
1065.46,3752.5
1065.73,3753.1
1065.99,3750.8
1066.26,3754.4
1066.52,3751.8
1066.79,3753.7
1067.05,3754.5
1067.32,3753.5
1067.58,3752.9
1067.85,3751.9
1068.11,3752.3
