nm,Intensity
791.377,5812.26
791.652,5760.34
791.927,5750.06
792.202,5690.9
792.477,5637.46
792.752,5611.68
793.027,5562.34
793.301,5538.4
793.576,5511.92
793.851,5508.2
794.126,5478.76
794.401,5508.34
794.676,5564.4
794.951,5521.84
795.225,5519.52
795.5,5552.58
795.775,5600.26
796.05,5604.56
796.325,5553.08
796.599,5502.94
796.874,5503.22
797.149,5468.98
797.424,5456.94
797.698,5429.0
797.973,5466.54
798.248,5491.8
798.523,5467.08
798.797,5422.7
799.072,5435.44
799.347,5449.58
799.622,5447.68
799.896,5443.04
800.171,5397.7
800.446,5426.02
800.72,5448.2
800.995,5401.38
801.27,5381.56
801.544,5394.46
801.819,5358.74
802.094,5363.58
802.368,5345.94
802.643,5321.78
802.918,5333.24
803.192,5301.26
803.467,5303.44
803.742,5288.96
804.016,5288.8
804.291,5322.94
804.565,5325.36
804.84,5308.62
805.114,5288.82
805.389,5301.5
805.664,5258.12
805.938,5257.48
806.213,5246.08
806.487,5229.38
806.762,5260.24
807.036,5250.56
807.311,5226.86
807.585,5205.56
807.86,5191.36
808.134,5229.4
808.409,5217.82
808.683,5189.12
808.958,5198.68
809.232,5180.76
809.507,5202.76
809.781,5242.88
810.056,5309.3
810.33,5349.9
810.605,5282.7
810.879,5212.56
811.153,5203.54
811.428,5157.98
811.702,5162.78
811.977,5166.46
812.251,5161.36
812.525,5161.0
812.8,5135.5
813.074,5113.3
813.349,5156.36
813.623,5144.4
813.897,5144.84
814.172,5165.62
814.446,5115.18
814.72,5089.78
814.995,5040.06
815.269,5057.38
815.543,5091.42
815.818,5094.34
816.092,5036.08
816.366,5027.22
816.64,5017.32
816.915,5048.92
817.189,5028.12
817.463,4995.74
817.737,4974.8
818.012,4991.04
818.286,5032.86
818.56,5027.2
818.834,5033.62
819.109,5013.26
819.383,5005.84
819.657,4970.08
819.931,4957.16
820.205,4940.92
820.48,4949.48
820.754,4960.04
821.028,4916.84
821.302,4914.6
821.576,4917.32
821.85,4914.86
822.125,4921.06
822.399,4921.24
822.673,4926.5
822.947,4905.9
823.221,4915.58
823.495,4909.36
823.769,4890.36
824.043,4872.28
824.317,4866.06
824.591,4884.1
824.865,4863.22
825.14,4885.54
825.414,4894.0
825.688,4833.58
825.962,4825.56
826.236,4842.94
826.51,4840.46
826.784,4824.86
827.058,4833.4
827.332,4837.58
827.606,4828.7
827.88,4813.94
828.154,4811.4
828.428,4778.74
828.702,4782.18
828.976,4803.34
829.249,4816.58
829.523,4806.78
829.797,4793.2
830.071,4775.28
830.345,4757.96
830.619,4764.62
830.893,4760.88
831.167,4740.9
831.441,4761.58
831.715,4775.38
831.988,4745.86
832.262,4737.62
832.536,4746.32
832.81,4736.38
833.084,4719.94
833.358,4761.12
833.632,4756.22
833.905,4724.46
834.179,4721.88
834.453,4717.08
834.727,4704.44
835.001,4725.58
835.274,4703.9
835.548,4703.36
835.822,4712.72
836.096,4713.88
836.369,4692.5
836.643,4693.62
836.917,4695.54
837.191,4741.96
837.464,4798.12
837.738,4837.94
838.012,4897.34
838.285,4891.58
838.559,4824.1
838.833,4775.92
839.106,4733.08
839.38,4707.04
839.654,4730.76
839.927,4770.28
840.201,4810.36
840.475,4825.94
840.748,4799.5
841.022,4750.84
841.295,4704.0
841.569,4679.38
841.843,4658.3
842.116,4632.5
842.39,4648.64
842.663,4640.58
842.937,4637.58
843.211,4622.82
843.484,4627.36
843.758,4628.58
844.031,4629.16
844.305,4646.34
844.578,4657.24
844.852,4656.48
845.125,4611.78
845.399,4589.2
845.672,4592.64
845.946,4602.92
846.219,4571.98
846.493,4577.02
846.766,4604.38
847.039,4617.92
847.313,4633.26
847.586,4620.24
847.86,4597.78
848.133,4623.36
848.407,4615.26
848.68,4594.14
848.953,4598.22
849.227,4612.26
849.5,4632.84
849.773,4651.42
850.047,4620.02
850.32,4610.64
850.593,4592.58
850.867,4603.44
851.14,4622.88
851.413,4612.68
851.687,4626.9
851.96,4626.26
852.233,4606.86
852.507,4573.46
852.78,4559.78
853.053,4563.76
853.326,4577.34
853.6,4565.38
853.873,4561.0
854.146,4583.02
854.419,4604.34
854.693,4602.72
854.966,4573.32
855.239,4567.78
855.512,4558.34
855.785,4546.02
856.059,4548.44
856.332,4537.0
856.605,4540.0
856.878,4521.52
857.151,4515.76
857.424,4529.02
857.698,4534.78
857.971,4525.5
858.244,4533.0
858.517,4525.3
858.79,4522.52
859.063,4546.2
859.336,4549.08
859.609,4544.14
859.882,4524.08
860.155,4503.24
860.428,4494.6
860.701,4511.92
860.974,4511.44
861.247,4507.14
861.52,4514.22
861.793,4532.3
862.066,4541.08
862.339,4562.2
862.612,4597.62
862.885,4621.86
863.158,4586.36
863.431,4582.88
863.704,4581.78
863.977,4580.3
864.25,4561.54
864.523,4550.14
864.796,4528.56
865.069,4504.36
865.342,4509.84
865.615,4496.3
865.888,4487.8
866.16,4482.3
866.433,4460.6
866.706,4477.4
866.979,4490.14
867.252,4502.4
867.525,4493.34
867.798,4500.4
868.07,4494.26
868.343,4480.6
868.616,4460.9
868.889,4474.6
869.162,4464.02
869.434,4461.3
869.707,4475.34
869.98,4462.8
870.253,4446.58
870.525,4461.42
870.798,4456.82
871.071,4464.54
871.344,4471.5
871.616,4465.16
871.889,4454.84
872.162,4457.12
872.434,4455.68
872.707,4448.24
872.98,4454.02
873.252,4449.42
873.525,4457.14
873.798,4455.74
874.07,4478.68
874.343,4475.84
874.615,4466.18
874.888,4458.16
875.161,4460.9
875.433,4476.16
875.706,4496.0
875.978,4498.88
876.251,4505.56
876.524,4502.54
876.796,4502.56
877.069,4516.5
877.341,4498.04
877.614,4451.78
877.886,4427.5
878.159,4439.9
878.431,4439.26
878.704,4430.18
878.976,4430.12
879.249,4431.18
879.521,4401.78
879.794,4401.58
880.066,4400.34
880.338,4392.22
880.611,4379.58
880.883,4381.9
881.156,4376.28
881.428,4363.84
881.7,4342.0
881.973,4334.68
882.245,4342.5
882.518,4351.82
882.79,4366.88
883.062,4370.58
883.335,4365.42
883.607,4354.34
883.879,4375.22
884.152,4384.08
884.424,4397.34
884.696,4410.94
884.968,4417.3
885.241,4417.54
885.513,4435.32
885.785,4456.72
886.058,4467.98
886.33,4472.76
886.602,4458.62
886.874,4426.54
887.146,4399.52
887.419,4366.76
887.691,4356.44
887.963,4335.02
888.235,4300.26
888.507,4293.62
888.78,4296.4
889.052,4295.92
889.324,4287.2
889.596,4280.92
889.868,4270.34
890.14,4283.68
890.412,4288.42
890.684,4280.18
890.957,4294.16
891.229,4285.36
891.501,4285.34
891.773,4277.56
892.045,4265.22
892.317,4251.96
892.589,4252.78
892.861,4258.16
893.133,4258.16
893.405,4251.06
893.677,4253.22
893.949,4255.02
894.221,4239.06
894.493,4227.78
894.765,4230.2
895.037,4225.68
895.309,4216.5
895.581,4221.48
895.853,4219.8
896.125,4222.74
896.397,4213.86
896.668,4206.88
896.94,4203.98
897.212,4205.66
897.484,4193.7
897.756,4216.2
898.028,4210.6
898.3,4193.32
898.571,4185.54
898.843,4194.84
899.115,4191.06
899.387,4182.24
899.659,4181.64
899.931,4179.16
900.202,4173.92
900.474,4173.56
900.746,4180.76
901.018,4171.04
901.289,4166.72
901.561,4162.62
901.833,4148.14
902.105,4149.68
902.376,4157.98
902.648,4161.06
902.92,4147.42
903.191,4140.76
903.463,4144.88
903.735,4142.48
904.006,4132.16
904.278,4131.4
904.55,4143.48
904.821,4139.18
905.093,4130.16
905.365,4126.96
905.636,4118.06
905.908,4110.8
906.179,4110.46
906.451,4116.06
906.722,4112.34
906.994,4110.4
907.266,4110.3
907.537,4103.72
907.809,4109.96
908.08,4106.58
908.352,4100.16
908.623,4098.2
908.895,4093.86
909.166,4088.44
909.438,4088.22
909.709,4083.18
909.981,4091.0
910.252,4086.04
910.523,4085.44
910.795,4075.44
911.066,4073.24
911.338,4079.04
911.609,4076.66
911.881,4079.66
912.152,4073.04
912.423,4074.96
912.695,4067.0
912.966,4058.4
913.237,4053.74
913.509,4046.58
913.78,4050.04
914.051,4065.26
914.323,4055.04
914.594,4041.66
914.865,4037.98
915.136,4046.4
915.408,4042.66
915.679,4040.8
915.95,4040.36
916.221,4037.78
916.493,4028.34
916.764,4036.16
917.035,4036.98
917.306,4032.66
917.578,4025.22
917.849,4023.3
918.12,4020.6
918.391,4024.1
918.662,4014.94
918.933,4012.28
919.204,4015.98
919.476,4011.66
919.747,4022.0
920.018,4021.14
920.289,4010.04
920.56,4010.92
920.831,4007.02
921.102,3999.46
921.373,4001.6
921.644,3996.44
921.915,3993.36
922.186,3992.94
922.457,3992.26
922.728,3990.46
922.999,3988.0
923.27,3987.3
923.541,3990.18
923.812,3988.28
924.083,3981.12
924.354,3970.48
924.625,3968.88
924.896,3969.54
925.167,3973.32
925.438,3974.32
925.709,3971.06
925.98,3963.9
926.251,3962.86
926.522,3964.6
926.792,3961.44
927.063,3960.98
927.334,3961.34
927.605,3958.7
927.876,3959.26
928.147,3951.96
928.417,3951.32
928.688,3949.8
928.959,3944.54
929.23,3944.72
929.501,3941.16
929.771,3945.28
930.042,3945.88
930.313,3940.96
930.584,3940.96
930.854,3938.04
931.125,3933.36
931.396,3935.94
931.666,3933.14
931.937,3931.38
932.208,3926.04
932.478,3927.54
932.749,3930.08
933.02,3923.86
933.29,3926.34
933.561,3925.5
933.832,3925.26
934.102,3920.72
934.373,3918.32
934.643,3914.9
934.914,3912.0
935.184,3911.44
935.455,3911.3
935.726,3911.04
935.996,3910.6
936.267,3913.2
936.537,3908.92
936.808,3907.16
937.078,3906.22
937.349,3905.52
937.619,3901.64
937.89,3901.44
938.16,3900.66
938.43,3895.16
938.701,3895.5
938.971,3893.4
939.242,3893.1
939.512,3889.96
939.782,3893.34
940.053,3894.26
940.323,3889.5
940.594,3887.58
940.864,3890.42
941.134,3890.36
941.405,3888.04
941.675,3886.12
941.945,3882.04
942.216,3881.76
942.486,3878.28
942.756,3876.9
943.026,3876.28
943.297,3876.22
943.567,3876.94
943.837,3878.28
944.107,3877.88
944.378,3875.88
944.648,3872.46
944.918,3866.06
945.188,3868.36
945.458,3868.66
945.729,3865.3
945.999,3864.62
946.269,3866.04
946.539,3866.0
946.809,3863.62
947.079,3863.66
947.349,3858.32
947.62,3864.76
947.89,3863.56
948.16,3856.86
948.43,3854.96
948.7,3855.62
948.97,3857.4
949.24,3854.0
949.51,3854.54
949.78,3856.08
950.05,3856.86
950.32,3853.32
950.59,3854.68
950.86,3852.08
951.13,3849.02
951.4,3850.02
951.67,3850.48
951.94,3847.76
952.21,3845.46
952.48,3843.78
952.75,3841.6
953.02,3840.76
953.289,3841.34
953.559,3838.88
953.829,3838.46
954.099,3840.7
954.369,3838.94
954.639,3840.9
954.909,3838.14
955.178,3837.38
955.448,3834.88
955.718,3832.86
955.988,3832.72
956.257,3833.02
956.527,3835.48
956.797,3837.8
957.067,3835.1
957.336,3833.28
957.606,3830.06
957.876,3831.34
958.146,3825.28
958.415,3825.12
958.685,3825.28
958.955,3826.78
959.224,3826.06
959.494,3827.18
959.764,3826.08
960.033,3825.38
960.303,3824.78
960.572,3824.46
960.842,3820.08
961.112,3820.92
961.381,3820.42
961.651,3818.22
961.92,3816.22
962.19,3818.32
962.459,3818.94
962.729,3816.88
962.998,3815.96
963.268,3814.08
963.537,3813.12
963.807,3817.74
964.076,3815.0
964.346,3812.76
964.615,3811.24
964.885,3812.08
965.154,3812.9
965.424,3812.78
965.693,3811.8
965.962,3808.34
966.232,3809.24
966.501,3810.62
966.771,3809.66
967.04,3809.62
967.309,3809.0
967.579,3807.92
967.848,3805.82
968.117,3804.24
968.387,3805.4
968.656,3804.94
968.925,3805.68
969.194,3803.44
969.464,3800.96
969.733,3798.3
970.002,3798.16
970.271,3799.96
970.541,3799.52
970.81,3801.24
971.079,3797.52
971.348,3799.76
971.617,3798.08
971.887,3799.6
972.156,3798.66
972.425,3798.24
972.694,3798.64
972.963,3799.8
973.232,3797.9
973.501,3794.62
973.77,3794.86
974.04,3794.92
974.309,3793.36
974.578,3794.68
974.847,3792.16
975.116,3791.4
975.385,3788.8
975.654,3789.78
975.923,3792.04
976.192,3791.04
976.461,3790.08
976.73,3790.36
976.999,3789.66
977.268,3787.0
977.537,3787.78
977.806,3786.82
978.074,3785.22
978.343,3787.02
978.612,3787.74
978.881,3786.12
979.15,3784.62
979.419,3787.14
979.688,3788.64
979.957,3786.28
980.225,3784.8
980.494,3784.84
980.763,3786.32
981.032,3786.34
981.301,3782.96
981.569,3782.84
981.838,3780.78
982.107,3781.28
982.376,3780.72
982.644,3779.6
982.913,3778.94
983.182,3778.02
983.451,3781.14
983.719,3781.0
983.988,3778.76
984.257,3779.4
984.525,3778.3
984.794,3777.62
985.063,3774.84
985.331,3777.3
985.6,3776.86
985.868,3777.32
986.137,3776.46
986.406,3776.56
986.674,3775.12
986.943,3776.32
987.211,3776.64
987.48,3777.44
987.748,3774.42
988.017,3774.26
988.285,3775.04
988.554,3776.12
988.822,3775.4
989.091,3774.6
989.359,3773.34
989.628,3773.2
989.896,3772.84
990.164,3772.2
990.433,3773.12
990.701,3772.5
990.97,3772.44
991.238,3772.28
991.506,3772.96
991.775,3770.38
992.043,3768.84
992.311,3770.54
992.58,3768.46
992.848,3769.12
993.116,3770.1
993.385,3770.42
993.653,3770.56
993.921,3769.7
994.19,3769.62
994.458,3768.3
994.726,3766.68
994.994,3767.62
995.262,3767.08
995.531,3767.22
995.799,3767.56
996.067,3768.54
996.335,3767.36
996.603,3767.5
996.872,3769.24
997.14,3770.46
997.408,3769.42
997.676,3768.86
997.944,3767.88
998.212,3767.88
998.48,3768.56
998.748,3767.2
999.016,3767.36
999.284,3766.28
999.552,3765.78
999.82,3766.28
1000.09,3765.82
1000.36,3765.18
1000.62,3763.44
1000.89,3762.24
1001.16,3762.22
1001.43,3761.82
1001.7,3761.14
1001.96,3760.38
1002.23,3759.14
1002.5,3759.54
1002.77,3759.38
1003.04,3758.52
1003.3,3758.76
1003.57,3759.76
1003.84,3759.5
1004.11,3757.56
1004.38,3757.84
1004.64,3757.1
1004.91,3757.3
1005.18,3757.66
1005.45,3755.76
1005.71,3756.46
1005.98,3757.42
1006.25,3758.06
1006.52,3757.5
1006.79,3757.82
1007.05,3756.7
1007.32,3758.46
1007.59,3759.58
1007.86,3757.14
1008.12,3758.86
1008.39,3759.18
1008.66,3762.56
1008.93,3763.56
1009.19,3767.82
1009.46,3769.34
1009.73,3771.26
1010.0,3772.84
1010.26,3774.68
1010.53,3776.2
1010.8,3776.28
1011.07,3778.34
1011.33,3777.54
1011.6,3778.58
1011.87,3779.02
1012.14,3781.02
1012.4,3781.26
1012.67,3784.52
1012.94,3787.16
1013.21,3789.0
1013.47,3792.28
1013.74,3796.56
1014.01,3797.36
1014.28,3796.52
1014.54,3798.58
1014.81,3798.34
1015.08,3797.4
1015.35,3799.16
1015.61,3798.7
1015.88,3796.66
1016.15,3792.82
1016.42,3790.7
1016.68,3789.68
1016.95,3788.84
1017.22,3787.28
1017.48,3784.74
1017.75,3783.38
1018.02,3782.34
1018.29,3781.22
1018.55,3779.26
1018.82,3775.82
1019.09,3774.14
1019.36,3770.96
1019.62,3767.68
1019.89,3767.08
1020.16,3764.94
1020.42,3763.64
1020.69,3763.82
1020.96,3765.32
1021.23,3762.96
1021.49,3762.44
1021.76,3762.46
1022.03,3763.64
1022.29,3762.34
1022.56,3760.88
1022.83,3759.32
1023.09,3758.62
1023.36,3758.5
1023.63,3757.54
1023.9,3756.24
1024.16,3753.84
1024.43,3752.64
1024.7,3751.84
1024.96,3749.78
1025.23,3747.8
1025.5,3748.28
1025.76,3747.12
1026.03,3747.44
1026.3,3745.6
1026.56,3744.66
1026.83,3744.32
1027.1,3744.18
1027.37,3743.3
1027.63,3743.14
1027.9,3743.2
1028.17,3741.66
1028.43,3742.84
1028.7,3742.36
1028.97,3741.2
1029.23,3742.3
1029.5,3741.76
1029.77,3742.02
1030.03,3741.32
1030.3,3741.68
1030.57,3742.2
1030.83,3742.18
1031.1,3740.82
1031.37,3741.1
1031.63,3740.82
1031.9,3741.22
1032.17,3741.72
1032.43,3741.2
1032.7,3739.98
1032.97,3740.36
1033.23,3740.7
1033.5,3740.3
1033.77,3740.54
1034.03,3740.1
1034.3,3740.64
1034.57,3741.26
1034.83,3740.2
1035.1,3739.26
1035.36,3739.4
1035.63,3739.12
1035.9,3740.58
1036.16,3739.48
1036.43,3740.44
1036.7,3739.52
1036.96,3739.28
1037.23,3738.78
1037.5,3739.12
1037.76,3738.56
1038.03,3739.0
1038.3,3738.88
1038.56,3738.52
1038.83,3738.98
1039.09,3738.82
1039.36,3738.38
1039.63,3738.34
1039.89,3739.36
1040.16,3738.6
1040.43,3737.76
1040.69,3739.1
1040.96,3739.22
1041.22,3738.72
1041.49,3737.3
1041.76,3737.2
1042.02,3737.52
1042.29,3737.1
1042.55,3737.48
1042.82,3738.02
1043.09,3737.08
1043.35,3737.04
1043.62,3737.4
1043.89,3737.5
1044.15,3737.52
1044.42,3737.46
1044.68,3736.44
1044.95,3737.12
1045.22,3737.48
1045.48,3736.04
1045.75,3736.6
1046.01,3737.1
1046.28,3736.46
1046.55,3737.4
1046.81,3737.12
1047.08,3737.3
1047.34,3737.38
1047.61,3736.8
1047.88,3737.44
1048.14,3737.0
1048.41,3736.18
1048.67,3735.98
1048.94,3736.56
1049.2,3735.8
1049.47,3736.28
1049.74,3736.5
1050.0,3736.62
1050.27,3736.92
1050.53,3737.02
1050.8,3735.7
1051.06,3735.3
1051.33,3736.36
1051.6,3736.74
1051.86,3735.92
1052.13,3737.16
1052.39,3735.66
1052.66,3735.62
1052.92,3736.02
1053.19,3736.26
1053.46,3735.8
1053.72,3735.88
1053.99,3736.28
1054.25,3736.28
1054.52,3736.08
1054.78,3735.6
1055.05,3736.92
1055.32,3736.06
1055.58,3735.34
1055.85,3736.22
1056.11,3735.4
1056.38,3736.34
1056.64,3735.86
1056.91,3736.14
1057.17,3735.62
1057.44,3735.88
1057.7,3735.24
1057.97,3736.04
1058.24,3735.22
1058.5,3734.94
1058.77,3735.64
1059.03,3736.12
1059.3,3735.12
1059.56,3735.26
1059.83,3735.86
1060.09,3735.58
1060.36,3735.78
1060.62,3735.7
1060.89,3735.2
1061.15,3735.3
1061.42,3735.82
1061.68,3735.62
1061.95,3736.14
1062.22,3735.94
1062.48,3735.9
1062.75,3736.02
1063.01,3735.32
1063.28,3735.06
1063.54,3735.74
1063.81,3734.84
1064.07,3735.44
1064.34,3735.84
1064.6,3734.66
1064.87,3735.2
1065.13,3734.82
1065.4,3735.48
1065.66,3735.88
1065.93,3734.6
1066.19,3734.76
1066.46,3734.74
1066.72,3735.02
1066.99,3733.86
1067.25,3735.38
1067.52,3734.92
1067.78,3733.86
1068.05,3733.48
