cm-1,A
4000.0,0.0011
3999.0,0.001
3998.0,0.001
3997.0,0.0011
3996.0,0.0012
3995.0,0.0012
3994.0,0.0013
3993.0,0.0013
3992.0,0.0012
3991.0,0.0011
3990.0,0.001
3989.0,0.001
3988.0,0.0011
3987.0,0.0011
3986.0,0.0012
3985.0,0.0013
3984.0,0.0013
3983.0,0.0013
3982.0,0.0013
3981.0,0.0013
3980.0,0.0013
3979.0,0.0013
3978.0,0.0012
3977.0,0.0012
3976.0,0.0012
3975.0,0.0012
3974.0,0.0012
3973.0,0.0013
3972.0,0.0013
3971.0,0.0013
3970.0,0.0013
3969.0,0.0012
3968.0,0.0011
3967.0,0.0011
3966.0,0.001
3965.0,0.001
3964.0,0.0011
3963.0,0.0012
3962.0,0.0014
3961.0,0.0015
3960.0,0.0016
3959.0,0.0016
3958.0,0.0015
3957.0,0.0014
3956.0,0.0014
3955.0,0.0013
3954.0,0.0013
3953.0,0.0013
3952.0,0.0014
3951.0,0.0014
3950.0,0.0014
3949.0,0.0014
3948.0,0.0014
3947.0,0.0014
3946.0,0.0013
3945.0,0.0013
3944.0,0.0014
3943.0,0.0015
3942.0,0.0016
3941.0,0.0016
3940.0,0.0015
3939.0,0.0014
3938.0,0.0014
3937.0,0.0013
3936.0,0.0013
3935.0,0.0013
3934.0,0.0013
3933.0,0.0014
3932.0,0.0015
3931.0,0.0015
3930.0,0.0015
3929.0,0.0015
3928.0,0.0014
3927.0,0.0014
3926.0,0.0014
3925.0,0.0014
3924.0,0.0015
3923.0,0.0016
3922.0,0.0016
3921.0,0.0015
3920.0,0.0015
3919.0,0.0015
3918.0,0.0015
3917.0,0.0015
3916.0,0.0015
3915.0,0.0014
3914.0,0.0014
3913.0,0.0014
3912.0,0.0014
3911.0,0.0014
3910.0,0.0015
3909.0,0.0016
3908.0,0.0017
3907.0,0.0019
3906.0,0.002
3905.0,0.002
3904.0,0.0019
3903.0,0.0018
3902.0,0.0018
3901.0,0.0019
3900.0,0.0019
3899.0,0.0018
3898.0,0.0016
3897.0,0.0015
3896.0,0.0014
3895.0,0.0013
3894.0,0.0014
3893.0,0.0015
3892.0,0.0016
3891.0,0.0016
3890.0,0.0017
3889.0,0.0017
3888.0,0.0018
3887.0,0.0018
3886.0,0.0017
3885.0,0.0017
3884.0,0.0017
3883.0,0.0018
3882.0,0.002
3881.0,0.002
3880.0,0.002
3879.0,0.0019
3878.0,0.0018
3877.0,0.0018
3876.0,0.0019
3875.0,0.0019
3874.0,0.0019
3873.0,0.0018
3872.0,0.0018
3871.0,0.0018
3870.0,0.0018
3869.0,0.0018
3868.0,0.0018
3867.0,0.0018
3866.0,0.0018
3865.0,0.0018
3864.0,0.0018
3863.0,0.0018
3862.0,0.0018
3861.0,0.0018
3860.0,0.0018
3859.0,0.0018
3858.0,0.0017
3857.0,0.0017
3856.0,0.0017
3855.0,0.0017
3854.0,0.0017
3853.0,0.0016
3852.0,0.0015
3851.0,0.0016
3850.0,0.0017
3849.0,0.0017
3848.0,0.0017
3847.0,0.0017
3846.0,0.0017
3845.0,0.0017
3844.0,0.0018
3843.0,0.0018
3842.0,0.0018
3841.0,0.0017
3840.0,0.0017
3839.0,0.0017
3838.0,0.0018
3837.0,0.0019
3836.0,0.0019
3835.0,0.0019
3834.0,0.0019
3833.0,0.002
3832.0,0.002
3831.0,0.0019
3830.0,0.0019
3829.0,0.0019
3828.0,0.002
3827.0,0.002
3826.0,0.002
3825.0,0.002
3824.0,0.0021
3823.0,0.0022
3822.0,0.0023
3821.0,0.0021
3820.0,0.0019
3819.0,0.0017
3818.0,0.0015
3817.0,0.0013
3816.0,0.0013
3815.0,0.0015
3814.0,0.0016
3813.0,0.0018
3812.0,0.0019
3811.0,0.0019
3810.0,0.002
3809.0,0.002
3808.0,0.002
3807.0,0.002
3806.0,0.002
3805.0,0.0021
3804.0,0.0022
3803.0,0.0022
3802.0,0.0022
3801.0,0.0022
3800.0,0.0021
3799.0,0.0021
3798.0,0.0021
3797.0,0.0021
3796.0,0.002
3795.0,0.0019
3794.0,0.0018
3793.0,0.0018
3792.0,0.0018
3791.0,0.0017
3790.0,0.0017
3789.0,0.0017
3788.0,0.0017
3787.0,0.0018
3786.0,0.002
3785.0,0.002
3784.0,0.0021
3783.0,0.0021
3782.0,0.0021
3781.0,0.0021
3780.0,0.0021
3779.0,0.0021
3778.0,0.0021
3777.0,0.002
3776.0,0.002
3775.0,0.0019
3774.0,0.0019
3773.0,0.0019
3772.0,0.002
3771.0,0.0021
3770.0,0.0021
3769.0,0.0022
3768.0,0.0022
3767.0,0.0023
3766.0,0.0023
3765.0,0.0022
3764.0,0.0021
3763.0,0.0021
3762.0,0.0022
3761.0,0.0022
3760.0,0.0022
3759.0,0.0023
3758.0,0.0022
3757.0,0.0021
3756.0,0.0021
3755.0,0.002
3754.0,0.002
3753.0,0.002
3752.0,0.0019
3751.0,0.0019
3750.0,0.0019
3749.0,0.0019
3748.0,0.0019
3747.0,0.002
3746.0,0.002
3745.0,0.002
3744.0,0.0019
3743.0,0.0018
3742.0,0.0019
3741.0,0.002
3740.0,0.0021
3739.0,0.0022
3738.0,0.0021
3737.0,0.002
3736.0,0.0018
3735.0,0.0017
3734.0,0.0017
3733.0,0.0017
3732.0,0.0017
3731.0,0.0018
3730.0,0.0018
3729.0,0.0019
3728.0,0.0019
3727.0,0.002
3726.0,0.0021
3725.0,0.0022
3724.0,0.0022
3723.0,0.0021
3722.0,0.002
3721.0,0.002
3720.0,0.002
3719.0,0.002
3718.0,0.002
3717.0,0.002
3716.0,0.002
3715.0,0.0021
3714.0,0.0021
3713.0,0.0021
3712.0,0.0021
3711.0,0.0021
3710.0,0.0021
3709.0,0.0021
3708.0,0.0021
3707.0,0.002
3706.0,0.0021
3705.0,0.0021
3704.0,0.0023
3703.0,0.0024
3702.0,0.0024
3701.0,0.0023
3700.0,0.0022
3699.0,0.0021
3698.0,0.002
3697.0,0.0021
3696.0,0.0021
3695.0,0.0021
3694.0,0.0021
3693.0,0.0021
3692.0,0.0021
3691.0,0.002
3690.0,0.002
3689.0,0.002
3688.0,0.002
3687.0,0.002
3686.0,0.002
3685.0,0.002
3684.0,0.002
3683.0,0.0021
3682.0,0.0022
3681.0,0.0023
3680.0,0.0024
3679.0,0.0024
3678.0,0.0024
3677.0,0.0024
3676.0,0.0025
3675.0,0.0025
3674.0,0.0025
3673.0,0.0025
3672.0,0.0026
3671.0,0.0026
3670.0,0.0025
3669.0,0.0024
3668.0,0.0023
3667.0,0.0023
3666.0,0.0023
3665.0,0.0023
3664.0,0.0023
3663.0,0.0023
3662.0,0.0023
3661.0,0.0023
3660.0,0.0023
3659.0,0.0023
3658.0,0.0024
3657.0,0.0024
3656.0,0.0025
3655.0,0.0026
3654.0,0.0026
3653.0,0.0027
3652.0,0.0028
3651.0,0.0028
3650.0,0.0027
3649.0,0.0027
3648.0,0.0027
3647.0,0.0027
3646.0,0.0026
3645.0,0.0025
3644.0,0.0025
3643.0,0.0024
3642.0,0.0024
3641.0,0.0024
3640.0,0.0024
3639.0,0.0025
3638.0,0.0025
3637.0,0.0025
3636.0,0.0026
3635.0,0.0027
3634.0,0.0028
3633.0,0.0028
3632.0,0.0028
3631.0,0.0027
3630.0,0.0026
3629.0,0.0025
3628.0,0.0025
3627.0,0.0025
3626.0,0.0025
3625.0,0.0025
3624.0,0.0026
3623.0,0.0026
3622.0,0.0027
3621.0,0.0028
3620.0,0.0028
3619.0,0.0029
3618.0,0.0029
3617.0,0.0029
3616.0,0.0029
3615.0,0.0029
3614.0,0.0029
3613.0,0.0028
3612.0,0.0028
3611.0,0.0028
3610.0,0.0028
3609.0,0.0028
3608.0,0.0028
3607.0,0.0027
3606.0,0.0025
3605.0,0.0025
3604.0,0.0025
3603.0,0.0025
3602.0,0.0024
3601.0,0.0024
3600.0,0.0024
3599.0,0.0024
3598.0,0.0024
3597.0,0.0024
3596.0,0.0025
3595.0,0.0025
3594.0,0.0026
3593.0,0.0026
3592.0,0.0027
3591.0,0.0027
3590.0,0.0028
3589.0,0.0029
3588.0,0.0031
3587.0,0.0031
3586.0,0.0031
3585.0,0.003
3584.0,0.0029
3583.0,0.0028
3582.0,0.0028
3581.0,0.0028
3580.0,0.0028
3579.0,0.0028
3578.0,0.0027
3577.0,0.0026
3576.0,0.0026
3575.0,0.0026
3574.0,0.0027
3573.0,0.0028
3572.0,0.0029
3571.0,0.0029
3570.0,0.0029
3569.0,0.0029
3568.0,0.0029
3567.0,0.0029
3566.0,0.0029
3565.0,0.0028
3564.0,0.0028
3563.0,0.0028
3562.0,0.0028
3561.0,0.0029
3560.0,0.0028
3559.0,0.0028
3558.0,0.0028
3557.0,0.0027
3556.0,0.0027
3555.0,0.0027
3554.0,0.0028
3553.0,0.0029
3552.0,0.0029
3551.0,0.0029
3550.0,0.0029
3549.0,0.0028
3548.0,0.0028
3547.0,0.0028
3546.0,0.0029
3545.0,0.0029
3544.0,0.0029
3543.0,0.0029
3542.0,0.0029
3541.0,0.003
3540.0,0.003
3539.0,0.003
3538.0,0.003
3537.0,0.0029
3536.0,0.0028
3535.0,0.0028
3534.0,0.0028
3533.0,0.0029
3532.0,0.0029
3531.0,0.003
3530.0,0.0031
3529.0,0.0032
3528.0,0.0032
3527.0,0.0032
3526.0,0.0031
3525.0,0.0031
3524.0,0.003
3523.0,0.003
3522.0,0.003
3521.0,0.003
3520.0,0.0031
3519.0,0.0031
3518.0,0.003
3517.0,0.003
3516.0,0.003
3515.0,0.003
3514.0,0.0031
3513.0,0.0031
3512.0,0.0032
3511.0,0.0032
3510.0,0.0032
3509.0,0.0031
3508.0,0.0031
3507.0,0.0031
3506.0,0.0032
3505.0,0.0032
3504.0,0.0032
3503.0,0.0032
3502.0,0.0031
3501.0,0.003
3500.0,0.003
3499.0,0.0029
3498.0,0.0029
3497.0,0.0028
3496.0,0.0028
3495.0,0.0029
3494.0,0.0029
3493.0,0.0029
3492.0,0.0029
3491.0,0.0029
3490.0,0.0029
3489.0,0.0029
3488.0,0.0029
3487.0,0.003
3486.0,0.003
3485.0,0.003
3484.0,0.003
3483.0,0.003
3482.0,0.003
3481.0,0.0031
3480.0,0.0031
3479.0,0.0031
3478.0,0.0032
3477.0,0.0032
3476.0,0.0032
3475.0,0.0032
3474.0,0.0033
3473.0,0.0033
3472.0,0.0032
3471.0,0.0031
3470.0,0.0031
3469.0,0.0031
3468.0,0.0031
3467.0,0.0031
3466.0,0.0031
3465.0,0.0031
3464.0,0.0031
3463.0,0.003
3462.0,0.003
3461.0,0.003
3460.0,0.0031
3459.0,0.0031
3458.0,0.0032
3457.0,0.0032
3456.0,0.0032
3455.0,0.0032
3454.0,0.0032
3453.0,0.0031
3452.0,0.0032
3451.0,0.0032
3450.0,0.0034
3449.0,0.0035
3448.0,0.0035
3447.0,0.0035
3446.0,0.0035
3445.0,0.0034
3444.0,0.0034
3443.0,0.0033
3442.0,0.0032
3441.0,0.0031
3440.0,0.0031
3439.0,0.0031
3438.0,0.0032
3437.0,0.0033
3436.0,0.0034
3435.0,0.0034
3434.0,0.0035
3433.0,0.0035
3432.0,0.0035
3431.0,0.0035
3430.0,0.0034
3429.0,0.0034
3428.0,0.0034
3427.0,0.0033
3426.0,0.0032
3425.0,0.0032
3424.0,0.0032
3423.0,0.0033
3422.0,0.0034
3421.0,0.0035
3420.0,0.0035
3419.0,0.0035
3418.0,0.0035
3417.0,0.0034
3416.0,0.0034
3415.0,0.0034
3414.0,0.0033
3413.0,0.0033
3412.0,0.0033
3411.0,0.0032
3410.0,0.0032
3409.0,0.0032
3408.0,0.0032
3407.0,0.0033
3406.0,0.0034
3405.0,0.0034
3404.0,0.0034
3403.0,0.0033
3402.0,0.0032
3401.0,0.0032
3400.0,0.0031
3399.0,0.0031
3398.0,0.0032
3397.0,0.0032
3396.0,0.0033
3395.0,0.0033
3394.0,0.0033
3393.0,0.0034
3392.0,0.0033
3391.0,0.0033
3390.0,0.0032
3389.0,0.0031
3388.0,0.0031
3387.0,0.003
3386.0,0.003
3385.0,0.003
3384.0,0.003
3383.0,0.0029
3382.0,0.003
3381.0,0.003
3380.0,0.0031
3379.0,0.0031
3378.0,0.0031
3377.0,0.0032
3376.0,0.0032
3375.0,0.0033
3374.0,0.0033
3373.0,0.0032
3372.0,0.0031
3371.0,0.003
3370.0,0.003
3369.0,0.0031
3368.0,0.0031
3367.0,0.0032
3366.0,0.0032
3365.0,0.0032
3364.0,0.0032
3363.0,0.0032
3362.0,0.0032
3361.0,0.0032
3360.0,0.0032
3359.0,0.0032
3358.0,0.0032
3357.0,0.0031
3356.0,0.0031
3355.0,0.003
3354.0,0.0029
3353.0,0.0029
3352.0,0.0028
3351.0,0.0028
3350.0,0.0029
3349.0,0.0029
3348.0,0.0029
3347.0,0.003
3346.0,0.0031
3345.0,0.0031
3344.0,0.0032
3343.0,0.0032
3342.0,0.0031
3341.0,0.0031
3340.0,0.0031
3339.0,0.0031
3338.0,0.0031
3337.0,0.0032
3336.0,0.0033
3335.0,0.0033
3334.0,0.0033
3333.0,0.0033
3332.0,0.0033
3331.0,0.0033
3330.0,0.0033
3329.0,0.0033
3328.0,0.0031
3327.0,0.0029
3326.0,0.0028
3325.0,0.0028
3324.0,0.0029
3323.0,0.003
3322.0,0.003
3321.0,0.0031
3320.0,0.0031
3319.0,0.0032
3318.0,0.0032
3317.0,0.0032
3316.0,0.0031
3315.0,0.003
3314.0,0.003
3313.0,0.0031
3312.0,0.0031
3311.0,0.0031
3310.0,0.003
3309.0,0.003
3308.0,0.003
3307.0,0.003
3306.0,0.003
3305.0,0.0031
3304.0,0.0032
3303.0,0.0032
3302.0,0.0033
3301.0,0.0032
3300.0,0.0032
3299.0,0.0032
3298.0,0.0032
3297.0,0.0032
3296.0,0.003
3295.0,0.0029
3294.0,0.0029
3293.0,0.0029
3292.0,0.003
3291.0,0.0031
3290.0,0.0032
3289.0,0.0032
3288.0,0.0032
3287.0,0.0032
3286.0,0.0031
3285.0,0.003
3284.0,0.0029
3283.0,0.0029
3282.0,0.003
3281.0,0.003
3280.0,0.0031
3279.0,0.0032
3278.0,0.0032
3277.0,0.0032
3276.0,0.0031
3275.0,0.003
3274.0,0.0029
3273.0,0.0029
3272.0,0.003
3271.0,0.0031
3270.0,0.0031
3269.0,0.0031
3268.0,0.0031
3267.0,0.003
3266.0,0.0029
3265.0,0.0029
3264.0,0.003
3263.0,0.003
3262.0,0.003
3261.0,0.003
3260.0,0.003
3259.0,0.003
3258.0,0.003
3257.0,0.003
3256.0,0.003
3255.0,0.003
3254.0,0.003
3253.0,0.003
3252.0,0.0031
3251.0,0.0031
3250.0,0.0032
3249.0,0.0032
3248.0,0.0032
3247.0,0.0031
3246.0,0.003
3245.0,0.003
3244.0,0.003
3243.0,0.003
3242.0,0.003
3241.0,0.003
3240.0,0.003
3239.0,0.003
3238.0,0.003
3237.0,0.0029
3236.0,0.0029
3235.0,0.0029
3234.0,0.0028
3233.0,0.0028
3232.0,0.0029
3231.0,0.0029
3230.0,0.0029
3229.0,0.0029
3228.0,0.0029
3227.0,0.0029
3226.0,0.0029
3225.0,0.003
3224.0,0.003
3223.0,0.0029
3222.0,0.0029
3221.0,0.0028
3220.0,0.0028
3219.0,0.0029
3218.0,0.0029
3217.0,0.003
3216.0,0.0031
3215.0,0.0031
3214.0,0.0031
3213.0,0.003
3212.0,0.0029
3211.0,0.0029
3210.0,0.0029
3209.0,0.003
3208.0,0.003
3207.0,0.003
3206.0,0.0029
3205.0,0.0028
3204.0,0.0028
3203.0,0.0027
3202.0,0.0028
3201.0,0.0028
3200.0,0.0029
3199.0,0.0029
3198.0,0.0029
3197.0,0.0029
3196.0,0.0029
3195.0,0.0029
3194.0,0.0029
3193.0,0.003
3192.0,0.0031
3191.0,0.0032
3190.0,0.0033
3189.0,0.0033
3188.0,0.0033
3187.0,0.0032
3186.0,0.0032
3185.0,0.0031
3184.0,0.003
3183.0,0.0029
3182.0,0.0029
3181.0,0.0028
3180.0,0.0029
3179.0,0.003
3178.0,0.003
3177.0,0.0031
3176.0,0.0031
3175.0,0.0031
3174.0,0.0031
3173.0,0.0031
3172.0,0.003
3171.0,0.003
3170.0,0.003
3169.0,0.003
3168.0,0.003
3167.0,0.003
3166.0,0.0029
3165.0,0.0029
3164.0,0.003
3163.0,0.0031
3162.0,0.0031
3161.0,0.0032
3160.0,0.0032
3159.0,0.0031
3158.0,0.003
3157.0,0.0029
3156.0,0.0029
3155.0,0.0029
3154.0,0.0029
3153.0,0.0029
3152.0,0.003
3151.0,0.0031
3150.0,0.0031
3149.0,0.0032
3148.0,0.0031
3147.0,0.0031
3146.0,0.003
3145.0,0.003
3144.0,0.003
3143.0,0.003
3142.0,0.0031
3141.0,0.003
3140.0,0.0029
3139.0,0.0029
3138.0,0.003
3137.0,0.0031
3136.0,0.0032
3135.0,0.0032
3134.0,0.0032
3133.0,0.0032
3132.0,0.0032
3131.0,0.0031
3130.0,0.0031
3129.0,0.0031
3128.0,0.0031
3127.0,0.0031
3126.0,0.0031
3125.0,0.0031
3124.0,0.0031
3123.0,0.0031
3122.0,0.0031
3121.0,0.0031
3120.0,0.0031
3119.0,0.0032
3118.0,0.0032
3117.0,0.0033
3116.0,0.0032
3115.0,0.0032
3114.0,0.0032
3113.0,0.0033
3112.0,0.0033
3111.0,0.0033
3110.0,0.0033
3109.0,0.0033
3108.0,0.0033
3107.0,0.0034
3106.0,0.0034
3105.0,0.0035
3104.0,0.0035
3103.0,0.0034
3102.0,0.0034
3101.0,0.0033
3100.0,0.0033
3099.0,0.0033
3098.0,0.0034
3097.0,0.0035
3096.0,0.0035
3095.0,0.0036
3094.0,0.0036
3093.0,0.0035
3092.0,0.0035
3091.0,0.0035
3090.0,0.0036
3089.0,0.0036
3088.0,0.0036
3087.0,0.0036
3086.0,0.0037
3085.0,0.0037
3084.0,0.0038
3083.0,0.0038
3082.0,0.0038
3081.0,0.0037
3080.0,0.0037
3079.0,0.0037
3078.0,0.0037
3077.0,0.0037
3076.0,0.0037
3075.0,0.0037
3074.0,0.0037
3073.0,0.0037
3072.0,0.0037
3071.0,0.0037
3070.0,0.0038
3069.0,0.0038
3068.0,0.0038
3067.0,0.0037
3066.0,0.0037
3065.0,0.0037
3064.0,0.0037
3063.0,0.0037
3062.0,0.0037
3061.0,0.0037
3060.0,0.0037
3059.0,0.0037
3058.0,0.0038
3057.0,0.0038
3056.0,0.0038
3055.0,0.0038
3054.0,0.0038
3053.0,0.0038
3052.0,0.0039
3051.0,0.0039
3050.0,0.0039
3049.0,0.0039
3048.0,0.0038
3047.0,0.0037
3046.0,0.0037
3045.0,0.0038
3044.0,0.0038
3043.0,0.0038
3042.0,0.0038
3041.0,0.0037
3040.0,0.0036
3039.0,0.0036
3038.0,0.0035
3037.0,0.0035
3036.0,0.0035
3035.0,0.0036
3034.0,0.0037
3033.0,0.0037
3032.0,0.0036
3031.0,0.0036
3030.0,0.0036
3029.0,0.0036
3028.0,0.0036
3027.0,0.0037
3026.0,0.0037
3025.0,0.0037
3024.0,0.0037
3023.0,0.0037
3022.0,0.0037
3021.0,0.0037
3020.0,0.0037
3019.0,0.0037
3018.0,0.0036
3017.0,0.0036
3016.0,0.0036
3015.0,0.0037
3014.0,0.0038
3013.0,0.0038
3012.0,0.0038
3011.0,0.0038
3010.0,0.0039
3009.0,0.0039
3008.0,0.0039
3007.0,0.0039
3006.0,0.0039
3005.0,0.0039
3004.0,0.0039
3003.0,0.004
3002.0,0.004
3001.0,0.004
3000.0,0.004
2999.0,0.0041
2998.0,0.0041
2997.0,0.0041
2996.0,0.004
2995.0,0.004
2994.0,0.0041
2993.0,0.0041
2992.0,0.0042
2991.0,0.0043
2990.0,0.0044
2989.0,0.0044
2988.0,0.0044
2987.0,0.0043
2986.0,0.0043
2985.0,0.0042
2984.0,0.0042
2983.0,0.0042
2982.0,0.0043
2981.0,0.0045
2980.0,0.0045
2979.0,0.0046
2978.0,0.0046
2977.0,0.0047
2976.0,0.0048
2975.0,0.005
2974.0,0.0051
2973.0,0.0051
2972.0,0.0051
2971.0,0.005
2970.0,0.005
2969.0,0.0051
2968.0,0.0051
2967.0,0.0052
2966.0,0.0053
2965.0,0.0053
2964.0,0.0054
2963.0,0.0054
2962.0,0.0054
2961.0,0.0054
2960.0,0.0054
2959.0,0.0055
2958.0,0.0055
2957.0,0.0055
2956.0,0.0054
2955.0,0.0054
2954.0,0.0054
2953.0,0.0054
2952.0,0.0054
2951.0,0.0054
2950.0,0.0054
2949.0,0.0053
2948.0,0.0053
2947.0,0.0053
2946.0,0.0052
2945.0,0.0052
2944.0,0.0052
2943.0,0.0051
2942.0,0.0051
2941.0,0.0051
2940.0,0.0051
2939.0,0.0051
2938.0,0.005
2937.0,0.0049
2936.0,0.0048
2935.0,0.0048
2934.0,0.0048
2933.0,0.0048
2932.0,0.0049
2931.0,0.0049
2930.0,0.0048
2929.0,0.0047
2928.0,0.0046
2927.0,0.0046
2926.0,0.0046
2925.0,0.0047
2924.0,0.0047
2923.0,0.0047
2922.0,0.0047
2921.0,0.0047
2920.0,0.0046
2919.0,0.0046
2918.0,0.0046
2917.0,0.0047
2916.0,0.0048
2915.0,0.0048
2914.0,0.0048
2913.0,0.0048
2912.0,0.0048
2911.0,0.0048
2910.0,0.0049
2909.0,0.0049
2908.0,0.0049
2907.0,0.0049
2906.0,0.0049
2905.0,0.005
2904.0,0.005
2903.0,0.005
2902.0,0.005
2901.0,0.005
2900.0,0.0049
2899.0,0.0049
2898.0,0.0049
2897.0,0.0049
2896.0,0.0049
2895.0,0.0048
2894.0,0.0048
2893.0,0.0048
2892.0,0.0048
2891.0,0.0049
2890.0,0.0049
2889.0,0.005
2888.0,0.005
2887.0,0.005
2886.0,0.005
2885.0,0.005
2884.0,0.0049
2883.0,0.0049
2882.0,0.0049
2881.0,0.0049
2880.0,0.0049
2879.0,0.0049
2878.0,0.0049
2877.0,0.0048
2876.0,0.0048
2875.0,0.0047
2874.0,0.0047
2873.0,0.0047
2872.0,0.0048
2871.0,0.0048
2870.0,0.0048
2869.0,0.0048
2868.0,0.0048
2867.0,0.0048
2866.0,0.0048
2865.0,0.0049
2864.0,0.0049
2863.0,0.0049
2862.0,0.0049
2861.0,0.0049
2860.0,0.0049
2859.0,0.0049
2858.0,0.0049
2857.0,0.0048
2856.0,0.0048
2855.0,0.0048
2854.0,0.0048
2853.0,0.0048
2852.0,0.0048
2851.0,0.0048
2850.0,0.0048
2849.0,0.0047
2848.0,0.0047
2847.0,0.0047
2846.0,0.0047
2845.0,0.0048
2844.0,0.0047
2843.0,0.0047
2842.0,0.0047
2841.0,0.0046
2840.0,0.0046
2839.0,0.0045
2838.0,0.0045
2837.0,0.0045
2836.0,0.0045
2835.0,0.0045
2834.0,0.0046
2833.0,0.0045
2832.0,0.0045
2831.0,0.0045
2830.0,0.0045
2829.0,0.0044
2828.0,0.0045
2827.0,0.0045
2826.0,0.0046
2825.0,0.0047
2824.0,0.0047
2823.0,0.0048
2822.0,0.0047
2821.0,0.0047
2820.0,0.0046
2819.0,0.0046
2818.0,0.0046
2817.0,0.0046
2816.0,0.0045
2815.0,0.0045
2814.0,0.0045
2813.0,0.0045
2812.0,0.0044
2811.0,0.0044
2810.0,0.0044
2809.0,0.0045
2808.0,0.0045
2807.0,0.0046
2806.0,0.0046
2805.0,0.0046
2804.0,0.0046
2803.0,0.0046
2802.0,0.0045
2801.0,0.0045
2800.0,0.0045
2799.0,0.0044
2798.0,0.0044
2797.0,0.0044
2796.0,0.0044
2795.0,0.0044
2794.0,0.0045
2793.0,0.0045
2792.0,0.0045
2791.0,0.0044
2790.0,0.0044
2789.0,0.0045
2788.0,0.0045
2787.0,0.0046
2786.0,0.0047
2785.0,0.0046
2784.0,0.0046
2783.0,0.0045
2782.0,0.0045
2781.0,0.0045
2780.0,0.0045
2779.0,0.0045
2778.0,0.0045
2777.0,0.0045
2776.0,0.0045
2775.0,0.0045
2774.0,0.0046
2773.0,0.0046
2772.0,0.0046
2771.0,0.0046
2770.0,0.0046
2769.0,0.0046
2768.0,0.0046
2767.0,0.0046
2766.0,0.0046
2765.0,0.0046
2764.0,0.0046
2763.0,0.0045
2762.0,0.0045
2761.0,0.0045
2760.0,0.0045
2759.0,0.0045
2758.0,0.0044
2757.0,0.0044
2756.0,0.0044
2755.0,0.0045
2754.0,0.0045
2753.0,0.0045
2752.0,0.0045
2751.0,0.0045
2750.0,0.0045
2749.0,0.0045
2748.0,0.0044
2747.0,0.0044
2746.0,0.0044
2745.0,0.0044
2744.0,0.0045
2743.0,0.0045
2742.0,0.0044
2741.0,0.0044
2740.0,0.0044
2739.0,0.0044
2738.0,0.0044
2737.0,0.0045
2736.0,0.0045
2735.0,0.0045
2734.0,0.0045
2733.0,0.0044
2732.0,0.0043
2731.0,0.0043
2730.0,0.0043
2729.0,0.0044
2728.0,0.0045
2727.0,0.0046
2726.0,0.0046
2725.0,0.0046
2724.0,0.0045
2723.0,0.0045
2722.0,0.0045
2721.0,0.0045
2720.0,0.0045
2719.0,0.0045
2718.0,0.0045
2717.0,0.0045
2716.0,0.0044
2715.0,0.0044
2714.0,0.0044
2713.0,0.0044
2712.0,0.0043
2711.0,0.0043
2710.0,0.0044
2709.0,0.0044
2708.0,0.0045
2707.0,0.0045
2706.0,0.0045
2705.0,0.0045
2704.0,0.0044
2703.0,0.0044
2702.0,0.0044
2701.0,0.0044
2700.0,0.0044
2699.0,0.0044
2698.0,0.0044
2697.0,0.0044
2696.0,0.0044
2695.0,0.0044
2694.0,0.0044
2693.0,0.0044
2692.0,0.0045
2691.0,0.0045
2690.0,0.0045
2689.0,0.0045
2688.0,0.0045
2687.0,0.0045
2686.0,0.0045
2685.0,0.0045
2684.0,0.0045
2683.0,0.0045
2682.0,0.0045
2681.0,0.0045
2680.0,0.0046
2679.0,0.0046
2678.0,0.0047
2677.0,0.0047
2676.0,0.0046
2675.0,0.0046
2674.0,0.0046
2673.0,0.0045
2672.0,0.0045
2671.0,0.0045
2670.0,0.0045
2669.0,0.0044
2668.0,0.0044
2667.0,0.0044
2666.0,0.0044
2665.0,0.0044
2664.0,0.0045
2663.0,0.0045
2662.0,0.0046
2661.0,0.0045
2660.0,0.0045
2659.0,0.0045
2658.0,0.0045
2657.0,0.0045
2656.0,0.0045
2655.0,0.0045
2654.0,0.0045
2653.0,0.0045
2652.0,0.0045
2651.0,0.0044
2650.0,0.0044
2649.0,0.0044
2648.0,0.0044
2647.0,0.0045
2646.0,0.0045
2645.0,0.0045
2644.0,0.0045
2643.0,0.0044
2642.0,0.0044
2641.0,0.0044
2640.0,0.0043
2639.0,0.0044
2638.0,0.0044
2637.0,0.0044
2636.0,0.0044
2635.0,0.0044
2634.0,0.0044
2633.0,0.0044
2632.0,0.0044
2631.0,0.0044
2630.0,0.0044
2629.0,0.0044
2628.0,0.0044
2627.0,0.0045
2626.0,0.0044
2625.0,0.0044
2624.0,0.0044
2623.0,0.0044
2622.0,0.0044
2621.0,0.0044
2620.0,0.0044
2619.0,0.0044
2618.0,0.0044
2617.0,0.0044
2616.0,0.0044
2615.0,0.0045
2614.0,0.0045
2613.0,0.0045
2612.0,0.0045
2611.0,0.0045
2610.0,0.0045
2609.0,0.0045
2608.0,0.0044
2607.0,0.0044
2606.0,0.0044
2605.0,0.0043
2604.0,0.0043
2603.0,0.0043
2602.0,0.0044
2601.0,0.0044
2600.0,0.0044
2599.0,0.0044
2598.0,0.0044
2597.0,0.0044
2596.0,0.0044
2595.0,0.0045
2594.0,0.0045
2593.0,0.0045
2592.0,0.0045
2591.0,0.0045
2590.0,0.0045
2589.0,0.0045
2588.0,0.0045
2587.0,0.0045
2586.0,0.0045
2585.0,0.0044
2584.0,0.0044
2583.0,0.0044
2582.0,0.0044
2581.0,0.0044
2580.0,0.0044
2579.0,0.0045
2578.0,0.0045
2577.0,0.0045
2576.0,0.0045
2575.0,0.0045
2574.0,0.0045
2573.0,0.0045
2572.0,0.0045
2571.0,0.0045
2570.0,0.0045
2569.0,0.0045
2568.0,0.0045
2567.0,0.0045
2566.0,0.0045
2565.0,0.0045
2564.0,0.0045
2563.0,0.0045
2562.0,0.0045
2561.0,0.0045
2560.0,0.0045
2559.0,0.0044
2558.0,0.0044
2557.0,0.0044
2556.0,0.0045
2555.0,0.0045
2554.0,0.0045
2553.0,0.0045
2552.0,0.0045
2551.0,0.0045
2550.0,0.0045
2549.0,0.0045
2548.0,0.0045
2547.0,0.0045
2546.0,0.0045
2545.0,0.0045
2544.0,0.0044
2543.0,0.0044
2542.0,0.0044
2541.0,0.0044
2540.0,0.0044
2539.0,0.0044
2538.0,0.0044
2537.0,0.0044
2536.0,0.0044
2535.0,0.0044
2534.0,0.0044
2533.0,0.0044
2532.0,0.0044
2531.0,0.0044
2530.0,0.0044
2529.0,0.0045
2528.0,0.0045
2527.0,0.0045
2526.0,0.0045
2525.0,0.0045
2524.0,0.0045
2523.0,0.0045
2522.0,0.0045
2521.0,0.0045
2520.0,0.0045
2519.0,0.0045
2518.0,0.0044
2517.0,0.0045
2516.0,0.0045
2515.0,0.0045
2514.0,0.0045
2513.0,0.0045
2512.0,0.0044
2511.0,0.0044
2510.0,0.0044
2509.0,0.0044
2508.0,0.0044
2507.0,0.0044
2506.0,0.0044
2505.0,0.0044
2504.0,0.0045
2503.0,0.0045
2502.0,0.0045
2501.0,0.0045
2500.0,0.0045
2499.0,0.0045
2498.0,0.0045
2497.0,0.0045
2496.0,0.0045
2495.0,0.0045
2494.0,0.0044
2493.0,0.0044
2492.0,0.0043
2491.0,0.0043
2490.0,0.0044
2489.0,0.0044
2488.0,0.0044
2487.0,0.0044
2486.0,0.0044
2485.0,0.0044
2484.0,0.0044
2483.0,0.0044
2482.0,0.0044
2481.0,0.0045
2480.0,0.0045
2479.0,0.0044
2478.0,0.0044
2477.0,0.0043
2476.0,0.0043
2475.0,0.0042
2474.0,0.0042
2473.0,0.0042
2472.0,0.0042
2471.0,0.0042
2470.0,0.0042
2469.0,0.0042
2468.0,0.0042
2467.0,0.0042
2466.0,0.0042
2465.0,0.0042
2464.0,0.0043
2463.0,0.0043
2462.0,0.0043
2461.0,0.0044
2460.0,0.0044
2459.0,0.0043
2458.0,0.0042
2457.0,0.0042
2456.0,0.0042
2455.0,0.0042
2454.0,0.0042
2453.0,0.0042
2452.0,0.0042
2451.0,0.0042
2450.0,0.0042
2449.0,0.0042
2448.0,0.0042
2447.0,0.0042
2446.0,0.0042
2445.0,0.0042
2444.0,0.0042
2443.0,0.0043
2442.0,0.0042
2441.0,0.0042
2440.0,0.0042
2439.0,0.0042
2438.0,0.0043
2437.0,0.0043
2436.0,0.0043
2435.0,0.0042
2434.0,0.0042
2433.0,0.0041
2432.0,0.0041
2431.0,0.0041
2430.0,0.0041
2429.0,0.0041
2428.0,0.0041
2427.0,0.0041
2426.0,0.0041
2425.0,0.0042
2424.0,0.0042
2423.0,0.0042
2422.0,0.0042
2421.0,0.0042
2420.0,0.0042
2419.0,0.0043
2418.0,0.0043
2417.0,0.0043
2416.0,0.0043
2415.0,0.0043
2414.0,0.0043
2413.0,0.0042
2412.0,0.0042
2411.0,0.0043
2410.0,0.0043
2409.0,0.0043
2408.0,0.0043
2407.0,0.0042
2406.0,0.0042
2405.0,0.0042
2404.0,0.0043
2403.0,0.0043
2402.0,0.0043
2401.0,0.0043
2400.0,0.0042
2399.0,0.0042
2398.0,0.0042
2397.0,0.0042
2396.0,0.0042
2395.0,0.0042
2394.0,0.0042
2393.0,0.0042
2392.0,0.0042
2391.0,0.0042
2390.0,0.0042
2389.0,0.0041
2388.0,0.0041
2387.0,0.0041
2386.0,0.004
2385.0,0.004
2384.0,0.0039
2383.0,0.0039
2382.0,0.0038
2381.0,0.0037
2380.0,0.0036
2379.0,0.0035
2378.0,0.0034
2377.0,0.0032
2376.0,0.0031
2375.0,0.003
2374.0,0.0028
2373.0,0.0026
2372.0,0.0021
2371.0,0.0018
2370.0,0.0019
2369.0,0.003
2368.0,0.0047
2367.0,0.0063
2366.0,0.0068
2365.0,0.0057
2364.0,0.0041
2363.0,0.0032
2362.0,0.003
2361.0,0.0024
2360.0,0.0008
2359.0,-0.0007
2358.0,-0.0008
2357.0,0.0005
2356.0,0.0018
2355.0,0.0025
2354.0,0.0026
2353.0,0.0025
2352.0,0.0025
2351.0,0.0025
2350.0,0.0025
2349.0,0.0025
2348.0,0.0025
2347.0,0.0026
2346.0,0.0026
2345.0,0.0026
2344.0,0.0025
2343.0,0.0021
2342.0,0.0017
2341.0,0.0017
2340.0,0.0019
2339.0,0.0022
2338.0,0.0024
2337.0,0.0025
2336.0,0.0024
2335.0,0.002
2334.0,0.0016
2333.0,0.0014
2332.0,0.0017
2331.0,0.0024
2330.0,0.0033
2329.0,0.0038
2328.0,0.0039
2327.0,0.0035
2326.0,0.0033
2325.0,0.0033
2324.0,0.0035
2323.0,0.0036
2322.0,0.0036
2321.0,0.0033
2320.0,0.0032
2319.0,0.0032
2318.0,0.0033
2317.0,0.0033
2316.0,0.0031
2315.0,0.0029
2314.0,0.0027
2313.0,0.0026
2312.0,0.0027
2311.0,0.0028
2310.0,0.003
2309.0,0.0032
2308.0,0.0033
2307.0,0.0034
2306.0,0.0034
2305.0,0.0034
2304.0,0.0034
2303.0,0.0034
2302.0,0.0034
2301.0,0.0034
2300.0,0.0034
2299.0,0.0034
2298.0,0.0034
2297.0,0.0033
2296.0,0.0033
2295.0,0.0034
2294.0,0.0034
2293.0,0.0035
2292.0,0.0036
2291.0,0.0037
2290.0,0.0038
2289.0,0.0038
2288.0,0.0039
2287.0,0.0039
2286.0,0.0038
2285.0,0.0038
2284.0,0.0038
2283.0,0.0038
2282.0,0.0038
2281.0,0.0039
2280.0,0.0038
2279.0,0.0038
2278.0,0.0038
2277.0,0.0038
2276.0,0.0038
2275.0,0.0037
2274.0,0.0037
2273.0,0.0037
2272.0,0.0037
2271.0,0.0038
2270.0,0.0038
2269.0,0.0039
2268.0,0.0039
2267.0,0.0038
2266.0,0.0037
2265.0,0.0037
2264.0,0.0036
2263.0,0.0036
2262.0,0.0036
2261.0,0.0037
2260.0,0.0037
2259.0,0.0037
2258.0,0.0037
2257.0,0.0038
2256.0,0.0038
2255.0,0.0038
2254.0,0.0039
2253.0,0.0038
2252.0,0.0037
2251.0,0.0037
2250.0,0.0037
2249.0,0.0037
2248.0,0.0037
2247.0,0.0037
2246.0,0.0037
2245.0,0.0037
2244.0,0.0037
2243.0,0.0037
2242.0,0.0037
2241.0,0.0037
2240.0,0.0037
2239.0,0.0036
2238.0,0.0036
2237.0,0.0036
2236.0,0.0036
2235.0,0.0037
2234.0,0.0037
2233.0,0.0036
2232.0,0.0036
2231.0,0.0036
2230.0,0.0036
2229.0,0.0036
2228.0,0.0036
2227.0,0.0035
2226.0,0.0036
2225.0,0.0036
2224.0,0.0037
2223.0,0.0037
2222.0,0.0037
2221.0,0.0037
2220.0,0.0036
2219.0,0.0035
2218.0,0.0035
2217.0,0.0035
2216.0,0.0035
2215.0,0.0034
2214.0,0.0034
2213.0,0.0035
2212.0,0.0035
2211.0,0.0035
2210.0,0.0035
2209.0,0.0035
2208.0,0.0035
2207.0,0.0035
2206.0,0.0034
2205.0,0.0035
2204.0,0.0035
2203.0,0.0035
2202.0,0.0035
2201.0,0.0035
2200.0,0.0035
2199.0,0.0035
2198.0,0.0035
2197.0,0.0035
2196.0,0.0035
2195.0,0.0035
2194.0,0.0035
2193.0,0.0035
2192.0,0.0035
2191.0,0.0035
2190.0,0.0035
2189.0,0.0035
2188.0,0.0035
2187.0,0.0035
2186.0,0.0034
2185.0,0.0034
2184.0,0.0033
2183.0,0.0033
2182.0,0.0033
2181.0,0.0034
2180.0,0.0034
2179.0,0.0034
2178.0,0.0034
2177.0,0.0034
2176.0,0.0034
2175.0,0.0033
2174.0,0.0033
2173.0,0.0033
2172.0,0.0033
2171.0,0.0033
2170.0,0.0033
2169.0,0.0033
2168.0,0.0033
2167.0,0.0033
2166.0,0.0034
2165.0,0.0034
2164.0,0.0034
2163.0,0.0034
2162.0,0.0034
2161.0,0.0033
2160.0,0.0033
2159.0,0.0033
2158.0,0.0033
2157.0,0.0032
2156.0,0.0032
2155.0,0.0031
2154.0,0.0032
2153.0,0.0032
2152.0,0.0033
2151.0,0.0033
2150.0,0.0033
2149.0,0.0033
2148.0,0.0033
2147.0,0.0033
2146.0,0.0034
2145.0,0.0034
2144.0,0.0033
2143.0,0.0033
2142.0,0.0033
2141.0,0.0033
2140.0,0.0033
2139.0,0.0033
2138.0,0.0033
2137.0,0.0033
2136.0,0.0033
2135.0,0.0033
2134.0,0.0033
2133.0,0.0033
2132.0,0.0032
2131.0,0.0032
2130.0,0.0033
2129.0,0.0033
2128.0,0.0033
2127.0,0.0033
2126.0,0.0032
2125.0,0.0032
2124.0,0.0032
2123.0,0.0032
2122.0,0.0032
2121.0,0.0032
2120.0,0.0032
2119.0,0.0032
2118.0,0.0032
2117.0,0.0033
2116.0,0.0033
2115.0,0.0033
2114.0,0.0033
2113.0,0.0033
2112.0,0.0033
2111.0,0.0033
2110.0,0.0033
2109.0,0.0033
2108.0,0.0032
2107.0,0.0032
2106.0,0.0032
2105.0,0.0032
2104.0,0.0032
2103.0,0.0032
2102.0,0.0032
2101.0,0.0032
2100.0,0.0032
2099.0,0.0032
2098.0,0.0032
2097.0,0.0031
2096.0,0.0031
2095.0,0.0032
2094.0,0.0032
2093.0,0.0032
2092.0,0.0032
2091.0,0.0032
2090.0,0.0032
2089.0,0.0031
2088.0,0.0031
2087.0,0.0031
2086.0,0.0031
2085.0,0.0031
2084.0,0.0031
2083.0,0.0031
2082.0,0.0031
2081.0,0.0031
2080.0,0.0031
2079.0,0.003
2078.0,0.003
2077.0,0.003
2076.0,0.003
2075.0,0.003
2074.0,0.003
2073.0,0.003
2072.0,0.003
2071.0,0.0029
2070.0,0.003
2069.0,0.003
2068.0,0.0029
2067.0,0.0029
2066.0,0.0029
2065.0,0.0028
2064.0,0.0029
2063.0,0.0029
2062.0,0.0029
2061.0,0.0029
2060.0,0.0028
2059.0,0.0028
2058.0,0.0028
2057.0,0.0028
2056.0,0.0028
2055.0,0.0028
2054.0,0.0028
2053.0,0.0028
2052.0,0.0027
2051.0,0.0027
2050.0,0.0027
2049.0,0.0027
2048.0,0.0027
2047.0,0.0026
2046.0,0.0026
2045.0,0.0026
2044.0,0.0026
2043.0,0.0026
2042.0,0.0027
2041.0,0.0026
2040.0,0.0026
2039.0,0.0025
2038.0,0.0025
2037.0,0.0024
2036.0,0.0024
2035.0,0.0024
2034.0,0.0024
2033.0,0.0024
2032.0,0.0024
2031.0,0.0024
2030.0,0.0024
2029.0,0.0024
2028.0,0.0024
2027.0,0.0023
2026.0,0.0023
2025.0,0.0023
2024.0,0.0023
2023.0,0.0023
2022.0,0.0022
2021.0,0.0022
2020.0,0.0022
2019.0,0.0021
2018.0,0.0022
2017.0,0.0022
2016.0,0.0022
2015.0,0.0022
2014.0,0.0022
2013.0,0.0022
2012.0,0.0022
2011.0,0.0022
2010.0,0.0022
2009.0,0.0022
2008.0,0.0022
2007.0,0.0022
2006.0,0.0022
2005.0,0.0022
2004.0,0.0021
2003.0,0.0021
2002.0,0.0021
2001.0,0.0021
2000.0,0.0022
1999.0,0.0022
1998.0,0.0022
1997.0,0.0021
1996.0,0.0021
1995.0,0.0021
1994.0,0.0021
1993.0,0.0021
1992.0,0.0021
1991.0,0.0022
1990.0,0.0022
1989.0,0.0022
1988.0,0.0022
1987.0,0.0022
1986.0,0.0022
1985.0,0.0022
1984.0,0.0022
1983.0,0.0021
1982.0,0.0021
1981.0,0.0022
1980.0,0.0022
1979.0,0.0022
1978.0,0.0021
1977.0,0.0021
1976.0,0.0021
1975.0,0.0021
1974.0,0.0021
1973.0,0.0021
1972.0,0.0021
1971.0,0.0021
1970.0,0.0021
1969.0,0.0021
1968.0,0.002
1967.0,0.0021
1966.0,0.0021
1965.0,0.0022
1964.0,0.0022
1963.0,0.0022
1962.0,0.0022
1961.0,0.0022
1960.0,0.0022
1959.0,0.0022
1958.0,0.0022
1957.0,0.0023
1956.0,0.0023
1955.0,0.0023
1954.0,0.0024
1953.0,0.0024
1952.0,0.0024
1951.0,0.0023
1950.0,0.0023
1949.0,0.0023
1948.0,0.0023
1947.0,0.0023
1946.0,0.0024
1945.0,0.0023
1944.0,0.0023
1943.0,0.0023
1942.0,0.0022
1941.0,0.0022
1940.0,0.0021
1939.0,0.002
1938.0,0.002
1937.0,0.002
1936.0,0.0019
1935.0,0.0019
1934.0,0.0019
1933.0,0.0018
1932.0,0.0018
1931.0,0.0017
1930.0,0.0017
1929.0,0.0016
1928.0,0.0016
1927.0,0.0016
1926.0,0.0016
1925.0,0.0016
1924.0,0.0015
1923.0,0.0015
1922.0,0.0015
1921.0,0.0015
1920.0,0.0014
1919.0,0.0014
1918.0,0.0014
1917.0,0.0013
1916.0,0.0012
1915.0,0.0011
1914.0,0.0011
1913.0,0.0011
1912.0,0.0011
1911.0,0.001
1910.0,0.0009
1909.0,0.0008
1908.0,0.0008
1907.0,0.0009
1906.0,0.0009
1905.0,0.0008
1904.0,0.0008
1903.0,0.0007
1902.0,0.0007
1901.0,0.0007
1900.0,0.0007
1899.0,0.0007
1898.0,0.0006
1897.0,0.0006
1896.0,0.0005
1895.0,0.0005
1894.0,0.0004
1893.0,0.0004
1892.0,0.0004
1891.0,0.0004
1890.0,0.0004
1889.0,0.0003
1888.0,0.0003
1887.0,0.0002
1886.0,0.0002
1885.0,0.0001
1884.0,0.0001
1883.0,0.0
1882.0,-0.0
1881.0,-0.0001
1880.0,-0.0002
1879.0,-0.0002
1878.0,-0.0002
1877.0,-0.0002
1876.0,-0.0003
1875.0,-0.0003
1874.0,-0.0003
1873.0,-0.0003
1872.0,-0.0003
1871.0,-0.0003
1870.0,-0.0003
1869.0,-0.0004
1868.0,-0.0005
1867.0,-0.0005
1866.0,-0.0006
1865.0,-0.0006
1864.0,-0.0007
1863.0,-0.0007
1862.0,-0.0007
1861.0,-0.0008
1860.0,-0.0007
1859.0,-0.0007
1858.0,-0.0008
1857.0,-0.0008
1856.0,-0.0009
1855.0,-0.0009
1854.0,-0.0009
1853.0,-0.0009
1852.0,-0.0009
1851.0,-0.0009
1850.0,-0.0009
1849.0,-0.0009
1848.0,-0.0009
1847.0,-0.0009
1846.0,-0.0009
1845.0,-0.0009
1844.0,-0.001
1843.0,-0.0011
1842.0,-0.0012
1841.0,-0.0012
1840.0,-0.0012
1839.0,-0.0012
1838.0,-0.0013
1837.0,-0.0013
1836.0,-0.0014
1835.0,-0.0014
1834.0,-0.0014
1833.0,-0.0014
1832.0,-0.0013
1831.0,-0.0013
1830.0,-0.0013
1829.0,-0.0013
1828.0,-0.0013
1827.0,-0.0012
1826.0,-0.0012
1825.0,-0.0013
1824.0,-0.0014
1823.0,-0.0015
1822.0,-0.0016
1821.0,-0.0016
1820.0,-0.0016
1819.0,-0.0016
1818.0,-0.0016
1817.0,-0.0017
1816.0,-0.0018
1815.0,-0.0019
1814.0,-0.0019
1813.0,-0.002
1812.0,-0.002
1811.0,-0.0021
1810.0,-0.0022
1809.0,-0.0023
1808.0,-0.0024
1807.0,-0.0024
1806.0,-0.0024
1805.0,-0.0024
1804.0,-0.0024
1803.0,-0.0025
1802.0,-0.0025
1801.0,-0.0027
1800.0,-0.0028
1799.0,-0.0029
1798.0,-0.003
1797.0,-0.0031
1796.0,-0.0031
1795.0,-0.0031
1794.0,-0.0031
1793.0,-0.0032
1792.0,-0.0033
1791.0,-0.0034
1790.0,-0.0035
1789.0,-0.0035
1788.0,-0.0036
1787.0,-0.0036
1786.0,-0.0036
1785.0,-0.0037
1784.0,-0.0038
1783.0,-0.0038
1782.0,-0.0037
1781.0,-0.0037
1780.0,-0.0038
1779.0,-0.0038
1778.0,-0.0039
1777.0,-0.004
1776.0,-0.004
1775.0,-0.004
1774.0,-0.004
1773.0,-0.0041
1772.0,-0.0041
1771.0,-0.0041
1770.0,-0.0041
1769.0,-0.0042
1768.0,-0.0042
1767.0,-0.0042
1766.0,-0.0042
1765.0,-0.0041
1764.0,-0.004
1763.0,-0.0038
1762.0,-0.0037
1761.0,-0.0037
1760.0,-0.0036
1759.0,-0.0034
1758.0,-0.0031
1757.0,-0.0029
1756.0,-0.0027
1755.0,-0.0024
1754.0,-0.002
1753.0,-0.0016
1752.0,-0.0011
1751.0,-0.0004
1750.0,0.0004
1749.0,0.0013
1748.0,0.0023
1747.0,0.0035
1746.0,0.0048
1745.0,0.0064
1744.0,0.0083
1743.0,0.0104
1742.0,0.0126
1741.0,0.015
1740.0,0.0179
1739.0,0.0209
1738.0,0.0233
1737.0,0.0251
1736.0,0.0272
1735.0,0.0306
1734.0,0.0349
1733.0,0.0383
1732.0,0.0407
1731.0,0.043
1730.0,0.0456
1729.0,0.0481
1728.0,0.0504
1727.0,0.0525
1726.0,0.0546
1725.0,0.0567
1724.0,0.059
1723.0,0.0611
1722.0,0.0629
1721.0,0.0644
1720.0,0.0657
1719.0,0.0674
1718.0,0.0698
1717.0,0.072
1716.0,0.0734
1715.0,0.0743
1714.0,0.0747
1713.0,0.0745
1712.0,0.0737
1711.0,0.0725
1710.0,0.0709
1709.0,0.069
1708.0,0.0668
1707.0,0.0642
1706.0,0.0611
1705.0,0.0582
1704.0,0.056
1703.0,0.0543
1702.0,0.0523
1701.0,0.0494
1700.0,0.0464
1699.0,0.0444
1698.0,0.043
1697.0,0.0415
1696.0,0.0398
1695.0,0.0383
1694.0,0.0372
1693.0,0.0363
1692.0,0.0355
1691.0,0.0345
1690.0,0.0335
1689.0,0.0328
1688.0,0.0321
1687.0,0.0316
1686.0,0.0309
1685.0,0.0301
1684.0,0.0295
1683.0,0.029
1682.0,0.0286
1681.0,0.0281
1680.0,0.0276
1679.0,0.0271
1678.0,0.0267
1677.0,0.0263
1676.0,0.0258
1675.0,0.0252
1674.0,0.0247
1673.0,0.0242
1672.0,0.0238
1671.0,0.0234
1670.0,0.023
1669.0,0.0225
1668.0,0.0221
1667.0,0.0217
1666.0,0.0214
1665.0,0.021
1664.0,0.0206
1663.0,0.0202
1662.0,0.0197
1661.0,0.0192
1660.0,0.0189
1659.0,0.0185
1658.0,0.0183
1657.0,0.0181
1656.0,0.0179
1655.0,0.0175
1654.0,0.017
1653.0,0.0167
1652.0,0.0165
1651.0,0.0163
1650.0,0.0162
1649.0,0.0161
1648.0,0.0158
1647.0,0.0155
1646.0,0.0153
1645.0,0.0152
1644.0,0.015
1643.0,0.0148
1642.0,0.0146
1641.0,0.0145
1640.0,0.0144
1639.0,0.0142
1638.0,0.014
1637.0,0.0138
1636.0,0.0137
1635.0,0.0136
1634.0,0.0134
1633.0,0.0132
1632.0,0.0131
1631.0,0.0129
1630.0,0.0128
1629.0,0.0127
1628.0,0.0126
1627.0,0.0125
1626.0,0.0124
1625.0,0.0123
1624.0,0.0121
1623.0,0.012
1622.0,0.0119
1621.0,0.0118
1620.0,0.0117
1619.0,0.0116
1618.0,0.0116
1617.0,0.0118
1616.0,0.012
1615.0,0.0121
1614.0,0.0121
1613.0,0.012
1612.0,0.0119
1611.0,0.0117
1610.0,0.0116
1609.0,0.0114
1608.0,0.0113
1607.0,0.0111
1606.0,0.0109
1605.0,0.0107
1604.0,0.0105
1603.0,0.0103
1602.0,0.0101
1601.0,0.0099
1600.0,0.0097
1599.0,0.0095
1598.0,0.0093
1597.0,0.0092
1596.0,0.009
1595.0,0.0089
1594.0,0.0088
1593.0,0.0087
1592.0,0.0086
1591.0,0.0085
1590.0,0.0085
1589.0,0.0085
1588.0,0.0084
1587.0,0.0084
1586.0,0.0084
1585.0,0.0085
1584.0,0.0087
1583.0,0.0091
1582.0,0.0095
1581.0,0.01
1580.0,0.0104
1579.0,0.0107
1578.0,0.0109
1577.0,0.0109
1576.0,0.0108
1575.0,0.0105
1574.0,0.0103
1573.0,0.0101
1572.0,0.0099
1571.0,0.0096
1570.0,0.0092
1569.0,0.0089
1568.0,0.0086
1567.0,0.0084
1566.0,0.0082
1565.0,0.008
1564.0,0.0079
1563.0,0.0078
1562.0,0.0077
1561.0,0.0076
1560.0,0.0072
1559.0,0.007
1558.0,0.0072
1557.0,0.0072
1556.0,0.0071
1555.0,0.007
1554.0,0.0068
1553.0,0.0067
1552.0,0.0066
1551.0,0.0065
1550.0,0.0064
1549.0,0.0063
1548.0,0.0062
1547.0,0.0062
1546.0,0.0061
1545.0,0.006
1544.0,0.006
1543.0,0.0058
1542.0,0.0057
1541.0,0.0056
1540.0,0.0055
1539.0,0.0054
1538.0,0.0052
1537.0,0.0051
1536.0,0.0052
1535.0,0.0052
1534.0,0.0053
1533.0,0.0053
1532.0,0.0053
1531.0,0.0052
1530.0,0.0051
1529.0,0.0051
1528.0,0.0051
1527.0,0.0052
1526.0,0.0052
1525.0,0.0051
1524.0,0.005
1523.0,0.0049
1522.0,0.0048
1521.0,0.0047
1520.0,0.0046
1519.0,0.0045
1518.0,0.0044
1517.0,0.0043
1516.0,0.0042
1515.0,0.0041
1514.0,0.004
1513.0,0.004
1512.0,0.0041
1511.0,0.0044
1510.0,0.0048
1509.0,0.0054
1508.0,0.0069
1507.0,0.0094
1506.0,0.0112
1505.0,0.0114
1504.0,0.0109
1503.0,0.0102
1502.0,0.0093
1501.0,0.0083
1500.0,0.0073
1499.0,0.0064
1498.0,0.0057
1497.0,0.005
1496.0,0.0045
1495.0,0.0041
1494.0,0.0038
1493.0,0.0037
1492.0,0.0036
1491.0,0.0035
1490.0,0.0034
1489.0,0.0034
1488.0,0.0034
1487.0,0.0034
1486.0,0.0035
1485.0,0.0036
1484.0,0.0037
1483.0,0.0039
1482.0,0.0041
1481.0,0.0043
1480.0,0.0046
1479.0,0.0049
1478.0,0.0051
1477.0,0.0053
1476.0,0.0056
1475.0,0.0057
1474.0,0.0059
1473.0,0.006
1472.0,0.006
1471.0,0.006
1470.0,0.0059
1469.0,0.0059
1468.0,0.006
1467.0,0.0061
1466.0,0.0063
1465.0,0.0066
1464.0,0.0069
1463.0,0.0072
1462.0,0.0074
1461.0,0.0078
1460.0,0.0081
1459.0,0.0085
1458.0,0.0089
1457.0,0.0095
1456.0,0.0099
1455.0,0.01
1454.0,0.0099
1453.0,0.0099
1452.0,0.0097
1451.0,0.0096
1450.0,0.0094
1449.0,0.0092
1448.0,0.0091
1447.0,0.0089
1446.0,0.0087
1445.0,0.0086
1444.0,0.0085
1443.0,0.0084
1442.0,0.0083
1441.0,0.0082
1440.0,0.0081
1439.0,0.008
1438.0,0.0078
1437.0,0.0075
1436.0,0.0069
1435.0,0.0063
1434.0,0.0057
1433.0,0.0051
1432.0,0.0046
1431.0,0.0041
1430.0,0.0035
1429.0,0.003
1428.0,0.0026
1427.0,0.0023
1426.0,0.002
1425.0,0.0018
1424.0,0.0017
1423.0,0.0016
1422.0,0.0017
1421.0,0.0019
1420.0,0.0024
1419.0,0.0033
1418.0,0.0044
1417.0,0.0058
1416.0,0.0075
1415.0,0.0097
1414.0,0.0125
1413.0,0.0158
1412.0,0.0193
1411.0,0.0227
1410.0,0.0253
1409.0,0.027
1408.0,0.0277
1407.0,0.0272
1406.0,0.0258
1405.0,0.0238
1404.0,0.0216
1403.0,0.0197
1402.0,0.0181
1401.0,0.0166
1400.0,0.0151
1399.0,0.0137
1398.0,0.0126
1397.0,0.0117
1396.0,0.0109
1395.0,0.01
1394.0,0.0092
1393.0,0.0086
1392.0,0.0081
1391.0,0.0077
1390.0,0.0073
1389.0,0.007
1388.0,0.0067
1387.0,0.0064
1386.0,0.0062
1385.0,0.0061
1384.0,0.0061
1383.0,0.0061
1382.0,0.0062
1381.0,0.0064
1380.0,0.0066
1379.0,0.0068
1378.0,0.0071
1377.0,0.0074
1376.0,0.0077
1375.0,0.0082
1374.0,0.0086
1373.0,0.0089
1372.0,0.0091
1371.0,0.0091
1370.0,0.009
1369.0,0.0087
1368.0,0.0082
1367.0,0.0077
1366.0,0.0071
1365.0,0.0064
1364.0,0.0057
1363.0,0.0048
1362.0,0.0041
1361.0,0.0035
1360.0,0.003
1359.0,0.0027
1358.0,0.0026
1357.0,0.0025
1356.0,0.0025
1355.0,0.0026
1354.0,0.0028
1353.0,0.0031
1352.0,0.0036
1351.0,0.0042
1350.0,0.005
1349.0,0.006
1348.0,0.0073
1347.0,0.0087
1346.0,0.0104
1345.0,0.0124
1344.0,0.0145
1343.0,0.0166
1342.0,0.0187
1341.0,0.0208
1340.0,0.0225
1339.0,0.0235
1338.0,0.0235
1337.0,0.0225
1336.0,0.0207
1335.0,0.0182
1334.0,0.0155
1333.0,0.0127
1332.0,0.0101
1331.0,0.008
1330.0,0.0063
1329.0,0.0051
1328.0,0.0044
1327.0,0.0039
1326.0,0.0037
1325.0,0.0037
1324.0,0.0038
1323.0,0.004
1322.0,0.0043
1321.0,0.0047
1320.0,0.0051
1319.0,0.0056
1318.0,0.006
1317.0,0.0064
1316.0,0.0069
1315.0,0.0073
1314.0,0.0079
1313.0,0.0086
1312.0,0.0093
1311.0,0.01
1310.0,0.0108
1309.0,0.0116
1308.0,0.0125
1307.0,0.0133
1306.0,0.0142
1305.0,0.015
1304.0,0.0158
1303.0,0.0168
1302.0,0.0179
1301.0,0.0192
1300.0,0.0207
1299.0,0.0224
1298.0,0.0242
1297.0,0.0261
1296.0,0.028
1295.0,0.0299
1294.0,0.0318
1293.0,0.0336
1292.0,0.0354
1291.0,0.0371
1290.0,0.0386
1289.0,0.0402
1288.0,0.0416
1287.0,0.043
1286.0,0.0442
1285.0,0.0453
1284.0,0.0463
1283.0,0.0473
1282.0,0.0482
1281.0,0.0491
1280.0,0.05
1279.0,0.0509
1278.0,0.0519
1277.0,0.0529
1276.0,0.0542
1275.0,0.0558
1274.0,0.0575
1273.0,0.0596
1272.0,0.0619
1271.0,0.0646
1270.0,0.0673
1269.0,0.07
1268.0,0.0727
1267.0,0.0752
1266.0,0.0776
1265.0,0.0797
1264.0,0.0817
1263.0,0.0834
1262.0,0.0848
1261.0,0.0859
1260.0,0.0868
1259.0,0.0873
1258.0,0.0877
1257.0,0.088
1256.0,0.0884
1255.0,0.0889
1254.0,0.0895
1253.0,0.0903
1252.0,0.0914
1251.0,0.0927
1250.0,0.0941
1249.0,0.0957
1248.0,0.0974
1247.0,0.0993
1246.0,0.1011
1245.0,0.103
1244.0,0.105
1243.0,0.1069
1242.0,0.1087
1241.0,0.1102
1240.0,0.1116
1239.0,0.1126
1238.0,0.1131
1237.0,0.1133
1236.0,0.1131
1235.0,0.1124
1234.0,0.1112
1233.0,0.1097
1232.0,0.1079
1231.0,0.1058
1230.0,0.1035
1229.0,0.1011
1228.0,0.0987
1227.0,0.0962
1226.0,0.0937
1225.0,0.0911
1224.0,0.0885
1223.0,0.0859
1222.0,0.0833
1221.0,0.0808
1220.0,0.0784
1219.0,0.0759
1218.0,0.0735
1217.0,0.0712
1216.0,0.069
1215.0,0.0669
1214.0,0.0648
1213.0,0.0629
1212.0,0.0611
1211.0,0.0594
1210.0,0.0577
1209.0,0.0562
1208.0,0.0547
1207.0,0.0532
1206.0,0.0517
1205.0,0.0503
1204.0,0.0489
1203.0,0.0476
1202.0,0.0463
1201.0,0.0451
1200.0,0.0439
1199.0,0.0427
1198.0,0.0414
1197.0,0.0403
1196.0,0.0391
1195.0,0.038
1194.0,0.0369
1193.0,0.0359
1192.0,0.0348
1191.0,0.0338
1190.0,0.0328
1189.0,0.0318
1188.0,0.0309
1187.0,0.0301
1186.0,0.0294
1185.0,0.0288
1184.0,0.0283
1183.0,0.0279
1182.0,0.0277
1181.0,0.0275
1180.0,0.0276
1179.0,0.0277
1178.0,0.0278
1177.0,0.028
1176.0,0.0281
1175.0,0.028
1174.0,0.0278
1173.0,0.0275
1172.0,0.0269
1171.0,0.0262
1170.0,0.0253
1169.0,0.0242
1168.0,0.0232
1167.0,0.0221
1166.0,0.0212
1165.0,0.0204
1164.0,0.0197
1163.0,0.0192
1162.0,0.0187
1161.0,0.0183
1160.0,0.018
1159.0,0.0177
1158.0,0.0175
1157.0,0.0173
1156.0,0.0172
1155.0,0.0172
1154.0,0.0173
1153.0,0.0176
1152.0,0.018
1151.0,0.0185
1150.0,0.0192
1149.0,0.02
1148.0,0.0208
1147.0,0.0218
1146.0,0.0229
1145.0,0.024
1144.0,0.0253
1143.0,0.0266
1142.0,0.028
1141.0,0.0294
1140.0,0.0308
1139.0,0.0322
1138.0,0.0337
1137.0,0.0353
1136.0,0.0369
1135.0,0.0386
1134.0,0.0404
1133.0,0.0423
1132.0,0.0443
1131.0,0.0466
1130.0,0.0489
1129.0,0.0514
1128.0,0.0539
1127.0,0.0566
1126.0,0.0593
1125.0,0.0622
1124.0,0.0651
1123.0,0.0679
1122.0,0.0704
1121.0,0.0728
1120.0,0.0748
1119.0,0.0765
1118.0,0.0778
1117.0,0.0785
1116.0,0.0788
1115.0,0.0786
1114.0,0.0779
1113.0,0.0772
1112.0,0.0767
1111.0,0.0768
1110.0,0.0778
1109.0,0.0796
1108.0,0.0823
1107.0,0.0855
1106.0,0.089
1105.0,0.0927
1104.0,0.0965
1103.0,0.1001
1102.0,0.1035
1101.0,0.1068
1100.0,0.1098
1099.0,0.1124
1098.0,0.1147
1097.0,0.1168
1096.0,0.1185
1095.0,0.1199
1094.0,0.1208
1093.0,0.1213
1092.0,0.1216
1091.0,0.1214
1090.0,0.121
1089.0,0.1203
1088.0,0.1194
1087.0,0.1184
1086.0,0.1173
1085.0,0.1162
1084.0,0.1151
1083.0,0.1138
1082.0,0.1123
1081.0,0.1107
1080.0,0.1088
1079.0,0.1066
1078.0,0.1041
1077.0,0.1015
1076.0,0.0987
1075.0,0.0959
1074.0,0.093
1073.0,0.0902
1072.0,0.0875
1071.0,0.0849
1070.0,0.0824
1069.0,0.0801
1068.0,0.0779
1067.0,0.0757
1066.0,0.0737
1065.0,0.0718
1064.0,0.0701
1063.0,0.0684
1062.0,0.0668
1061.0,0.0653
1060.0,0.064
1059.0,0.0627
1058.0,0.0616
1057.0,0.0606
1056.0,0.0599
1055.0,0.0593
1054.0,0.0589
1053.0,0.0585
1052.0,0.0582
1051.0,0.0581
1050.0,0.0581
1049.0,0.0582
1048.0,0.0585
1047.0,0.0587
1046.0,0.0588
1045.0,0.059
1044.0,0.0591
1043.0,0.0592
1042.0,0.0591
1041.0,0.0589
1040.0,0.0585
1039.0,0.0579
1038.0,0.0573
1037.0,0.0565
1036.0,0.0557
1035.0,0.0547
1034.0,0.0537
1033.0,0.0528
1032.0,0.0518
1031.0,0.0508
1030.0,0.0498
1029.0,0.0489
1028.0,0.0482
1027.0,0.0479
1026.0,0.0483
1025.0,0.0497
1024.0,0.0524
1023.0,0.0566
1022.0,0.0621
1021.0,0.0689
1020.0,0.0765
1019.0,0.084
1018.0,0.0906
1017.0,0.0952
1016.0,0.0971
1015.0,0.0961
1014.0,0.0928
1013.0,0.0882
1012.0,0.0833
1011.0,0.0786
1010.0,0.0745
1009.0,0.071
1008.0,0.0681
1007.0,0.0657
1006.0,0.0635
1005.0,0.0617
1004.0,0.0601
1003.0,0.0587
1002.0,0.0575
1001.0,0.0564
1000.0,0.0555
999.0,0.0546
998.0,0.0538
997.0,0.053
996.0,0.0523
995.0,0.0516
994.0,0.0509
993.0,0.0503
992.0,0.0498
991.0,0.0493
990.0,0.0489
989.0,0.0485
988.0,0.0482
987.0,0.048
986.0,0.0479
985.0,0.0478
984.0,0.0479
983.0,0.048
982.0,0.0483
981.0,0.0486
980.0,0.049
979.0,0.0495
978.0,0.05
977.0,0.0505
976.0,0.0511
975.0,0.0515
974.0,0.0519
973.0,0.0523
972.0,0.0526
971.0,0.0527
970.0,0.0528
969.0,0.0526
968.0,0.0523
967.0,0.0519
966.0,0.0513
965.0,0.0507
964.0,0.05
963.0,0.0493
962.0,0.0486
961.0,0.0479
960.0,0.0473
959.0,0.0467
958.0,0.0461
957.0,0.0454
956.0,0.0448
955.0,0.0442
954.0,0.0437
953.0,0.0432
952.0,0.0428
951.0,0.0424
950.0,0.042
949.0,0.0417
948.0,0.0413
947.0,0.0409
946.0,0.0406
945.0,0.0402
944.0,0.0398
943.0,0.0394
942.0,0.0392
941.0,0.0389
940.0,0.0387
939.0,0.0385
938.0,0.0383
937.0,0.0381
936.0,0.0379
935.0,0.0377
934.0,0.0376
933.0,0.0374
932.0,0.0372
931.0,0.037
930.0,0.0367
929.0,0.0364
928.0,0.0361
927.0,0.0359
926.0,0.0356
925.0,0.0353
924.0,0.0351
923.0,0.0348
922.0,0.0346
921.0,0.0344
920.0,0.0342
919.0,0.034
918.0,0.0337
917.0,0.0335
916.0,0.0333
915.0,0.0331
914.0,0.0329
913.0,0.0329
912.0,0.0329
911.0,0.0331
910.0,0.0333
909.0,0.0336
908.0,0.034
907.0,0.0344
906.0,0.0349
905.0,0.0354
904.0,0.0359
903.0,0.0364
902.0,0.0368
901.0,0.0372
900.0,0.0375
899.0,0.0378
898.0,0.0381
897.0,0.0382
896.0,0.0382
895.0,0.0381
894.0,0.038
893.0,0.0378
892.0,0.0377
891.0,0.0375
890.0,0.0373
889.0,0.0373
888.0,0.0374
887.0,0.0376
886.0,0.038
885.0,0.0386
884.0,0.0395
883.0,0.0406
882.0,0.042
881.0,0.0439
880.0,0.0463
879.0,0.049
878.0,0.0521
877.0,0.0554
876.0,0.0589
875.0,0.0622
874.0,0.0649
873.0,0.0665
872.0,0.0669
871.0,0.0658
870.0,0.0638
869.0,0.0613
868.0,0.0588
867.0,0.0563
866.0,0.0541
865.0,0.0524
864.0,0.0511
863.0,0.0501
862.0,0.0494
861.0,0.0488
860.0,0.0484
859.0,0.0479
858.0,0.0475
857.0,0.0471
856.0,0.0469
855.0,0.0469
854.0,0.047
853.0,0.0471
852.0,0.0472
851.0,0.0474
850.0,0.0476
849.0,0.048
848.0,0.0483
847.0,0.0485
846.0,0.0486
845.0,0.0486
844.0,0.0487
843.0,0.0487
842.0,0.0485
841.0,0.0483
840.0,0.0479
839.0,0.0475
838.0,0.0471
837.0,0.0468
836.0,0.0464
835.0,0.046
834.0,0.0454
833.0,0.0447
832.0,0.0441
831.0,0.0435
830.0,0.043
829.0,0.0426
828.0,0.0421
827.0,0.0417
826.0,0.0411
825.0,0.0407
824.0,0.0403
823.0,0.04
822.0,0.0397
821.0,0.0395
820.0,0.0393
819.0,0.039
818.0,0.0388
817.0,0.0386
816.0,0.0385
815.0,0.0384
814.0,0.0383
813.0,0.0382
812.0,0.0381
811.0,0.0379
810.0,0.0376
809.0,0.0373
808.0,0.0372
807.0,0.0372
806.0,0.037
805.0,0.0367
804.0,0.0364
803.0,0.036
802.0,0.0357
801.0,0.0354
800.0,0.0352
799.0,0.0352
798.0,0.0358
797.0,0.0369
796.0,0.0384
795.0,0.0401
794.0,0.0413
793.0,0.0419
792.0,0.0417
791.0,0.041
790.0,0.04
789.0,0.0389
788.0,0.0379
787.0,0.0369
786.0,0.0359
785.0,0.035
784.0,0.0342
783.0,0.0335
782.0,0.0328
781.0,0.0322
780.0,0.0317
779.0,0.0313
778.0,0.0308
777.0,0.0302
776.0,0.0295
775.0,0.0289
774.0,0.0284
773.0,0.0279
772.0,0.0274
771.0,0.0269
770.0,0.0264
769.0,0.0259
768.0,0.0253
767.0,0.0247
766.0,0.024
765.0,0.0234
764.0,0.0228
763.0,0.0223
762.0,0.0217
761.0,0.021
760.0,0.0202
759.0,0.0195
758.0,0.0189
757.0,0.0184
756.0,0.0179
755.0,0.0173
754.0,0.0167
753.0,0.0161
752.0,0.0156
751.0,0.015
750.0,0.0146
749.0,0.0144
748.0,0.0144
747.0,0.0144
746.0,0.0146
745.0,0.0151
744.0,0.0159
743.0,0.0173
742.0,0.0196
741.0,0.0232
740.0,0.0285
739.0,0.0354
738.0,0.0439
737.0,0.0537
736.0,0.0643
735.0,0.0755
734.0,0.0872
733.0,0.0994
732.0,0.1122
731.0,0.1256
730.0,0.1396
729.0,0.1543
728.0,0.1692
727.0,0.1834
726.0,0.1953
725.0,0.2035
724.0,0.2068
723.0,0.2045
722.0,0.1972
721.0,0.1863
720.0,0.1737
719.0,0.1614
718.0,0.1503
717.0,0.1406
716.0,0.1321
715.0,0.1249
714.0,0.1188
713.0,0.114
712.0,0.11
711.0,0.1066
710.0,0.1035
709.0,0.1006
708.0,0.098
707.0,0.0954
706.0,0.0928
705.0,0.0904
704.0,0.0886
703.0,0.0871
702.0,0.0857
701.0,0.0841
700.0,0.0822
699.0,0.0799
698.0,0.0776
697.0,0.0755
696.0,0.0737
695.0,0.0718
694.0,0.07
693.0,0.0684
692.0,0.0671
691.0,0.0662
690.0,0.0653
689.0,0.0643
688.0,0.0632
687.0,0.062
686.0,0.0611
685.0,0.0608
684.0,0.061
683.0,0.0613
682.0,0.0617
681.0,0.0619
680.0,0.0617
679.0,0.0609
678.0,0.0597
677.0,0.0586
676.0,0.0578
675.0,0.0574
674.0,0.0571
673.0,0.0569
672.0,0.0564
671.0,0.0555
670.0,0.0546
669.0,0.0544
668.0,0.0555
667.0,0.0558
666.0,0.0552
665.0,0.0543
664.0,0.0537
663.0,0.0533
662.0,0.0528
661.0,0.0521
660.0,0.0513
659.0,0.0506
658.0,0.0502
657.0,0.0501
656.0,0.0499
655.0,0.0495
654.0,0.0487
653.0,0.048
652.0,0.0476
651.0,0.0475
650.0,0.0478
649.0,0.0484
648.0,0.0487
647.0,0.0485
646.0,0.0477
645.0,0.0468
644.0,0.0462
643.0,0.046
642.0,0.0461
641.0,0.0463
640.0,0.0464
639.0,0.0461
638.0,0.0454
637.0,0.0446
636.0,0.0444
635.0,0.0451
634.0,0.0465
633.0,0.048
632.0,0.0489
631.0,0.0488
630.0,0.0483
629.0,0.0479
628.0,0.0476
627.0,0.0474
626.0,0.0472
625.0,0.047
624.0,0.0468
623.0,0.0466
622.0,0.0467
621.0,0.0469
620.0,0.047
619.0,0.0465
618.0,0.0456
617.0,0.0448
616.0,0.044
615.0,0.0432
614.0,0.0427
613.0,0.043
612.0,0.044
611.0,0.0448
610.0,0.0453
609.0,0.0455
608.0,0.0456
607.0,0.0455
606.0,0.0449
605.0,0.0441
604.0,0.0437
603.0,0.0438
602.0,0.0442
601.0,0.0445
600.0,0.0441
