nm,Intensity
526.532,829.6
526.669,829.471
526.805,829.971
526.942,829.586
527.079,829.571
527.216,829.486
527.352,829.771
527.489,829.671
527.625,829.6
527.762,829.586
527.899,829.429
528.035,830.157
528.172,829.429
528.309,829.586
528.445,829.6
528.582,829.686
528.718,829.8
528.855,829.6
528.992,829.514
529.128,829.371
529.265,829.657
529.401,829.743
529.538,829.171
529.674,829.857
529.811,830.029
529.947,829.557
530.084,829.586
530.22,829.614
530.357,829.514
530.493,829.457
530.63,829.357
530.766,829.614
530.903,829.814
531.039,829.486
531.176,829.471
531.312,829.829
531.449,829.571
531.585,829.357
531.721,829.143
531.858,829.929
531.994,836.786
532.131,865.529
532.267,857.871
532.403,834.786
532.54,830.314
532.676,829.629
532.812,829.214
532.949,829.7
533.085,829.657
533.221,829.357
533.358,829.6
533.494,829.671
533.63,830.071
533.767,835.729
533.903,855.086
534.039,875.729
534.176,884.829
534.312,884.343
534.448,882.714
534.584,882.671
534.721,884.8
534.857,884.157
534.993,884.2
535.129,883.757
535.266,882.671
535.402,879.3
535.538,875.614
535.674,873.129
535.81,871.4
535.947,869.043
536.083,868.343
536.219,867.714
536.355,865.7
536.491,866.157
536.627,866.271
536.764,866.229
536.9,867.329
537.036,868.7
537.172,868.443
537.308,868.086
537.444,865.714
537.58,865.186
537.716,863.9
537.852,864.329
537.988,862.886
538.125,864.229
538.261,862.471
538.397,863.829
538.533,862.8
538.669,864.286
538.805,863.043
538.941,864.157
539.077,865.143
539.213,867.414
539.349,865.871
539.485,865.714
539.621,863.886
539.757,864.114
539.893,863.114
540.029,863.729
540.165,863.229
540.301,861.671
540.437,862.371
540.572,863.343
540.708,865.0
540.844,865.829
540.98,865.4
541.116,867.357
541.252,868.171
541.388,869.814
541.524,869.886
541.66,869.471
541.795,869.314
541.931,868.586
542.067,869.5
542.203,870.943
542.339,871.029
542.475,872.371
542.611,872.329
542.746,873.186
542.882,873.857
543.018,874.629
543.154,877.271
543.289,874.2
543.425,873.271
543.561,875.4
543.697,880.486
543.833,877.829
543.968,873.671
544.104,872.514
544.24,870.829
544.375,871.671
544.511,872.814
544.647,873.429
544.783,874.357
544.918,874.314
545.054,873.457
545.19,874.243
545.325,875.786
545.461,877.571
545.597,875.186
545.732,872.271
545.868,869.8
546.004,869.729
546.139,871.329
546.275,870.8
546.41,871.886
546.546,873.186
546.682,873.243
546.817,874.1
546.953,874.543
547.088,873.343
547.224,873.571
547.36,872.943
547.495,872.9
547.631,871.186
547.766,871.043
547.902,870.414
548.037,867.957
548.173,867.357
548.308,866.743
548.444,866.586
548.579,867.4
548.715,866.829
548.85,866.6
548.986,868.557
549.121,867.943
549.257,868.0
549.392,867.386
549.528,867.2
549.663,866.543
549.798,867.114
549.934,867.214
550.069,866.757
550.205,865.929
550.34,866.414
550.475,866.871
550.611,866.129
550.746,865.557
550.882,866.4
551.017,865.543
551.152,865.614
551.288,865.829
551.423,866.786
551.558,866.1
551.694,866.371
551.829,865.957
551.964,865.929
552.1,866.243
552.235,865.557
552.37,864.671
552.505,864.514
552.641,865.8
552.776,864.243
552.911,865.029
553.047,865.543
553.182,867.071
553.317,864.771
553.452,865.8
553.588,865.329
553.723,865.529
553.858,865.629
553.993,865.971
554.128,864.986
554.264,865.014
554.399,864.943
554.534,865.043
554.669,865.986
554.804,865.686
554.939,866.014
555.075,866.557
555.21,865.971
555.345,866.8
555.48,866.157
555.615,867.129
555.75,868.157
555.885,871.929
556.02,880.029
556.155,887.229
556.291,877.214
556.426,871.743
556.561,870.957
556.696,872.6
556.831,874.271
556.966,877.5
557.101,884.186
557.236,880.814
557.371,872.629
557.506,870.571
557.641,868.5
557.776,869.786
557.911,868.757
558.046,869.014
558.181,869.071
558.316,869.214
558.451,870.571
558.586,872.286
558.721,874.229
558.856,877.971
558.991,878.757
559.126,875.157
559.261,872.871
559.396,870.043
559.531,870.571
559.665,870.657
559.8,869.943
559.935,869.986
560.07,870.814
560.205,873.171
560.34,871.486
560.475,871.0
560.61,872.514
560.745,872.514
560.879,872.614
561.014,874.971
561.149,880.043
561.284,881.229
561.419,876.714
561.553,873.543
561.688,874.129
561.823,875.829
561.958,877.829
562.093,879.286
562.227,878.414
562.362,873.929
562.497,874.886
562.632,874.743
562.767,875.614
562.901,877.171
563.036,879.414
563.171,882.8
563.305,884.729
563.44,883.543
563.575,883.929
563.71,883.114
563.844,882.814
563.979,883.8
564.114,884.3
564.248,883.8
564.383,885.1
564.518,887.714
564.652,893.029
564.787,898.257
564.922,905.7
565.056,908.386
565.191,908.714
565.325,903.171
565.46,898.529
565.595,897.086
565.729,897.229
565.864,898.057
565.999,896.657
566.133,894.886
566.268,890.957
566.402,888.386
566.537,887.1
566.671,888.871
566.806,892.943
566.94,896.486
567.075,895.257
567.21,887.557
567.344,886.071
567.479,887.057
567.613,881.986
567.748,878.986
567.882,875.4
568.017,874.757
568.151,873.614
568.285,873.514
568.42,874.943
568.554,875.186
568.689,873.686
568.823,876.971
568.958,879.214
569.092,882.557
569.227,880.586
569.361,878.514
569.495,878.2
569.63,876.814
569.764,878.6
569.899,877.957
570.033,879.014
570.167,880.629
570.302,881.243
570.436,880.414
570.571,880.371
570.705,878.986
570.839,879.043
570.974,879.8
571.108,878.486
571.242,879.557
571.377,880.014
571.511,882.1
571.645,883.857
571.78,883.029
571.914,884.1
572.048,885.0
572.182,886.486
572.317,887.671
572.451,891.743
572.585,896.457
572.719,903.9
572.854,900.357
572.988,894.4
573.122,888.743
573.256,889.514
573.391,889.943
573.525,890.186
573.659,894.643
573.793,895.957
573.927,894.1
574.062,894.143
574.196,894.671
574.33,894.286
574.464,893.543
574.598,890.157
574.733,887.0
574.867,886.586
575.001,884.871
575.135,885.043
575.269,884.143
575.403,883.4
575.537,883.786
575.671,884.971
575.806,885.086
575.94,885.014
576.074,887.014
576.208,891.286
576.342,889.871
576.476,889.943
576.61,891.386
576.744,897.4
576.878,901.743
577.012,907.457
577.146,903.857
577.28,895.614
577.414,887.3
577.548,884.1
577.682,880.986
577.817,878.814
577.951,878.671
578.085,876.329
578.219,875.514
578.353,874.557
578.486,874.843
578.62,874.671
578.754,875.457
578.888,874.671
579.022,875.343
579.156,874.214
579.29,875.086
579.424,875.757
579.558,875.286
579.692,875.514
579.826,874.714
579.96,875.471
580.094,875.8
580.228,875.986
580.362,874.4
580.496,875.671
580.629,875.443
580.763,875.343
580.897,875.357
581.031,875.643
581.165,875.729
581.299,875.043
581.433,876.214
581.566,875.814
581.7,875.557
581.834,876.443
581.968,875.871
582.102,877.786
582.236,876.514
582.369,876.9
582.503,877.629
582.637,877.814
582.771,877.086
582.905,877.529
583.038,877.4
583.172,877.314
583.306,877.343
583.44,877.0
583.573,878.029
583.707,876.614
583.841,876.957
583.975,876.6
584.108,876.514
584.242,877.514
584.376,877.471
584.509,876.586
584.643,877.414
584.777,876.843
584.911,876.486
585.044,876.543
585.178,876.057
585.312,876.9
585.445,876.757
585.579,876.129
585.713,876.943
585.846,876.814
585.98,876.743
586.113,876.857
586.247,877.143
586.381,877.4
586.514,876.529
586.648,876.957
586.782,877.271
586.915,877.557
587.049,877.314
587.182,877.086
587.316,877.171
587.45,877.471
587.583,878.129
587.717,876.971
587.85,878.229
587.984,876.8
588.117,877.214
588.251,877.329
588.384,876.814
588.518,876.586
588.651,877.257
588.785,875.971
588.919,876.429
589.052,876.171
589.186,876.143
589.319,876.414
589.453,877.029
589.586,876.329
589.72,877.014
589.853,877.214
589.986,878.471
590.12,876.971
590.253,876.429
590.387,877.329
590.52,877.014
590.654,878.6
590.787,878.114
590.921,877.429
591.054,877.971
591.187,878.029
591.321,877.1
591.454,876.214
591.588,878.086
591.721,877.843
591.854,877.429
591.988,876.786
592.121,877.886
592.255,877.557
592.388,877.543
592.521,877.614
592.655,877.729
592.788,878.257
592.921,877.829
593.055,877.943
593.188,878.414
593.321,878.143
593.455,877.757
593.588,879.557
593.721,876.957
593.855,877.657
593.988,877.8
594.121,878.757
594.255,878.643
594.388,877.7
594.521,877.929
594.654,877.671
594.788,876.629
594.921,877.843
595.054,878.729
595.187,878.329
595.321,879.029
595.454,878.586
595.587,878.471
595.72,878.671
595.854,878.243
595.987,878.814
596.12,879.457
596.253,878.771
596.387,879.443
596.52,878.886
596.653,879.2
596.786,877.814
596.919,878.643
597.052,879.671
597.186,879.643
597.319,879.471
597.452,880.186
597.585,879.4
597.718,879.429
597.851,879.243
597.985,880.8
598.118,880.343
598.251,880.157
598.384,880.414
598.517,879.714
598.65,880.314
598.783,879.829
598.916,879.3
599.049,880.657
599.183,880.943
599.316,880.286
599.449,881.057
599.582,881.443
599.715,881.486
599.848,880.971
599.981,880.743
600.114,881.386
600.247,880.029
600.38,880.143
600.513,879.986
600.646,880.4
600.779,881.314
600.912,879.729
601.045,879.971
601.178,880.1
601.311,879.814
601.444,879.771
601.577,880.1
601.71,881.043
601.843,880.629
601.976,879.971
602.109,880.414
602.242,880.0
602.375,879.671
602.508,881.214
602.641,880.529
602.774,881.643
602.907,880.157
603.04,880.457
603.173,880.771
603.306,880.143
603.439,881.343
603.572,881.129
603.705,880.957
603.838,881.514
603.971,880.5
604.103,881.214
604.236,881.386
604.369,880.029
604.502,881.814
604.635,880.857
604.768,881.457
604.901,881.214
605.034,880.114
605.167,881.5
605.299,879.943
605.432,880.214
605.565,880.214
605.698,881.143
605.831,879.371
605.964,879.614
606.096,880.214
606.229,881.371
606.362,879.029
606.495,880.643
606.628,880.157
606.761,880.686
606.893,879.543
607.026,879.571
607.159,880.071
607.292,879.829
607.425,881.614
607.557,881.457
607.69,881.071
607.823,880.286
607.956,880.3
608.088,881.514
608.221,880.243
608.354,880.571
608.487,880.657
608.619,880.814
608.752,880.386
608.885,881.043
609.018,881.429
609.15,881.857
609.283,879.9
609.416,880.571
609.548,881.157
609.681,879.771
609.814,881.171
609.947,880.257
610.079,880.686
610.212,880.329
610.345,880.357
610.477,881.157
610.61,881.214
610.743,880.529
610.875,881.2
611.008,881.443
611.141,881.314
611.273,881.5
611.406,881.143
611.539,881.514
611.671,881.314
611.804,881.843
611.936,882.129
612.069,882.1
612.202,881.414
612.334,882.757
612.467,881.314
612.6,881.486
612.732,882.286
612.865,883.586
612.997,882.257
613.13,883.1
613.263,882.086
613.395,882.729
613.528,882.6
613.66,882.7
613.793,883.0
613.925,884.014
614.058,884.071
614.19,883.714
614.323,884.114
614.456,883.414
614.588,884.286
614.721,883.586
614.853,883.243
614.986,883.543
615.118,883.814
615.251,883.486
615.383,883.371
615.516,884.743
615.648,883.971
615.781,884.429
615.913,884.114
616.046,883.357
616.178,881.614
616.311,884.014
616.443,883.457
616.576,884.857
616.708,885.343
616.841,883.286
616.973,885.486
617.106,884.5
617.238,884.071
617.37,885.971
617.503,885.771
617.635,885.229
617.768,884.657
617.9,885.343
618.033,885.386
618.165,884.114
618.297,885.243
618.43,887.214
618.562,885.529
618.695,886.2
618.827,886.214
618.96,884.443
619.092,885.486
619.224,885.671
619.357,886.657
619.489,886.8
619.621,888.329
619.754,887.571
619.886,887.271
620.019,887.071
620.151,885.786
620.283,886.957
620.416,887.229
620.548,886.129
620.68,888.157
620.813,886.671
620.945,888.329
621.077,887.714
621.21,888.929
621.342,887.914
621.474,889.757
621.607,888.843
621.739,892.329
621.871,891.986
622.004,892.886
622.136,893.486
622.268,897.014
622.401,897.429
622.533,897.586
622.665,893.2
622.797,893.943
622.93,893.857
623.062,894.114
623.194,893.714
623.326,892.986
623.459,892.229
623.591,892.271
623.723,890.171
623.856,890.471
623.988,890.171
624.12,890.729
624.252,892.371
624.384,890.214
624.517,891.214
624.649,891.1
624.781,890.171
624.913,892.186
625.046,891.286
625.178,892.529
625.31,892.386
625.442,892.114
625.574,894.557
625.707,895.114
625.839,895.743
625.971,897.671
626.103,898.657
626.235,899.786
626.368,903.686
626.5,908.8
626.632,916.943
626.764,933.8
626.896,948.843
627.028,953.071
627.161,945.843
627.293,934.4
627.425,929.029
627.557,930.271
627.689,937.014
627.821,956.8
627.953,981.943
628.086,1000.86
628.218,1003.39
628.35,1011.0
628.482,1027.84
628.614,1045.47
628.746,1052.04
628.878,1047.13
629.01,1036.53
629.143,1027.07
629.275,1023.14
629.407,1027.56
629.539,1031.4
629.671,1020.66
629.803,1005.43
629.935,995.086
630.067,990.771
630.199,992.557
630.331,991.271
630.463,984.557
630.596,975.471
630.728,963.614
630.86,953.071
630.992,951.857
631.124,956.6
631.256,967.2
631.388,977.557
631.52,975.6
631.652,971.814
631.784,967.914
631.916,959.929
632.048,949.043
632.18,938.257
632.312,926.786
632.444,918.4
632.576,913.257
632.708,910.343
632.84,904.129
632.972,903.6
633.104,900.814
633.236,897.7
633.368,897.157
633.5,895.414
633.632,893.9
633.764,893.8
633.896,890.286
634.028,891.014
634.16,887.814
634.292,887.7
634.424,886.614
634.556,887.7
634.688,886.571
634.82,887.1
634.952,886.1
635.084,885.786
635.216,886.386
635.348,884.371
635.48,884.871
635.612,885.971
635.744,885.5
635.876,885.671
636.007,884.971
636.139,885.843
636.271,884.829
636.403,886.129
636.535,885.671
636.667,884.8
636.799,885.543
636.931,883.929
637.063,885.043
637.195,885.3
637.327,885.171
637.459,885.1
637.59,884.629
637.722,884.914
637.854,884.043
637.986,885.343
638.118,886.429
638.25,884.971
638.382,884.743
638.514,884.686
638.645,886.657
638.777,886.257
638.909,885.757
639.041,886.5
639.173,885.629
639.305,885.186
639.437,886.786
639.568,884.914
639.7,884.986
639.832,885.729
639.964,884.614
640.096,885.314
640.228,886.3
640.36,885.857
640.491,886.057
640.623,887.371
640.755,886.429
640.887,887.543
641.019,887.543
641.15,886.843
641.282,886.6
641.414,886.771
641.546,887.014
641.678,888.457
641.81,886.971
641.941,886.557
642.073,887.843
642.205,886.157
642.337,887.457
642.468,887.214
642.6,888.1
642.732,888.243
642.864,888.2
642.996,887.714
643.127,887.543
643.259,887.871
643.391,887.571
643.523,888.186
643.654,887.571
643.786,889.043
643.918,888.729
644.05,888.443
644.181,889.714
644.313,889.029
644.445,889.9
644.577,889.286
644.708,889.529
644.84,889.686
644.972,889.414
645.104,889.943
645.235,889.843
645.367,889.957
645.499,890.514
645.631,889.786
645.762,888.986
645.894,889.286
646.026,889.514
646.157,888.5
646.289,889.314
646.421,889.943
646.553,889.043
646.684,888.943
646.816,890.286
646.948,890.314
647.079,891.0
647.211,891.014
647.343,890.543
647.474,891.1
647.606,891.3
647.738,891.971
647.869,890.514
648.001,891.686
648.133,890.814
648.265,890.171
648.396,891.057
648.528,891.357
648.66,891.486
648.791,890.5
648.923,890.214
649.054,890.671
649.186,890.743
649.318,891.143
649.449,890.229
649.581,889.857
649.713,890.471
649.844,891.314
649.976,889.4
650.108,890.4
650.239,890.729
650.371,889.943
650.503,890.414
650.634,889.671
650.766,888.929
650.897,890.471
651.029,890.3
651.161,889.6
651.292,891.429
651.424,890.9
651.556,889.386
651.687,889.243
651.819,889.8
651.95,888.671
652.082,888.329
652.214,889.457
652.345,889.314
652.477,888.629
652.608,887.7
652.74,886.771
652.872,887.357
653.003,887.514
653.135,886.771
653.266,888.129
653.398,886.514
653.529,885.857
653.661,885.343
653.793,885.986
653.924,887.186
654.056,885.043
654.187,885.329
654.319,885.057
654.45,884.9
654.582,883.8
654.714,883.243
654.845,884.343
654.977,882.871
655.108,883.814
655.24,882.571
655.371,881.086
655.503,881.371
655.634,881.7
655.766,882.443
655.897,882.971
656.029,882.1
656.161,880.757
656.292,880.529
656.424,880.929
656.555,881.1
656.687,879.543
656.818,881.157
656.95,880.157
657.081,880.486
657.213,879.257
657.344,879.829
657.476,880.157
657.607,880.386
657.739,879.643
657.87,879.071
658.002,879.714
658.133,879.1
658.265,879.0
658.396,878.8
658.528,877.986
658.659,880.3
658.791,879.057
658.922,878.957
659.054,878.114
659.185,878.414
659.317,877.657
659.448,878.2
659.58,879.443
659.711,878.129
659.843,878.143
659.974,878.057
660.106,876.9
660.237,876.743
660.368,877.257
660.5,878.029
660.631,876.843
660.763,876.4
660.894,876.443
661.026,877.229
661.157,877.657
661.289,876.6
661.42,876.614
661.552,877.029
661.683,875.557
661.815,875.814
661.946,875.843
662.077,875.614
662.209,875.2
662.34,875.914
662.472,875.871
662.603,875.486
662.735,875.714
662.866,875.271
662.997,875.3
663.129,874.529
