nm,Intensity
526.508,831.4
526.645,831.3
526.782,830.6
526.919,830.0
527.055,830.1
527.192,830.3
527.329,830.6
527.465,831.3
527.602,829.6
527.739,830.6
527.875,831.2
528.012,831.4
528.149,830.6
528.285,831.8
528.422,830.5
528.558,831.1
528.695,831.4
528.832,830.6
528.968,831.1
529.105,830.0
529.241,831.1
529.378,831.3
529.514,830.7
529.651,831.3
529.787,830.5
529.924,831.8
530.061,830.3
530.197,829.2
530.334,829.5
530.47,831.1
530.606,831.1
530.743,830.7
530.879,832.1
531.016,830.0
531.152,830.3
531.289,830.8
531.425,830.0
531.562,830.7
531.698,831.0
531.834,831.1
531.971,832.9
532.107,848.7
532.244,851.8
532.38,836.3
532.516,831.4
532.653,832.0
532.789,831.7
532.925,832.2
533.062,829.5
533.198,831.9
533.334,831.8
533.471,832.8
533.607,841.1
533.743,923.7
533.879,1343.9
534.016,2069.8
534.152,2445.3
534.288,2464.9
534.424,2399.1
534.561,2331.0
534.697,2306.2
534.833,2257.3
534.969,2185.0
535.106,2126.2
535.242,2079.9
535.378,2053.7
535.514,2037.3
535.65,2010.7
535.786,2010.5
535.923,1978.0
536.059,1951.5
536.195,1940.1
536.331,1916.9
536.467,1909.2
536.603,1904.1
536.739,1897.6
536.876,1898.1
537.012,1911.4
537.148,1903.4
537.284,1906.7
537.42,1899.2
537.556,1901.5
537.692,1903.2
537.828,1913.4
537.964,1913.2
538.1,1933.4
538.236,1927.6
538.372,1925.0
538.508,1928.9
538.644,1936.6
538.78,1935.3
538.916,1928.4
539.052,1940.7
539.188,1942.8
539.324,1959.7
539.46,1959.6
539.596,1972.3
539.732,1989.6
539.868,1999.3
540.004,2011.0
540.14,2012.3
540.275,2006.5
540.411,2007.9
540.547,1995.1
540.683,1990.9
540.819,1979.0
540.955,1988.6
541.091,1995.2
541.227,1993.9
541.362,1998.8
541.498,2005.6
541.634,2015.4
541.77,2015.3
541.906,2017.9
542.041,2028.6
542.177,2016.2
542.313,2024.5
542.449,2021.7
542.585,2050.2
542.72,2027.8
542.856,2050.7
542.992,2056.4
543.128,2053.0
543.263,2058.3
543.399,2068.2
543.535,2072.6
543.67,2058.5
543.806,2088.2
543.942,2096.8
544.078,2087.5
544.213,2090.1
544.349,2082.5
544.485,2092.2
544.62,2095.7
544.756,2100.1
544.892,2108.7
545.027,2101.7
545.163,2120.4
545.298,2131.9
545.434,2120.5
545.57,2125.6
545.705,2120.2
545.841,2141.9
545.976,2145.3
546.112,2147.5
546.248,2150.2
546.383,2138.6
546.519,2158.9
546.654,2178.8
546.79,2156.2
546.925,2160.9
547.061,2175.4
547.196,2163.0
547.332,2183.5
547.467,2182.8
547.603,2184.4
547.738,2187.3
547.874,2186.1
548.009,2172.7
548.145,2195.5
548.28,2192.6
548.416,2203.4
548.551,2210.9
548.686,2205.1
548.822,2221.3
548.957,2216.7
549.093,2222.2
549.228,2242.7
549.363,2232.8
549.499,2241.1
549.634,2235.1
549.77,2238.3
549.905,2235.1
550.04,2264.0
550.176,2232.5
550.311,2252.6
550.446,2262.9
550.582,2368.7
550.717,2482.9
550.852,2396.1
550.988,2301.7
551.123,2279.6
551.258,2271.3
551.394,2285.2
551.529,2285.2
551.664,2292.4
551.799,2288.7
551.935,2307.0
552.07,2318.4
552.205,2309.4
552.34,2321.3
552.476,2321.1
552.611,2329.2
552.746,2351.9
552.881,2393.0
553.016,2375.0
553.152,2327.8
553.287,2329.0
553.422,2351.5
553.557,2342.7
553.692,2347.2
553.827,2364.9
553.963,2368.1
554.098,2368.1
554.233,2368.5
554.368,2357.2
554.503,2377.9
554.638,2377.0
554.773,2395.3
554.908,2375.2
555.043,2397.6
555.179,2398.2
555.314,2405.7
555.449,2415.0
555.584,2421.9
555.719,2448.4
555.854,2446.9
555.989,2432.0
556.124,2435.1
556.259,2461.2
556.394,2458.2
556.529,2465.6
556.664,2482.0
556.799,2475.3
556.934,2475.8
557.069,2513.4
557.204,2531.8
557.339,2573.2
557.474,2665.2
557.609,2760.4
557.744,2763.4
557.879,2651.6
558.014,2557.9
558.149,2524.7
558.284,2518.6
558.419,2522.6
558.553,2518.8
558.688,2509.3
558.823,2511.2
558.958,2514.4
559.093,2495.0
559.228,2507.6
559.363,2498.6
559.498,2521.0
559.632,2511.0
559.767,2497.2
559.902,2519.2
560.037,2544.0
560.172,2545.4
560.307,2536.0
560.441,2546.7
560.576,2531.5
560.711,2543.2
560.846,2564.7
560.981,2557.2
561.115,2568.2
561.25,2574.5
561.385,2578.0
561.52,2570.3
561.654,2601.0
561.789,2597.2
561.924,2610.0
562.059,2636.5
562.193,2638.9
562.328,2630.6
562.463,2637.5
562.598,2640.5
562.732,2645.7
562.867,2647.4
563.002,2641.6
563.136,2651.3
563.271,2657.8
563.406,2655.3
563.54,2664.0
563.675,2689.2
563.81,2696.5
563.944,2671.8
564.079,2690.0
564.213,2710.6
564.348,2703.3
564.483,2747.3
564.617,2743.4
564.752,2787.9
564.887,2820.8
565.021,2856.7
565.156,2906.6
565.29,2881.0
565.425,2859.2
565.559,2861.3
565.694,2882.9
565.828,2903.5
565.963,2893.2
566.098,2864.6
566.232,2837.3
566.367,2814.6
566.501,2786.6
566.636,2779.9
566.77,2769.2
566.905,2771.9
567.039,2767.0
567.174,2766.2
567.308,2774.5
567.443,2808.1
567.577,2820.1
567.711,2847.7
567.846,2863.1
567.98,2839.8
568.115,2845.9
568.249,2814.5
568.384,2825.6
568.518,2833.1
568.652,2854.1
568.787,2818.7
568.921,2833.6
569.056,2842.4
569.19,2857.2
569.324,2872.1
569.459,2886.7
569.593,2874.9
569.727,2888.7
569.862,2903.9
569.996,2919.6
570.131,2919.9
570.265,2936.7
570.399,2961.2
570.534,2988.5
570.668,3020.5
570.802,3053.9
570.936,3115.9
571.071,3222.7
571.205,3280.9
571.339,3333.8
571.474,3337.8
571.608,3301.8
571.742,3192.0
571.876,3125.2
572.011,3120.3
572.145,3099.0
572.279,3036.3
572.413,3031.4
572.548,3015.6
572.682,2996.0
572.816,3001.8
572.95,2991.6
573.084,2998.2
573.219,3006.0
573.353,3016.8
573.487,3007.7
573.621,3021.2
573.755,3042.6
573.889,3035.2
574.024,3067.9
574.158,3074.3
574.292,3068.7
574.426,3080.4
574.56,3053.6
574.694,3077.4
574.828,3076.9
574.963,3088.9
575.097,3084.6
575.231,3103.2
575.365,3147.6
575.499,3164.3
575.633,3156.5
575.767,3131.2
575.901,3109.3
576.035,3120.3
576.169,3128.1
576.303,3130.8
576.437,3150.8
576.571,3148.4
576.706,3164.1
576.84,3164.2
576.974,3181.4
577.108,3154.2
577.242,3171.4
577.376,3172.6
577.51,3163.3
577.644,3161.4
577.778,3152.0
577.912,3154.0
578.046,3185.2
578.179,3176.5
578.313,3173.8
578.447,3165.1
578.581,3197.7
578.715,3185.5
578.849,3188.5
578.983,3191.0
579.117,3179.9
579.251,3190.8
579.385,3220.2
579.519,3219.2
579.653,3194.2
579.787,3219.1
579.921,3208.5
580.054,3215.4
580.188,3203.9
580.322,3246.0
580.456,3239.7
580.59,3236.4
580.724,3245.5
580.858,3230.4
580.991,3263.0
581.125,3262.0
581.259,3284.5
581.393,3284.7
581.527,3324.9
581.661,3400.0
581.794,3559.4
581.928,3885.1
582.062,4497.6
582.196,5059.5
582.33,4757.2
582.463,3921.5
582.597,3511.7
582.731,3413.0
582.865,3365.0
582.998,3355.5
583.132,3336.9
583.266,3348.7
583.4,3336.5
583.533,3335.0
583.667,3341.9
583.801,3348.0
583.935,3339.0
584.068,3357.7
584.202,3365.0
584.336,3386.0
584.469,3377.9
584.603,3377.9
584.737,3379.6
584.87,3348.6
585.004,3388.0
585.138,3389.1
585.271,3436.6
585.405,3495.9
585.539,3600.7
585.672,3810.7
585.806,3998.8
585.94,4186.8
586.073,4264.3
586.207,4187.9
586.34,4060.8
586.474,3917.2
586.608,3778.7
586.741,3638.8
586.875,3572.8
587.008,3497.6
587.142,3498.7
587.276,3497.7
587.409,3462.3
587.543,3460.4
587.676,3454.9
587.81,3474.1
587.943,3460.7
588.077,3465.8
588.21,3457.7
588.344,3446.4
588.478,3453.6
588.611,3438.1
588.745,3410.1
588.878,3444.9
589.012,3436.0
589.145,3435.7
589.279,3450.8
589.412,3435.7
589.546,3425.1
589.679,3461.4
589.812,3452.3
589.946,3447.6
590.079,3466.1
590.213,3458.9
590.346,3457.3
590.48,3482.0
590.613,3481.2
590.747,3477.1
590.88,3477.3
591.013,3511.9
591.147,3491.8
591.28,3484.1
591.414,3495.8
591.547,3480.3
591.68,3516.2
591.814,3511.4
591.947,3498.3
592.081,3509.5
592.214,3497.3
592.347,3516.1
592.481,3497.9
592.614,3485.9
592.747,3502.6
592.881,3502.6
593.014,3502.3
593.147,3483.3
593.281,3480.5
593.414,3484.0
593.547,3511.5
593.681,3527.3
593.814,3506.6
593.947,3492.4
594.081,3528.8
594.214,3511.9
594.347,3535.0
594.48,3512.4
594.614,3529.2
594.747,3517.5
594.88,3555.0
595.014,3559.1
595.147,3564.1
595.28,3561.8
595.413,3543.7
595.547,3552.0
595.68,3578.9
595.813,3571.5
595.946,3570.4
596.079,3569.4
596.213,3577.2
596.346,3580.8
596.479,3607.8
596.612,3602.7
596.745,3573.8
596.879,3608.7
597.012,3611.5
597.145,3616.2
597.278,3606.2
597.411,3584.4
597.545,3617.6
597.678,3599.1
597.811,3635.9
597.944,3637.0
598.077,3643.6
598.21,3664.3
598.343,3665.8
598.476,3659.9
598.61,3677.4
598.743,3677.0
598.876,3683.0
599.009,3685.0
599.142,3679.2
599.275,3678.6
599.408,3688.2
599.541,3695.8
599.674,3691.0
599.807,3685.6
599.941,3693.0
600.074,3694.1
600.207,3684.1
600.34,3691.9
600.473,3712.7
600.606,3683.1
600.739,3695.4
600.872,3704.8
601.005,3689.2
601.138,3689.3
601.271,3692.5
601.404,3707.9
601.537,3685.4
601.67,3703.3
601.803,3698.6
601.936,3699.0
602.069,3719.4
602.202,3724.3
602.335,3711.4
602.468,3740.7
602.601,3729.9
602.734,3768.0
602.867,3734.6
603.0,3743.6
603.133,3765.8
603.266,3736.1
603.399,3763.8
603.532,3780.5
603.664,3770.7
603.797,3802.3
603.93,3796.2
604.063,3781.7
604.196,3769.8
604.329,3784.8
604.462,3777.6
604.595,3782.2
604.728,3771.5
604.861,3764.4
604.994,3781.7
605.126,3761.4
605.259,3780.3
605.392,3729.9
605.525,3761.7
605.658,3749.8
605.791,3761.8
605.924,3745.2
606.056,3732.2
606.189,3751.0
606.322,3757.8
606.455,3764.0
606.588,3765.8
606.721,3767.2
606.853,3785.2
606.986,3806.6
607.119,3784.8
607.252,3826.5
607.385,3803.8
607.517,3803.3
607.65,3805.2
607.783,3848.5
607.916,3857.8
608.049,3855.6
608.181,3879.6
608.314,3889.0
608.447,3888.0
608.58,3893.2
608.712,3900.0
608.845,3922.0
608.978,3930.1
609.111,3931.4
609.243,3920.5
609.376,3938.9
609.509,3940.8
609.641,3950.9
609.774,3951.4
609.907,3956.5
610.04,3969.3
610.172,3982.6
610.305,3947.3
610.438,3974.7
610.57,3959.6
610.703,3969.0
610.836,3993.0
610.968,4019.4
611.101,4007.4
611.234,4014.7
611.366,4044.7
611.499,4029.0
611.632,4046.5
611.764,4054.5
611.897,4059.0
612.03,4086.6
612.162,4098.1
612.295,4109.2
612.428,4139.3
612.56,4138.0
612.693,4155.5
612.825,4190.6
612.958,4211.0
613.091,4232.3
613.223,4226.9
613.356,4232.5
613.488,4277.2
613.621,4273.4
613.754,4261.6
613.886,4279.5
614.019,4294.1
614.151,4281.8
614.284,4304.8
614.416,4323.4
614.549,4336.4
614.681,4371.6
614.814,4340.5
614.947,4336.1
615.079,4366.8
615.212,4369.8
615.344,4372.3
615.477,4384.9
615.609,4362.6
615.742,4406.1
615.874,4395.3
616.007,4401.7
616.139,4420.9
616.272,4421.6
616.404,4448.3
616.537,4427.6
616.669,4453.6
616.802,4466.6
616.934,4475.3
617.067,4492.1
617.199,4511.1
617.332,4548.1
617.464,4540.4
617.596,4538.2
617.729,4582.0
617.861,4571.7
617.994,4609.0
618.126,4607.8
618.259,4617.5
618.391,4661.3
618.524,4630.0
618.656,4633.7
618.788,4667.3
618.921,4685.4
619.053,4644.5
619.186,4675.5
619.318,4691.7
619.45,4703.3
619.583,4714.1
619.715,4712.5
619.848,4731.2
619.98,4727.8
620.112,4725.9
620.245,4738.8
620.377,4752.9
620.509,4753.9
620.642,4761.3
620.774,4768.0
620.907,4776.7
621.039,4792.7
621.171,4826.3
621.304,4849.8
621.436,4833.7
621.568,4818.7
621.701,4868.1
621.833,4882.2
621.965,4891.3
622.097,4909.5
622.23,4906.0
622.362,4921.0
622.494,4963.8
622.627,4987.1
622.759,4988.4
622.891,5010.6
623.024,5028.9
623.156,5049.1
623.288,5054.7
623.42,5064.9
623.553,5103.1
623.685,5106.5
623.817,5097.4
623.949,5132.3
624.082,5139.6
624.214,5141.2
624.346,5156.8
624.479,5169.2
624.611,5188.8
624.743,5210.8
624.875,5223.1
625.007,5216.5
625.14,5248.0
625.272,5234.6
625.404,5260.9
625.536,5259.0
625.669,5259.6
625.801,5278.0
625.933,5277.9
626.065,5302.3
626.197,5312.6
626.33,5296.3
626.462,5333.9
626.594,5310.2
626.726,5338.2
626.858,5365.5
626.99,5359.2
627.123,5373.6
627.255,5367.6
627.387,5384.8
627.519,5393.3
627.651,5413.0
627.783,5407.9
627.916,5435.3
628.048,5441.7
628.18,5457.9
628.312,5493.0
628.444,5518.7
628.576,5523.8
628.708,5509.8
628.84,5540.5
628.973,5561.2
629.105,5577.4
629.237,5591.2
629.369,5600.7
629.501,5626.2
629.633,5615.1
629.765,5657.4
629.897,5650.4
630.029,5667.5
630.161,5660.0
630.294,5693.1
630.426,5715.4
630.558,5731.1
630.69,5722.1
630.822,5728.9
630.954,5766.0
631.086,5781.4
631.218,5819.0
631.35,5876.9
631.482,5886.6
631.614,5922.2
631.746,5958.1
631.878,6002.7
632.01,5997.3
632.142,5985.5
632.274,5955.7
632.406,5973.4
632.538,5953.1
632.67,5944.6
632.802,5963.2
632.934,5921.5
633.066,5914.8
633.198,5964.4
633.33,5975.2
633.462,5986.1
633.594,5945.1
633.726,5957.6
633.858,5962.4
633.99,5985.7
634.122,5949.0
634.254,5947.7
634.386,5967.1
634.518,5978.1
634.65,5956.7
634.782,5976.7
634.914,6013.8
635.046,6014.8
635.178,6034.5
635.31,6042.3
635.442,6053.8
635.574,6096.9
635.706,6116.4
635.838,6147.2
635.97,6222.4
636.102,6253.9
636.234,6274.6
636.365,6393.8
636.497,6444.5
636.629,6438.5
636.761,6432.6
636.893,6392.9
637.025,6339.5
637.157,6271.2
637.289,6260.9
637.421,6230.8
637.553,6225.7
637.685,6265.7
637.816,6222.0
637.948,6259.2
638.08,6261.6
638.212,6253.4
638.344,6266.3
638.476,6277.4
638.608,6267.1
638.74,6299.0
638.871,6304.2
639.003,6282.5
639.135,6308.1
639.267,6317.2
639.399,6306.8
639.531,6329.7
639.662,6358.6
639.794,6368.1
639.926,6379.1
640.058,6375.0
640.19,6360.1
640.322,6396.5
640.453,6421.1
640.585,6391.3
640.717,6384.4
640.849,6414.4
640.981,6402.1
641.113,6420.4
641.244,6440.7
641.376,6456.7
641.508,6461.7
641.64,6485.7
641.772,6462.0
641.903,6437.8
642.035,6503.7
642.167,6485.6
642.299,6517.2
642.43,6472.5
642.562,6543.8
642.694,6501.5
642.826,6513.4
642.958,6473.3
643.089,6472.0
643.221,6472.7
643.353,6464.5
643.485,6452.9
643.616,6453.3
643.748,6441.0
643.88,6463.5
644.012,6463.9
644.143,6463.2
644.275,6450.6
644.407,6470.6
644.538,6485.9
644.67,6462.9
644.802,6456.5
644.934,6471.2
645.065,6440.3
645.197,6461.3
645.329,6453.4
645.461,6513.9
645.592,6489.3
645.724,6505.1
645.856,6486.3
645.987,6531.8
646.119,6548.2
646.251,6504.3
646.382,6518.2
646.514,6551.8
646.646,6496.2
646.777,6544.7
646.909,6570.9
647.041,6591.8
647.172,6590.2
647.304,6594.2
647.436,6585.4
647.567,6620.1
647.699,6581.7
647.831,6621.4
647.962,6602.8
648.094,6580.0
648.226,6609.8
648.357,6569.8
648.489,6612.6
648.621,6608.9
648.752,6600.3
648.884,6601.9
649.016,6605.6
649.147,6590.5
649.279,6594.0
649.411,6595.6
649.542,6607.8
649.674,6591.8
649.805,6586.7
649.937,6589.4
650.069,6595.9
650.2,6599.7
650.332,6603.7
650.463,6578.7
650.595,6616.6
650.727,6602.3
650.858,6597.4
650.99,6609.8
651.121,6622.1
651.253,6582.1
651.385,6651.7
651.516,6645.7
651.648,6612.7
651.779,6619.4
651.911,6636.7
652.043,6622.8
652.174,6645.1
652.306,6675.0
652.437,6674.6
652.569,6643.0
652.7,6678.6
652.832,6701.2
652.963,6668.3
653.095,6689.9
653.227,6681.2
653.358,6696.9
653.49,6718.7
653.621,6737.0
653.753,6691.8
653.884,6734.3
654.016,6724.5
654.147,6708.0
654.279,6741.1
654.41,6739.0
654.542,6690.5
654.674,6683.7
654.805,6740.5
654.937,6702.8
655.068,6708.3
655.2,6691.6
655.331,6729.4
655.463,6720.2
655.594,6716.3
655.726,6709.1
655.857,6728.3
655.989,6723.0
656.12,6719.1
656.252,6723.7
656.383,6722.5
656.515,6744.1
656.646,6729.7
656.778,6760.7
656.909,6780.2
657.041,6757.5
657.172,6724.1
657.304,6775.9
657.435,6731.7
657.567,6759.6
657.698,6772.3
657.829,6784.0
657.961,6743.5
658.092,6793.2
658.224,6787.3
658.355,6796.6
658.487,6809.0
658.618,6805.3
658.75,6795.6
658.881,6764.9
659.013,6790.1
659.144,6799.6
659.275,6814.7
659.407,6830.9
659.538,6844.0
659.67,6756.1
659.801,6793.3
659.933,6831.1
660.064,6809.6
660.196,6794.2
660.327,6761.1
660.458,6816.9
660.59,6790.0
660.721,6788.0
660.853,6754.9
660.984,6729.5
661.116,6783.7
661.247,6736.2
661.378,6745.6
661.51,6733.2
661.641,6701.0
661.773,6796.6
661.904,6742.1
662.035,6728.7
662.167,6724.7
662.298,6689.8
662.43,6705.4
662.561,6727.8
662.692,6729.2
662.824,6716.7
662.955,6700.0
663.087,6718.1
