cm-1,A
4000.0,-0.0044
3999.0,-0.0044
3998.0,-0.0045
3997.0,-0.0045
3996.0,-0.0045
3995.0,-0.0045
3994.0,-0.0045
3993.0,-0.0044
3992.0,-0.0044
3991.0,-0.0044
3990.0,-0.0044
3989.0,-0.0044
3988.0,-0.0044
3987.0,-0.0045
3986.0,-0.0045
3985.0,-0.0045
3984.0,-0.0045
3983.0,-0.0045
3982.0,-0.0045
3981.0,-0.0044
3980.0,-0.0044
3979.0,-0.0043
3978.0,-0.0044
3977.0,-0.0044
3976.0,-0.0044
3975.0,-0.0044
3974.0,-0.0043
3973.0,-0.0042
3972.0,-0.0042
3971.0,-0.0042
3970.0,-0.0043
3969.0,-0.0044
3968.0,-0.0045
3967.0,-0.0046
3966.0,-0.0046
3965.0,-0.0046
3964.0,-0.0045
3963.0,-0.0044
3962.0,-0.0043
3961.0,-0.0042
3960.0,-0.0042
3959.0,-0.0042
3958.0,-0.0042
3957.0,-0.0043
3956.0,-0.0044
3955.0,-0.0045
3954.0,-0.0045
3953.0,-0.0046
3952.0,-0.0045
3951.0,-0.0045
3950.0,-0.0045
3949.0,-0.0046
3948.0,-0.0046
3947.0,-0.0046
3946.0,-0.0046
3945.0,-0.0046
3944.0,-0.0045
3943.0,-0.0044
3942.0,-0.0044
3941.0,-0.0044
3940.0,-0.0045
3939.0,-0.0045
3938.0,-0.0045
3937.0,-0.0045
3936.0,-0.0045
3935.0,-0.0046
3934.0,-0.0046
3933.0,-0.0046
3932.0,-0.0046
3931.0,-0.0045
3930.0,-0.0044
3929.0,-0.0044
3928.0,-0.0043
3927.0,-0.0043
3926.0,-0.0043
3925.0,-0.0043
3924.0,-0.0043
3923.0,-0.0043
3922.0,-0.0043
3921.0,-0.0043
3920.0,-0.0042
3919.0,-0.0042
3918.0,-0.0041
3917.0,-0.004
3916.0,-0.004
3915.0,-0.0041
3914.0,-0.0041
3913.0,-0.0042
3912.0,-0.0042
3911.0,-0.0043
3910.0,-0.0043
3909.0,-0.0042
3908.0,-0.0042
3907.0,-0.0041
3906.0,-0.0041
3905.0,-0.004
3904.0,-0.0038
3903.0,-0.0037
3902.0,-0.0036
3901.0,-0.0037
3900.0,-0.0039
3899.0,-0.0041
3898.0,-0.0043
3897.0,-0.0043
3896.0,-0.0043
3895.0,-0.0043
3894.0,-0.0042
3893.0,-0.0042
3892.0,-0.0041
3891.0,-0.0041
3890.0,-0.0041
3889.0,-0.0041
3888.0,-0.0042
3887.0,-0.0043
3886.0,-0.0043
3885.0,-0.0041
3884.0,-0.004
3883.0,-0.0041
3882.0,-0.0042
3881.0,-0.0043
3880.0,-0.0042
3879.0,-0.0041
3878.0,-0.0041
3877.0,-0.0041
3876.0,-0.0042
3875.0,-0.0042
3874.0,-0.004
3873.0,-0.0039
3872.0,-0.0039
3871.0,-0.004
3870.0,-0.004
3869.0,-0.0039
3868.0,-0.0038
3867.0,-0.0038
3866.0,-0.004
3865.0,-0.004
3864.0,-0.004
3863.0,-0.004
3862.0,-0.004
3861.0,-0.004
3860.0,-0.004
3859.0,-0.004
3858.0,-0.0039
3857.0,-0.0037
3856.0,-0.0037
3855.0,-0.0039
3854.0,-0.0037
3853.0,-0.0036
3852.0,-0.0037
3851.0,-0.0038
3850.0,-0.0039
3849.0,-0.004
3848.0,-0.0041
3847.0,-0.0041
3846.0,-0.0042
3845.0,-0.0042
3844.0,-0.0042
3843.0,-0.0041
3842.0,-0.004
3841.0,-0.0039
3840.0,-0.0039
3839.0,-0.0038
3838.0,-0.0037
3837.0,-0.0037
3836.0,-0.0037
3835.0,-0.0037
3834.0,-0.0038
3833.0,-0.0039
3832.0,-0.004
3831.0,-0.0041
3830.0,-0.0041
3829.0,-0.0042
3828.0,-0.0042
3827.0,-0.0042
3826.0,-0.0041
3825.0,-0.0038
3824.0,-0.0037
3823.0,-0.0038
3822.0,-0.0039
3821.0,-0.0039
3820.0,-0.0037
3819.0,-0.0035
3818.0,-0.0036
3817.0,-0.0037
3816.0,-0.0038
3815.0,-0.0038
3814.0,-0.0039
3813.0,-0.0039
3812.0,-0.0039
3811.0,-0.0039
3810.0,-0.0038
3809.0,-0.0039
3808.0,-0.004
3807.0,-0.0041
3806.0,-0.0039
3805.0,-0.0037
3804.0,-0.0037
3803.0,-0.0038
3802.0,-0.0038
3801.0,-0.0038
3800.0,-0.0038
3799.0,-0.0039
3798.0,-0.004
3797.0,-0.004
3796.0,-0.004
3795.0,-0.004
3794.0,-0.004
3793.0,-0.004
3792.0,-0.004
3791.0,-0.004
3790.0,-0.0039
3789.0,-0.0039
3788.0,-0.0039
3787.0,-0.0039
3786.0,-0.0039
3785.0,-0.0038
3784.0,-0.0038
3783.0,-0.0038
3782.0,-0.0038
3781.0,-0.0038
3780.0,-0.0039
3779.0,-0.0039
3778.0,-0.0039
3777.0,-0.0039
3776.0,-0.004
3775.0,-0.0041
3774.0,-0.0041
3773.0,-0.004
3772.0,-0.004
3771.0,-0.004
3770.0,-0.0039
3769.0,-0.0038
3768.0,-0.0039
3767.0,-0.004
3766.0,-0.0041
3765.0,-0.0041
3764.0,-0.0041
3763.0,-0.0041
3762.0,-0.0041
3761.0,-0.0041
3760.0,-0.0041
3759.0,-0.004
3758.0,-0.004
3757.0,-0.0039
3756.0,-0.0038
3755.0,-0.0036
3754.0,-0.0035
3753.0,-0.0035
3752.0,-0.0033
3751.0,-0.0032
3750.0,-0.0032
3749.0,-0.0031
3748.0,-0.0029
3747.0,-0.0029
3746.0,-0.0031
3745.0,-0.0033
3744.0,-0.0035
3743.0,-0.0036
3742.0,-0.0036
3741.0,-0.0037
3740.0,-0.0036
3739.0,-0.0036
3738.0,-0.0037
3737.0,-0.0038
3736.0,-0.0039
3735.0,-0.0038
3734.0,-0.0039
3733.0,-0.004
3732.0,-0.0041
3731.0,-0.0041
3730.0,-0.004
3729.0,-0.004
3728.0,-0.004
3727.0,-0.004
3726.0,-0.0039
3725.0,-0.0038
3724.0,-0.0038
3723.0,-0.0038
3722.0,-0.0038
3721.0,-0.0038
3720.0,-0.0038
3719.0,-0.0038
3718.0,-0.0037
3717.0,-0.0037
3716.0,-0.0036
3715.0,-0.0036
3714.0,-0.0036
3713.0,-0.0036
3712.0,-0.0034
3711.0,-0.0034
3710.0,-0.0034
3709.0,-0.0036
3708.0,-0.0037
3707.0,-0.0038
3706.0,-0.0038
3705.0,-0.0038
3704.0,-0.0039
3703.0,-0.0041
3702.0,-0.0042
3701.0,-0.0043
3700.0,-0.0042
3699.0,-0.004
3698.0,-0.0039
3697.0,-0.0038
3696.0,-0.0037
3695.0,-0.0036
3694.0,-0.0036
3693.0,-0.0036
3692.0,-0.0035
3691.0,-0.0035
3690.0,-0.0034
3689.0,-0.0034
3688.0,-0.0033
3687.0,-0.0033
3686.0,-0.0033
3685.0,-0.0032
3684.0,-0.0032
3683.0,-0.0031
3682.0,-0.003
3681.0,-0.0029
3680.0,-0.0029
3679.0,-0.0028
3678.0,-0.0029
3677.0,-0.0029
3676.0,-0.0027
3675.0,-0.0024
3674.0,-0.0021
3673.0,-0.002
3672.0,-0.002
3671.0,-0.002
3670.0,-0.0019
3669.0,-0.0019
3668.0,-0.002
3667.0,-0.0021
3666.0,-0.0022
3665.0,-0.0022
3664.0,-0.0022
3663.0,-0.0022
3662.0,-0.0022
3661.0,-0.0021
3660.0,-0.002
3659.0,-0.002
3658.0,-0.0019
3657.0,-0.0018
3656.0,-0.0018
3655.0,-0.0017
3654.0,-0.0017
3653.0,-0.0018
3652.0,-0.0018
3651.0,-0.0017
3650.0,-0.0014
3649.0,-0.0013
3648.0,-0.0014
3647.0,-0.0016
3646.0,-0.0018
3645.0,-0.0019
3644.0,-0.0019
3643.0,-0.002
3642.0,-0.0021
3641.0,-0.0022
3640.0,-0.0023
3639.0,-0.0024
3638.0,-0.0025
3637.0,-0.0025
3636.0,-0.0026
3635.0,-0.0026
3634.0,-0.0026
3633.0,-0.0025
3632.0,-0.0024
3631.0,-0.0026
3630.0,-0.0028
3629.0,-0.0028
3628.0,-0.0028
3627.0,-0.0029
3626.0,-0.0029
3625.0,-0.003
3624.0,-0.0031
3623.0,-0.0031
3622.0,-0.0031
3621.0,-0.003
3620.0,-0.003
3619.0,-0.0028
3618.0,-0.0027
3617.0,-0.0027
3616.0,-0.0027
3615.0,-0.0028
3614.0,-0.0029
3613.0,-0.003
3612.0,-0.0029
3611.0,-0.0029
3610.0,-0.0029
3609.0,-0.0029
3608.0,-0.0028
3607.0,-0.0027
3606.0,-0.0028
3605.0,-0.0029
3604.0,-0.003
3603.0,-0.0031
3602.0,-0.0031
3601.0,-0.003
3600.0,-0.0029
3599.0,-0.0028
3598.0,-0.0028
3597.0,-0.0028
3596.0,-0.0027
3595.0,-0.0026
3594.0,-0.0026
3593.0,-0.0026
3592.0,-0.0026
3591.0,-0.0026
3590.0,-0.0026
3589.0,-0.0025
3588.0,-0.0023
3587.0,-0.0023
3586.0,-0.0023
3585.0,-0.0023
3584.0,-0.0024
3583.0,-0.0024
3582.0,-0.0024
3581.0,-0.0023
3580.0,-0.0023
3579.0,-0.0022
3578.0,-0.0022
3577.0,-0.0021
3576.0,-0.0022
3575.0,-0.0022
3574.0,-0.0023
3573.0,-0.0023
3572.0,-0.0022
3571.0,-0.0021
3570.0,-0.0021
3569.0,-0.002
3568.0,-0.0019
3567.0,-0.0019
3566.0,-0.0019
3565.0,-0.0021
3564.0,-0.0023
3563.0,-0.0023
3562.0,-0.0023
3561.0,-0.0023
3560.0,-0.0023
3559.0,-0.0024
3558.0,-0.0024
3557.0,-0.0023
3556.0,-0.0022
3555.0,-0.002
3554.0,-0.0018
3553.0,-0.0018
3552.0,-0.0018
3551.0,-0.0019
3550.0,-0.0019
3549.0,-0.0019
3548.0,-0.0018
3547.0,-0.0017
3546.0,-0.0017
3545.0,-0.0018
3544.0,-0.0018
3543.0,-0.0019
3542.0,-0.002
3541.0,-0.0021
3540.0,-0.0022
3539.0,-0.0022
3538.0,-0.0021
3537.0,-0.002
3536.0,-0.0018
3535.0,-0.0016
3534.0,-0.0015
3533.0,-0.0015
3532.0,-0.0015
3531.0,-0.0015
3530.0,-0.0014
3529.0,-0.0014
3528.0,-0.0013
3527.0,-0.0012
3526.0,-0.0011
3525.0,-0.001
3524.0,-0.0008
3523.0,-0.0007
3522.0,-0.0007
3521.0,-0.0007
3520.0,-0.0006
3519.0,-0.0006
3518.0,-0.0004
3517.0,-0.0004
3516.0,-0.0003
3515.0,-0.0003
3514.0,-0.0002
3513.0,-0.0001
3512.0,-0.0
3511.0,0.0001
3510.0,0.0003
3509.0,0.0004
3508.0,0.0005
3507.0,0.0006
3506.0,0.0005
3505.0,0.0004
3504.0,0.0003
3503.0,0.0001
3502.0,0.0001
3501.0,0.0001
3500.0,0.0002
3499.0,0.0003
3498.0,0.0003
3497.0,0.0002
3496.0,0.0001
3495.0,-0.0
3494.0,-0.0002
3493.0,-0.0002
3492.0,-0.0003
3491.0,-0.0005
3490.0,-0.0006
3489.0,-0.0008
3488.0,-0.0009
3487.0,-0.0011
3486.0,-0.0012
3485.0,-0.0012
3484.0,-0.0013
3483.0,-0.0012
3482.0,-0.0012
3481.0,-0.0011
3480.0,-0.0011
3479.0,-0.0012
3478.0,-0.0013
3477.0,-0.0013
3476.0,-0.0014
3475.0,-0.0015
3474.0,-0.0016
3473.0,-0.0017
3472.0,-0.0018
3471.0,-0.0019
3470.0,-0.002
3469.0,-0.0021
3468.0,-0.0021
3467.0,-0.0022
3466.0,-0.0023
3465.0,-0.0023
3464.0,-0.0024
3463.0,-0.0024
3462.0,-0.0023
3461.0,-0.0023
3460.0,-0.0023
3459.0,-0.0022
3458.0,-0.0022
3457.0,-0.0022
3456.0,-0.0023
3455.0,-0.0023
3454.0,-0.0023
3453.0,-0.0023
3452.0,-0.0023
3451.0,-0.0024
3450.0,-0.0025
3449.0,-0.0026
3448.0,-0.0027
3447.0,-0.0027
3446.0,-0.0027
3445.0,-0.0026
3444.0,-0.0025
3443.0,-0.0025
3442.0,-0.0025
3441.0,-0.0025
3440.0,-0.0026
3439.0,-0.0026
3438.0,-0.0025
3437.0,-0.0025
3436.0,-0.0025
3435.0,-0.0025
3434.0,-0.0025
3433.0,-0.0025
3432.0,-0.0025
3431.0,-0.0025
3430.0,-0.0025
3429.0,-0.0025
3428.0,-0.0025
3427.0,-0.0025
3426.0,-0.0025
3425.0,-0.0026
3424.0,-0.0026
3423.0,-0.0026
3422.0,-0.0026
3421.0,-0.0026
3420.0,-0.0027
3419.0,-0.0028
3418.0,-0.0029
3417.0,-0.003
3416.0,-0.0029
3415.0,-0.0029
3414.0,-0.0029
3413.0,-0.0029
3412.0,-0.0029
3411.0,-0.0029
3410.0,-0.0028
3409.0,-0.0028
3408.0,-0.0028
3407.0,-0.0028
3406.0,-0.0028
3405.0,-0.0028
3404.0,-0.0028
3403.0,-0.0029
3402.0,-0.0029
3401.0,-0.0029
3400.0,-0.0029
3399.0,-0.0029
3398.0,-0.0028
3397.0,-0.0028
3396.0,-0.0028
3395.0,-0.0028
3394.0,-0.0028
3393.0,-0.0028
3392.0,-0.0028
3391.0,-0.0028
3390.0,-0.0028
3389.0,-0.0028
3388.0,-0.0028
3387.0,-0.0028
3386.0,-0.0028
3385.0,-0.0027
3384.0,-0.0027
3383.0,-0.0028
3382.0,-0.0029
3381.0,-0.0029
3380.0,-0.0029
3379.0,-0.0028
3378.0,-0.0028
3377.0,-0.0028
3376.0,-0.0029
3375.0,-0.0029
3374.0,-0.0029
3373.0,-0.0028
3372.0,-0.0028
3371.0,-0.0028
3370.0,-0.0028
3369.0,-0.0028
3368.0,-0.0028
3367.0,-0.0028
3366.0,-0.0027
3365.0,-0.0026
3364.0,-0.0026
3363.0,-0.0026
3362.0,-0.0026
3361.0,-0.0027
3360.0,-0.0027
3359.0,-0.0027
3358.0,-0.0027
3357.0,-0.0028
3356.0,-0.0028
3355.0,-0.0029
3354.0,-0.003
3353.0,-0.0031
3352.0,-0.0031
3351.0,-0.0031
3350.0,-0.0031
3349.0,-0.003
3348.0,-0.003
3347.0,-0.0029
3346.0,-0.0029
3345.0,-0.0028
3344.0,-0.0028
3343.0,-0.0028
3342.0,-0.0028
3341.0,-0.0028
3340.0,-0.0028
3339.0,-0.0028
3338.0,-0.0028
3337.0,-0.0029
3336.0,-0.0029
3335.0,-0.0029
3334.0,-0.003
3333.0,-0.0031
3332.0,-0.0032
3331.0,-0.0033
3330.0,-0.0033
3329.0,-0.0033
3328.0,-0.0033
3327.0,-0.0033
3326.0,-0.0032
3325.0,-0.0031
3324.0,-0.0031
3323.0,-0.003
3322.0,-0.0029
3321.0,-0.0029
3320.0,-0.0029
3319.0,-0.0028
3318.0,-0.0028
3317.0,-0.0028
3316.0,-0.0029
3315.0,-0.0029
3314.0,-0.003
3313.0,-0.003
3312.0,-0.003
3311.0,-0.0031
3310.0,-0.0033
3309.0,-0.0034
3308.0,-0.0033
3307.0,-0.0032
3306.0,-0.003
3305.0,-0.003
3304.0,-0.0029
3303.0,-0.003
3302.0,-0.0031
3301.0,-0.0031
3300.0,-0.0031
3299.0,-0.0031
3298.0,-0.003
3297.0,-0.0031
3296.0,-0.0031
3295.0,-0.0032
3294.0,-0.0032
3293.0,-0.0032
3292.0,-0.0031
3291.0,-0.0031
3290.0,-0.0031
3289.0,-0.0031
3288.0,-0.0032
3287.0,-0.0032
3286.0,-0.0032
3285.0,-0.0032
3284.0,-0.0033
3283.0,-0.0033
3282.0,-0.0033
3281.0,-0.0032
3280.0,-0.0031
3279.0,-0.003
3278.0,-0.003
3277.0,-0.0031
3276.0,-0.0031
3275.0,-0.0031
3274.0,-0.0031
3273.0,-0.0031
3272.0,-0.003
3271.0,-0.003
3270.0,-0.0031
3269.0,-0.0032
3268.0,-0.0033
3267.0,-0.0035
3266.0,-0.0036
3265.0,-0.0035
3264.0,-0.0035
3263.0,-0.0034
3262.0,-0.0033
3261.0,-0.0032
3260.0,-0.0031
3259.0,-0.003
3258.0,-0.003
3257.0,-0.0031
3256.0,-0.0031
3255.0,-0.0031
3254.0,-0.0032
3253.0,-0.0032
3252.0,-0.0033
3251.0,-0.0034
3250.0,-0.0034
3249.0,-0.0033
3248.0,-0.0033
3247.0,-0.0031
3246.0,-0.003
3245.0,-0.0029
3244.0,-0.0029
3243.0,-0.003
3242.0,-0.0032
3241.0,-0.0033
3240.0,-0.0032
3239.0,-0.0032
3238.0,-0.0032
3237.0,-0.0032
3236.0,-0.0033
3235.0,-0.0032
3234.0,-0.0031
3233.0,-0.003
3232.0,-0.0031
3231.0,-0.0032
3230.0,-0.0034
3229.0,-0.0035
3228.0,-0.0035
3227.0,-0.0034
3226.0,-0.0034
3225.0,-0.0034
3224.0,-0.0033
3223.0,-0.0032
3222.0,-0.003
3221.0,-0.0029
3220.0,-0.0029
3219.0,-0.003
3218.0,-0.0031
3217.0,-0.0031
3216.0,-0.0031
3215.0,-0.003
3214.0,-0.003
3213.0,-0.003
3212.0,-0.003
3211.0,-0.003
3210.0,-0.003
3209.0,-0.0031
3208.0,-0.0032
3207.0,-0.0033
3206.0,-0.0034
3205.0,-0.0034
3204.0,-0.0034
3203.0,-0.0033
3202.0,-0.0033
3201.0,-0.0032
3200.0,-0.0032
3199.0,-0.0032
3198.0,-0.0033
3197.0,-0.0033
3196.0,-0.0033
3195.0,-0.0032
3194.0,-0.0032
3193.0,-0.0032
3192.0,-0.0032
3191.0,-0.0033
3190.0,-0.0033
3189.0,-0.0032
3188.0,-0.0032
3187.0,-0.0032
3186.0,-0.0032
3185.0,-0.0033
3184.0,-0.0033
3183.0,-0.0034
3182.0,-0.0035
3181.0,-0.0036
3180.0,-0.0037
3179.0,-0.0037
3178.0,-0.0037
3177.0,-0.0036
3176.0,-0.0035
3175.0,-0.0035
3174.0,-0.0034
3173.0,-0.0034
3172.0,-0.0034
3171.0,-0.0034
3170.0,-0.0033
3169.0,-0.0032
3168.0,-0.0032
3167.0,-0.0032
3166.0,-0.0033
3165.0,-0.0034
3164.0,-0.0034
3163.0,-0.0034
3162.0,-0.0033
3161.0,-0.0033
3160.0,-0.0033
3159.0,-0.0033
3158.0,-0.0034
3157.0,-0.0033
3156.0,-0.0033
3155.0,-0.0032
3154.0,-0.0032
3153.0,-0.0033
3152.0,-0.0033
3151.0,-0.0034
3150.0,-0.0034
3149.0,-0.0034
3148.0,-0.0034
3147.0,-0.0034
3146.0,-0.0034
3145.0,-0.0035
3144.0,-0.0035
3143.0,-0.0034
3142.0,-0.0034
3141.0,-0.0033
3140.0,-0.0033
3139.0,-0.0033
3138.0,-0.0033
3137.0,-0.0034
3136.0,-0.0034
3135.0,-0.0034
3134.0,-0.0033
3133.0,-0.0032
3132.0,-0.0032
3131.0,-0.0033
3130.0,-0.0034
3129.0,-0.0035
3128.0,-0.0036
3127.0,-0.0036
3126.0,-0.0036
3125.0,-0.0036
3124.0,-0.0035
3123.0,-0.0035
3122.0,-0.0036
3121.0,-0.0036
3120.0,-0.0037
3119.0,-0.0037
3118.0,-0.0036
3117.0,-0.0036
3116.0,-0.0036
3115.0,-0.0036
3114.0,-0.0036
3113.0,-0.0036
3112.0,-0.0036
3111.0,-0.0036
3110.0,-0.0036
3109.0,-0.0036
3108.0,-0.0035
3107.0,-0.0035
3106.0,-0.0034
3105.0,-0.0033
3104.0,-0.0033
3103.0,-0.0033
3102.0,-0.0033
3101.0,-0.0033
3100.0,-0.0033
3099.0,-0.0033
3098.0,-0.0033
3097.0,-0.0033
3096.0,-0.0033
3095.0,-0.0033
3094.0,-0.0033
3093.0,-0.0033
3092.0,-0.0034
3091.0,-0.0034
3090.0,-0.0035
3089.0,-0.0035
3088.0,-0.0035
3087.0,-0.0035
3086.0,-0.0035
3085.0,-0.0035
3084.0,-0.0035
3083.0,-0.0035
3082.0,-0.0035
3081.0,-0.0035
3080.0,-0.0035
3079.0,-0.0034
3078.0,-0.0033
3077.0,-0.0032
3076.0,-0.0032
3075.0,-0.0033
3074.0,-0.0033
3073.0,-0.0033
3072.0,-0.0034
3071.0,-0.0034
3070.0,-0.0035
3069.0,-0.0034
3068.0,-0.0034
3067.0,-0.0033
3066.0,-0.0032
3065.0,-0.0032
3064.0,-0.0032
3063.0,-0.0032
3062.0,-0.0033
3061.0,-0.0033
3060.0,-0.0033
3059.0,-0.0033
3058.0,-0.0033
3057.0,-0.0033
3056.0,-0.0033
3055.0,-0.0033
3054.0,-0.0033
3053.0,-0.0033
3052.0,-0.0033
3051.0,-0.0032
3050.0,-0.0033
3049.0,-0.0033
3048.0,-0.0033
3047.0,-0.0033
3046.0,-0.0032
3045.0,-0.0031
3044.0,-0.0031
3043.0,-0.0031
3042.0,-0.0032
3041.0,-0.0032
3040.0,-0.0032
3039.0,-0.0032
3038.0,-0.0032
3037.0,-0.0031
3036.0,-0.003
3035.0,-0.0029
3034.0,-0.0028
3033.0,-0.0027
3032.0,-0.0026
3031.0,-0.0025
3030.0,-0.0024
3029.0,-0.0023
3028.0,-0.0021
3027.0,-0.002
3026.0,-0.0017
3025.0,-0.0015
3024.0,-0.0012
3023.0,-0.0008
3022.0,-0.0004
3021.0,-0.0
3020.0,0.0005
3019.0,0.0009
3018.0,0.0014
3017.0,0.002
3016.0,0.0026
3015.0,0.0034
3014.0,0.0042
3013.0,0.005
3012.0,0.0059
3011.0,0.0068
3010.0,0.0078
3009.0,0.0088
3008.0,0.0099
3007.0,0.011
3006.0,0.0122
3005.0,0.0134
3004.0,0.0147
3003.0,0.0159
3002.0,0.0172
3001.0,0.0183
3000.0,0.0194
2999.0,0.0202
2998.0,0.0209
2997.0,0.0214
2996.0,0.0215
2995.0,0.0213
2994.0,0.0207
2993.0,0.02
2992.0,0.019
2991.0,0.0178
2990.0,0.0165
2989.0,0.0151
2988.0,0.0137
2987.0,0.0124
2986.0,0.0112
2985.0,0.0102
2984.0,0.0094
2983.0,0.0086
2982.0,0.008
2981.0,0.0075
2980.0,0.007
2979.0,0.0067
2978.0,0.0064
2977.0,0.0061
2976.0,0.006
2975.0,0.0058
2974.0,0.0058
2973.0,0.0057
2972.0,0.0057
2971.0,0.0057
2970.0,0.0057
2969.0,0.0057
2968.0,0.0058
2967.0,0.006
2966.0,0.0061
2965.0,0.0063
2964.0,0.0065
2963.0,0.0067
2962.0,0.007
2961.0,0.0072
2960.0,0.0076
2959.0,0.008
2958.0,0.0084
2957.0,0.009
2956.0,0.0096
2955.0,0.0103
2954.0,0.011
2953.0,0.0118
2952.0,0.0126
2951.0,0.0135
2950.0,0.0144
2949.0,0.0152
2948.0,0.0159
2947.0,0.0164
2946.0,0.0166
2945.0,0.0166
2944.0,0.0162
2943.0,0.0155
2942.0,0.0147
2941.0,0.0136
2940.0,0.0124
2939.0,0.0112
2938.0,0.0101
2937.0,0.0091
2936.0,0.0082
2935.0,0.0074
2934.0,0.0068
2933.0,0.0062
2932.0,0.0058
2931.0,0.0053
2930.0,0.0049
2929.0,0.0045
2928.0,0.0041
2927.0,0.0037
2926.0,0.0034
2925.0,0.0032
2924.0,0.003
2923.0,0.0028
2922.0,0.0026
2921.0,0.0025
2920.0,0.0023
2919.0,0.0022
2918.0,0.002
2917.0,0.0019
2916.0,0.0018
2915.0,0.0018
2914.0,0.0017
2913.0,0.0016
2912.0,0.0016
2911.0,0.0015
2910.0,0.0015
2909.0,0.0015
2908.0,0.0015
2907.0,0.0015
2906.0,0.0014
2905.0,0.0014
2904.0,0.0013
2903.0,0.0013
2902.0,0.0013
2901.0,0.0013
2900.0,0.0013
2899.0,0.0013
2898.0,0.0013
2897.0,0.0012
2896.0,0.0011
2895.0,0.0011
2894.0,0.0011
2893.0,0.0011
2892.0,0.0012
2891.0,0.0012
2890.0,0.0013
2889.0,0.0014
2888.0,0.0016
2887.0,0.0018
2886.0,0.002
2885.0,0.0022
2884.0,0.0024
2883.0,0.0025
2882.0,0.0027
2881.0,0.0028
2880.0,0.0028
2879.0,0.0027
2878.0,0.0026
2877.0,0.0023
2876.0,0.0021
2875.0,0.0018
2874.0,0.0015
2873.0,0.0011
2872.0,0.0008
2871.0,0.0005
2870.0,0.0001
2869.0,-0.0002
2868.0,-0.0004
2867.0,-0.0006
2866.0,-0.0007
2865.0,-0.0007
2864.0,-0.0008
2863.0,-0.0008
2862.0,-0.0008
2861.0,-0.0009
2860.0,-0.001
2859.0,-0.0011
2858.0,-0.0012
2857.0,-0.0012
2856.0,-0.0012
2855.0,-0.0012
2854.0,-0.0012
2853.0,-0.0013
2852.0,-0.0013
2851.0,-0.0014
2850.0,-0.0014
2849.0,-0.0014
2848.0,-0.0014
2847.0,-0.0014
2846.0,-0.0014
2845.0,-0.0014
2844.0,-0.0014
2843.0,-0.0014
2842.0,-0.0015
2841.0,-0.0016
2840.0,-0.0016
2839.0,-0.0017
2838.0,-0.0017
2837.0,-0.0017
2836.0,-0.0016
2835.0,-0.0016
2834.0,-0.0015
2833.0,-0.0015
2832.0,-0.0015
2831.0,-0.0015
2830.0,-0.0015
2829.0,-0.0015
2828.0,-0.0015
2827.0,-0.0015
2826.0,-0.0016
2825.0,-0.0016
2824.0,-0.0017
2823.0,-0.0017
2822.0,-0.0017
2821.0,-0.0018
2820.0,-0.0018
2819.0,-0.0018
2818.0,-0.0018
2817.0,-0.0018
2816.0,-0.0019
2815.0,-0.0019
2814.0,-0.0019
2813.0,-0.0019
2812.0,-0.0019
2811.0,-0.002
2810.0,-0.002
2809.0,-0.002
2808.0,-0.002
2807.0,-0.0021
2806.0,-0.0021
2805.0,-0.0021
2804.0,-0.0022
2803.0,-0.0022
2802.0,-0.0022
2801.0,-0.0022
2800.0,-0.0022
2799.0,-0.0022
2798.0,-0.0022
2797.0,-0.0023
2796.0,-0.0023
2795.0,-0.0024
2794.0,-0.0025
2793.0,-0.0025
2792.0,-0.0025
2791.0,-0.0025
2790.0,-0.0026
2789.0,-0.0026
2788.0,-0.0026
2787.0,-0.0026
2786.0,-0.0026
2785.0,-0.0027
2784.0,-0.0026
2783.0,-0.0026
2782.0,-0.0026
2781.0,-0.0026
2780.0,-0.0026
2779.0,-0.0026
2778.0,-0.0026
2777.0,-0.0027
2776.0,-0.0027
2775.0,-0.0027
2774.0,-0.0028
2773.0,-0.0028
2772.0,-0.0028
2771.0,-0.0029
2770.0,-0.0028
2769.0,-0.0028
2768.0,-0.0028
2767.0,-0.0027
2766.0,-0.0027
2765.0,-0.0027
2764.0,-0.0027
2763.0,-0.0027
2762.0,-0.0027
2761.0,-0.0027
2760.0,-0.0027
2759.0,-0.0027
2758.0,-0.0028
2757.0,-0.0028
2756.0,-0.0028
2755.0,-0.0028
2754.0,-0.0028
2753.0,-0.0028
2752.0,-0.0027
2751.0,-0.0028
2750.0,-0.0028
2749.0,-0.0028
2748.0,-0.0027
2747.0,-0.0027
2746.0,-0.0026
2745.0,-0.0026
2744.0,-0.0026
2743.0,-0.0026
2742.0,-0.0026
2741.0,-0.0026
2740.0,-0.0026
2739.0,-0.0026
2738.0,-0.0026
2737.0,-0.0027
2736.0,-0.0027
2735.0,-0.0028
2734.0,-0.0028
2733.0,-0.0028
2732.0,-0.0028
2731.0,-0.0028
2730.0,-0.0028
2729.0,-0.0028
2728.0,-0.0028
2727.0,-0.0028
2726.0,-0.0029
2725.0,-0.0029
2724.0,-0.0029
2723.0,-0.0029
2722.0,-0.0029
2721.0,-0.0029
2720.0,-0.0029
2719.0,-0.0029
2718.0,-0.0029
2717.0,-0.0029
2716.0,-0.0029
2715.0,-0.0029
2714.0,-0.0028
2713.0,-0.0028
2712.0,-0.0028
2711.0,-0.0028
2710.0,-0.0028
2709.0,-0.0028
2708.0,-0.0028
2707.0,-0.0028
2706.0,-0.0028
2705.0,-0.0028
2704.0,-0.0028
2703.0,-0.0028
2702.0,-0.0028
2701.0,-0.0028
2700.0,-0.0028
2699.0,-0.0028
2698.0,-0.0028
2697.0,-0.0028
2696.0,-0.0028
2695.0,-0.0029
2694.0,-0.0029
2693.0,-0.0028
2692.0,-0.0028
2691.0,-0.0028
2690.0,-0.0028
2689.0,-0.0028
2688.0,-0.0028
2687.0,-0.0028
2686.0,-0.0027
2685.0,-0.0027
2684.0,-0.0026
2683.0,-0.0026
2682.0,-0.0026
2681.0,-0.0026
2680.0,-0.0025
2679.0,-0.0025
2678.0,-0.0025
2677.0,-0.0025
2676.0,-0.0026
2675.0,-0.0026
2674.0,-0.0027
2673.0,-0.0026
2672.0,-0.0026
2671.0,-0.0025
2670.0,-0.0025
2669.0,-0.0025
2668.0,-0.0025
2667.0,-0.0026
2666.0,-0.0026
2665.0,-0.0026
2664.0,-0.0026
2663.0,-0.0025
2662.0,-0.0025
2661.0,-0.0025
2660.0,-0.0025
2659.0,-0.0025
2658.0,-0.0025
2657.0,-0.0025
2656.0,-0.0025
2655.0,-0.0025
2654.0,-0.0025
2653.0,-0.0026
2652.0,-0.0026
2651.0,-0.0026
2650.0,-0.0026
2649.0,-0.0026
2648.0,-0.0026
2647.0,-0.0026
2646.0,-0.0026
2645.0,-0.0026
2644.0,-0.0026
2643.0,-0.0026
2642.0,-0.0026
2641.0,-0.0026
2640.0,-0.0026
2639.0,-0.0027
2638.0,-0.0027
2637.0,-0.0027
2636.0,-0.0026
2635.0,-0.0026
2634.0,-0.0026
2633.0,-0.0026
2632.0,-0.0026
2631.0,-0.0026
2630.0,-0.0025
2629.0,-0.0025
2628.0,-0.0024
2627.0,-0.0024
2626.0,-0.0025
2625.0,-0.0025
2624.0,-0.0026
2623.0,-0.0026
2622.0,-0.0026
2621.0,-0.0026
2620.0,-0.0026
2619.0,-0.0027
2618.0,-0.0028
2617.0,-0.0028
2616.0,-0.0029
2615.0,-0.0029
2614.0,-0.0029
2613.0,-0.003
2612.0,-0.003
2611.0,-0.003
2610.0,-0.0029
2609.0,-0.0029
2608.0,-0.0028
2607.0,-0.0028
2606.0,-0.0028
2605.0,-0.0029
2604.0,-0.0029
2603.0,-0.0029
2602.0,-0.0029
2601.0,-0.0029
2600.0,-0.0029
2599.0,-0.003
2598.0,-0.003
2597.0,-0.003
2596.0,-0.0029
2595.0,-0.0029
2594.0,-0.0029
2593.0,-0.0029
2592.0,-0.0029
2591.0,-0.0028
2590.0,-0.0028
2589.0,-0.0028
2588.0,-0.0029
2587.0,-0.0029
2586.0,-0.0029
2585.0,-0.0029
2584.0,-0.0028
2583.0,-0.0028
2582.0,-0.0028
2581.0,-0.0028
2580.0,-0.0028
2579.0,-0.0028
2578.0,-0.0028
2577.0,-0.0029
2576.0,-0.0029
2575.0,-0.003
2574.0,-0.003
2573.0,-0.003
2572.0,-0.003
2571.0,-0.003
2570.0,-0.003
2569.0,-0.003
2568.0,-0.0031
2567.0,-0.0031
2566.0,-0.0031
2565.0,-0.0031
2564.0,-0.0031
2563.0,-0.0031
2562.0,-0.0031
2561.0,-0.0031
2560.0,-0.0031
2559.0,-0.0031
2558.0,-0.0031
2557.0,-0.0031
2556.0,-0.0031
2555.0,-0.0031
2554.0,-0.0031
2553.0,-0.0031
2552.0,-0.0031
2551.0,-0.0031
2550.0,-0.0031
2549.0,-0.0031
2548.0,-0.0031
2547.0,-0.0031
2546.0,-0.0032
2545.0,-0.0031
2544.0,-0.0031
2543.0,-0.0031
2542.0,-0.0031
2541.0,-0.0031
2540.0,-0.0031
2539.0,-0.0031
2538.0,-0.0031
2537.0,-0.0032
2536.0,-0.0032
2535.0,-0.0032
2534.0,-0.0033
2533.0,-0.0033
2532.0,-0.0033
2531.0,-0.0033
2530.0,-0.0033
2529.0,-0.0033
2528.0,-0.0033
2527.0,-0.0033
2526.0,-0.0033
2525.0,-0.0034
2524.0,-0.0034
2523.0,-0.0034
2522.0,-0.0034
2521.0,-0.0034
2520.0,-0.0033
2519.0,-0.0033
2518.0,-0.0033
2517.0,-0.0033
2516.0,-0.0032
2515.0,-0.0032
2514.0,-0.0031
2513.0,-0.0031
2512.0,-0.0031
2511.0,-0.0031
2510.0,-0.0032
2509.0,-0.0032
2508.0,-0.0032
2507.0,-0.0031
2506.0,-0.0031
2505.0,-0.0031
2504.0,-0.0031
2503.0,-0.0031
2502.0,-0.0032
2501.0,-0.0032
2500.0,-0.0033
2499.0,-0.0033
2498.0,-0.0033
2497.0,-0.0033
2496.0,-0.0033
2495.0,-0.0033
2494.0,-0.0033
2493.0,-0.0033
2492.0,-0.0033
2491.0,-0.0034
2490.0,-0.0034
2489.0,-0.0034
2488.0,-0.0034
2487.0,-0.0034
2486.0,-0.0034
2485.0,-0.0034
2484.0,-0.0034
2483.0,-0.0035
2482.0,-0.0035
2481.0,-0.0035
2480.0,-0.0035
2479.0,-0.0035
2478.0,-0.0035
2477.0,-0.0036
2476.0,-0.0036
2475.0,-0.0036
2474.0,-0.0036
2473.0,-0.0036
2472.0,-0.0036
2471.0,-0.0037
2470.0,-0.0037
2469.0,-0.0037
2468.0,-0.0037
2467.0,-0.0037
2466.0,-0.0036
2465.0,-0.0036
2464.0,-0.0037
2463.0,-0.0037
2462.0,-0.0037
2461.0,-0.0037
2460.0,-0.0037
2459.0,-0.0037
2458.0,-0.0037
2457.0,-0.0038
2456.0,-0.0038
2455.0,-0.0037
2454.0,-0.0037
2453.0,-0.0037
2452.0,-0.0036
2451.0,-0.0037
2450.0,-0.0037
2449.0,-0.0036
2448.0,-0.0036
2447.0,-0.0036
2446.0,-0.0036
2445.0,-0.0036
2444.0,-0.0036
2443.0,-0.0036
2442.0,-0.0036
2441.0,-0.0035
2440.0,-0.0034
2439.0,-0.0033
2438.0,-0.0034
2437.0,-0.0034
2436.0,-0.0034
2435.0,-0.0034
2434.0,-0.0034
2433.0,-0.0033
2432.0,-0.0032
2431.0,-0.0032
2430.0,-0.0032
2429.0,-0.0032
2428.0,-0.0032
2427.0,-0.0031
2426.0,-0.0031
2425.0,-0.0031
2424.0,-0.0031
2423.0,-0.0031
2422.0,-0.0031
2421.0,-0.0031
2420.0,-0.003
2419.0,-0.003
2418.0,-0.003
2417.0,-0.003
2416.0,-0.003
2415.0,-0.003
2414.0,-0.003
2413.0,-0.0029
2412.0,-0.0029
2411.0,-0.0029
2410.0,-0.0028
2409.0,-0.0028
2408.0,-0.0028
2407.0,-0.0028
2406.0,-0.0028
2405.0,-0.0028
2404.0,-0.0027
2403.0,-0.0027
2402.0,-0.0028
2401.0,-0.0028
2400.0,-0.0028
2399.0,-0.0029
2398.0,-0.0028
2397.0,-0.0028
2396.0,-0.0028
2395.0,-0.0028
2394.0,-0.0028
2393.0,-0.0028
2392.0,-0.0028
2391.0,-0.0028
2390.0,-0.0028
2389.0,-0.0028
2388.0,-0.0029
2387.0,-0.003
2386.0,-0.0032
2385.0,-0.0034
2384.0,-0.0035
2383.0,-0.0036
2382.0,-0.0038
2381.0,-0.004
2380.0,-0.004
2379.0,-0.004
2378.0,-0.0039
2377.0,-0.0037
2376.0,-0.0034
2375.0,-0.0033
2374.0,-0.0035
2373.0,-0.0038
2372.0,-0.0041
2371.0,-0.0043
2370.0,-0.0045
2369.0,-0.004
2368.0,-0.0026
2367.0,-0.0014
2366.0,-0.0014
2365.0,-0.0021
2364.0,-0.0026
2363.0,-0.0034
2362.0,-0.005
2361.0,-0.0065
2360.0,-0.0069
2359.0,-0.0065
2358.0,-0.0062
2357.0,-0.0057
2356.0,-0.0049
2355.0,-0.0043
2354.0,-0.0041
2353.0,-0.0041
2352.0,-0.0043
2351.0,-0.0047
2350.0,-0.0052
2349.0,-0.0057
2348.0,-0.0062
2347.0,-0.0065
2346.0,-0.0063
2345.0,-0.0054
2344.0,-0.0042
2343.0,-0.0037
2342.0,-0.0042
2341.0,-0.005
2340.0,-0.0056
2339.0,-0.0062
2338.0,-0.007
2337.0,-0.0074
2336.0,-0.0074
2335.0,-0.0071
2334.0,-0.0068
2333.0,-0.0061
2332.0,-0.0052
2331.0,-0.0047
2330.0,-0.0047
2329.0,-0.0047
2328.0,-0.0046
2327.0,-0.0046
2326.0,-0.0048
2325.0,-0.0049
2324.0,-0.0047
2323.0,-0.0043
2322.0,-0.0039
2321.0,-0.0034
2320.0,-0.003
2319.0,-0.0028
2318.0,-0.0029
2317.0,-0.0031
2316.0,-0.0032
2315.0,-0.0034
2314.0,-0.0036
2313.0,-0.0037
2312.0,-0.0038
2311.0,-0.0038
2310.0,-0.004
2309.0,-0.0041
2308.0,-0.0041
2307.0,-0.0041
2306.0,-0.0041
2305.0,-0.0041
2304.0,-0.0042
2303.0,-0.0043
2302.0,-0.0044
2301.0,-0.0044
2300.0,-0.0044
2299.0,-0.0044
2298.0,-0.0045
2297.0,-0.0044
2296.0,-0.0044
2295.0,-0.0044
2294.0,-0.0043
2293.0,-0.0043
2292.0,-0.0043
2291.0,-0.0043
2290.0,-0.0044
2289.0,-0.0045
2288.0,-0.0046
2287.0,-0.0046
2286.0,-0.0045
2285.0,-0.0045
2284.0,-0.0045
2283.0,-0.0046
2282.0,-0.0047
2281.0,-0.0047
2280.0,-0.0047
2279.0,-0.0048
2278.0,-0.0048
2277.0,-0.0049
2276.0,-0.0049
2275.0,-0.0049
2274.0,-0.0049
2273.0,-0.0049
2272.0,-0.0049
2271.0,-0.0049
2270.0,-0.0049
2269.0,-0.0049
2268.0,-0.0048
2267.0,-0.0049
2266.0,-0.0049
2265.0,-0.005
2264.0,-0.005
2263.0,-0.0051
2262.0,-0.0051
2261.0,-0.005
2260.0,-0.005
2259.0,-0.0049
2258.0,-0.0049
2257.0,-0.0049
2256.0,-0.0049
2255.0,-0.0049
2254.0,-0.0049
2253.0,-0.005
2252.0,-0.005
2251.0,-0.0051
2250.0,-0.0051
2249.0,-0.0051
2248.0,-0.0051
2247.0,-0.0051
2246.0,-0.0051
2245.0,-0.0051
2244.0,-0.0051
2243.0,-0.0051
2242.0,-0.0052
2241.0,-0.0052
2240.0,-0.0052
2239.0,-0.0052
2238.0,-0.0053
2237.0,-0.0054
2236.0,-0.0054
2235.0,-0.0054
2234.0,-0.0055
2233.0,-0.0055
2232.0,-0.0055
2231.0,-0.0055
2230.0,-0.0055
2229.0,-0.0055
2228.0,-0.0055
2227.0,-0.0055
2226.0,-0.0056
2225.0,-0.0057
2224.0,-0.0057
2223.0,-0.0057
2222.0,-0.0058
2221.0,-0.0057
2220.0,-0.0057
2219.0,-0.0057
2218.0,-0.0058
2217.0,-0.0058
2216.0,-0.0059
2215.0,-0.0059
2214.0,-0.0059
2213.0,-0.0059
2212.0,-0.0059
2211.0,-0.0059
2210.0,-0.006
2209.0,-0.006
2208.0,-0.006
2207.0,-0.006
2206.0,-0.0061
2205.0,-0.0061
2204.0,-0.0061
2203.0,-0.0061
2202.0,-0.0062
2201.0,-0.0062
2200.0,-0.0062
2199.0,-0.0062
2198.0,-0.0062
2197.0,-0.0061
2196.0,-0.0061
2195.0,-0.0061
2194.0,-0.0061
2193.0,-0.0062
2192.0,-0.0062
2191.0,-0.0062
2190.0,-0.0063
2189.0,-0.0063
2188.0,-0.0063
2187.0,-0.0062
2186.0,-0.0062
2185.0,-0.0062
2184.0,-0.0061
2183.0,-0.0061
2182.0,-0.0061
2181.0,-0.0061
2180.0,-0.0061
2179.0,-0.0062
2178.0,-0.0062
2177.0,-0.0062
2176.0,-0.0062
2175.0,-0.0062
2174.0,-0.0062
2173.0,-0.0062
2172.0,-0.0061
2171.0,-0.0061
2170.0,-0.0061
2169.0,-0.0062
2168.0,-0.0062
2167.0,-0.0062
2166.0,-0.0063
2165.0,-0.0063
2164.0,-0.0063
2163.0,-0.0063
2162.0,-0.0063
2161.0,-0.0063
2160.0,-0.0063
2159.0,-0.0063
2158.0,-0.0064
2157.0,-0.0064
2156.0,-0.0064
2155.0,-0.0064
2154.0,-0.0063
2153.0,-0.0063
2152.0,-0.0063
2151.0,-0.0063
2150.0,-0.0063
2149.0,-0.0063
2148.0,-0.0063
2147.0,-0.0063
2146.0,-0.0063
2145.0,-0.0063
2144.0,-0.0063
2143.0,-0.0062
2142.0,-0.0062
2141.0,-0.0062
2140.0,-0.0061
2139.0,-0.0061
2138.0,-0.0061
2137.0,-0.006
2136.0,-0.0059
2135.0,-0.0059
2134.0,-0.0059
2133.0,-0.0059
2132.0,-0.0059
2131.0,-0.006
2130.0,-0.006
2129.0,-0.006
2128.0,-0.006
2127.0,-0.0059
2126.0,-0.0059
2125.0,-0.0058
2124.0,-0.0057
2123.0,-0.0058
2122.0,-0.0058
2121.0,-0.0059
2120.0,-0.0059
2119.0,-0.0059
2118.0,-0.006
2117.0,-0.006
2116.0,-0.006
2115.0,-0.0059
2114.0,-0.006
2113.0,-0.0059
2112.0,-0.0059
2111.0,-0.0059
2110.0,-0.0059
2109.0,-0.0059
2108.0,-0.0059
2107.0,-0.006
2106.0,-0.006
2105.0,-0.006
2104.0,-0.006
2103.0,-0.0059
2102.0,-0.0059
2101.0,-0.0059
2100.0,-0.0059
2099.0,-0.0059
2098.0,-0.0059
2097.0,-0.0059
2096.0,-0.0058
2095.0,-0.0057
2094.0,-0.0057
2093.0,-0.0057
2092.0,-0.0057
2091.0,-0.0057
2090.0,-0.0057
2089.0,-0.0057
2088.0,-0.0056
2087.0,-0.0056
2086.0,-0.0056
2085.0,-0.0057
2084.0,-0.0057
2083.0,-0.0057
2082.0,-0.0057
2081.0,-0.0058
2080.0,-0.0058
2079.0,-0.0058
2078.0,-0.0059
2077.0,-0.006
2076.0,-0.006
2075.0,-0.0061
2074.0,-0.0061
2073.0,-0.0061
2072.0,-0.0061
2071.0,-0.0061
2070.0,-0.0062
2069.0,-0.0062
2068.0,-0.0062
2067.0,-0.0062
2066.0,-0.0063
2065.0,-0.0064
2064.0,-0.0064
2063.0,-0.0065
2062.0,-0.0066
2061.0,-0.0066
2060.0,-0.0066
2059.0,-0.0067
2058.0,-0.0067
2057.0,-0.0068
2056.0,-0.0068
2055.0,-0.0068
2054.0,-0.007
2053.0,-0.007
2052.0,-0.0071
2051.0,-0.0072
2050.0,-0.0073
2049.0,-0.0074
2048.0,-0.0074
2047.0,-0.0075
2046.0,-0.0075
2045.0,-0.0076
2044.0,-0.0076
2043.0,-0.0077
2042.0,-0.0078
2041.0,-0.0078
2040.0,-0.0079
2039.0,-0.0079
2038.0,-0.008
2037.0,-0.0081
2036.0,-0.0081
2035.0,-0.0081
2034.0,-0.0082
2033.0,-0.0082
2032.0,-0.0082
2031.0,-0.0082
2030.0,-0.0082
2029.0,-0.0083
2028.0,-0.0083
2027.0,-0.0083
2026.0,-0.0084
2025.0,-0.0083
2024.0,-0.0083
2023.0,-0.0082
2022.0,-0.0082
2021.0,-0.0083
2020.0,-0.0083
2019.0,-0.0082
2018.0,-0.0082
2017.0,-0.0082
2016.0,-0.0081
2015.0,-0.0081
2014.0,-0.0081
2013.0,-0.008
2012.0,-0.0079
2011.0,-0.0079
2010.0,-0.008
2009.0,-0.008
2008.0,-0.008
2007.0,-0.008
2006.0,-0.008
2005.0,-0.008
2004.0,-0.008
2003.0,-0.0079
2002.0,-0.0079
2001.0,-0.0079
2000.0,-0.0079
1999.0,-0.0079
1998.0,-0.008
1997.0,-0.008
1996.0,-0.008
1995.0,-0.008
1994.0,-0.0081
1993.0,-0.0081
1992.0,-0.0082
1991.0,-0.0082
1990.0,-0.0082
1989.0,-0.0082
1988.0,-0.0082
1987.0,-0.0082
1986.0,-0.0082
1985.0,-0.0082
1984.0,-0.0082
1983.0,-0.0082
1982.0,-0.0082
1981.0,-0.0081
1980.0,-0.0081
1979.0,-0.008
1978.0,-0.008
1977.0,-0.008
1976.0,-0.008
1975.0,-0.008
1974.0,-0.008
1973.0,-0.008
1972.0,-0.0079
1971.0,-0.0079
1970.0,-0.0079
1969.0,-0.0079
1968.0,-0.0079
1967.0,-0.0079
1966.0,-0.008
1965.0,-0.0081
1964.0,-0.0081
1963.0,-0.0081
1962.0,-0.0082
1961.0,-0.0082
1960.0,-0.0082
1959.0,-0.0083
1958.0,-0.0083
1957.0,-0.0084
1956.0,-0.0084
1955.0,-0.0085
1954.0,-0.0085
1953.0,-0.0086
1952.0,-0.0086
1951.0,-0.0087
1950.0,-0.0088
1949.0,-0.0089
1948.0,-0.0089
1947.0,-0.009
1946.0,-0.0092
1945.0,-0.0093
1944.0,-0.0093
1943.0,-0.0094
1942.0,-0.0094
1941.0,-0.0094
1940.0,-0.0094
1939.0,-0.0093
1938.0,-0.0094
1937.0,-0.0094
1936.0,-0.0095
1935.0,-0.0095
1934.0,-0.0096
1933.0,-0.0097
1932.0,-0.0097
1931.0,-0.0097
1930.0,-0.0097
1929.0,-0.0096
1928.0,-0.0096
1927.0,-0.0096
1926.0,-0.0097
1925.0,-0.0097
1924.0,-0.0096
1923.0,-0.0096
1922.0,-0.0096
1921.0,-0.0096
1920.0,-0.0096
1919.0,-0.0096
1918.0,-0.0097
1917.0,-0.0098
1916.0,-0.0097
1915.0,-0.0096
1914.0,-0.0096
1913.0,-0.0096
1912.0,-0.0096
1911.0,-0.0096
1910.0,-0.0097
1909.0,-0.0098
1908.0,-0.0098
1907.0,-0.0098
1906.0,-0.0098
1905.0,-0.0099
1904.0,-0.0098
1903.0,-0.0098
1902.0,-0.0098
1901.0,-0.0098
1900.0,-0.0098
1899.0,-0.0098
1898.0,-0.0099
1897.0,-0.0099
1896.0,-0.0098
1895.0,-0.0098
1894.0,-0.0098
1893.0,-0.0098
1892.0,-0.0098
1891.0,-0.0098
1890.0,-0.0099
1889.0,-0.01
1888.0,-0.0099
1887.0,-0.0099
1886.0,-0.0099
1885.0,-0.0099
1884.0,-0.0098
1883.0,-0.0098
1882.0,-0.0098
1881.0,-0.0099
1880.0,-0.0098
1879.0,-0.0099
1878.0,-0.0099
1877.0,-0.01
1876.0,-0.0099
1875.0,-0.0099
1874.0,-0.0099
1873.0,-0.0099
1872.0,-0.0098
1871.0,-0.0098
1870.0,-0.0099
1869.0,-0.01
1868.0,-0.0099
1867.0,-0.0098
1866.0,-0.0098
1865.0,-0.0098
1864.0,-0.0097
1863.0,-0.0096
1862.0,-0.0097
1861.0,-0.0097
1860.0,-0.0096
1859.0,-0.0095
1858.0,-0.0095
1857.0,-0.0094
1856.0,-0.0093
1855.0,-0.0092
1854.0,-0.0092
1853.0,-0.0092
1852.0,-0.009
1851.0,-0.0089
1850.0,-0.0088
1849.0,-0.0087
1848.0,-0.0085
1847.0,-0.0084
1846.0,-0.0084
1845.0,-0.0083
1844.0,-0.0081
1843.0,-0.0079
1842.0,-0.0077
1841.0,-0.0075
1840.0,-0.0073
1839.0,-0.0071
1838.0,-0.007
1837.0,-0.0068
1836.0,-0.0065
1835.0,-0.0062
1834.0,-0.006
1833.0,-0.0057
1832.0,-0.0053
1831.0,-0.005
1830.0,-0.0048
1829.0,-0.0046
1828.0,-0.0043
1827.0,-0.0041
1826.0,-0.004
1825.0,-0.0037
1824.0,-0.0033
1823.0,-0.0031
1822.0,-0.0029
1821.0,-0.0027
1820.0,-0.0024
1819.0,-0.0022
1818.0,-0.002
1817.0,-0.0018
1816.0,-0.0015
1815.0,-0.0012
1814.0,-0.001
1813.0,-0.0007
1812.0,-0.0003
1811.0,-0.0
1810.0,0.0002
1809.0,0.0005
1808.0,0.0009
1807.0,0.0012
1806.0,0.0014
1805.0,0.0018
1804.0,0.0024
1803.0,0.0029
1802.0,0.0033
1801.0,0.0039
1800.0,0.0047
1799.0,0.0054
1798.0,0.0061
1797.0,0.0069
1796.0,0.008
1795.0,0.009
1794.0,0.0101
1793.0,0.0118
1792.0,0.0143
1791.0,0.0167
1790.0,0.019
1789.0,0.0215
1788.0,0.0246
1787.0,0.0281
1786.0,0.0322
1785.0,0.0372
1784.0,0.0425
1783.0,0.0478
1782.0,0.0534
1781.0,0.06
1780.0,0.0672
1779.0,0.0736
1778.0,0.0794
1777.0,0.0852
1776.0,0.091
1775.0,0.0965
1774.0,0.1025
1773.0,0.1106
1772.0,0.1205
1771.0,0.1292
1770.0,0.1369
1769.0,0.1462
1768.0,0.1579
1767.0,0.1704
1766.0,0.1825
1765.0,0.195
1764.0,0.2099
1763.0,0.2299
1762.0,0.2553
1761.0,0.2815
1760.0,0.304
1759.0,0.3232
1758.0,0.3428
1757.0,0.3641
1756.0,0.382
1755.0,0.3923
1754.0,0.3974
1753.0,0.4012
1752.0,0.4047
1751.0,0.4063
1750.0,0.4055
1749.0,0.4025
1748.0,0.3955
1747.0,0.3843
1746.0,0.3701
1745.0,0.3533
1744.0,0.3338
1743.0,0.313
1742.0,0.2924
1741.0,0.2706
1740.0,0.2467
1739.0,0.2245
1738.0,0.208
1737.0,0.1953
1736.0,0.182
1735.0,0.1645
1734.0,0.1464
1733.0,0.1339
1732.0,0.1257
1731.0,0.1187
1730.0,0.1122
1729.0,0.1061
1728.0,0.1009
1727.0,0.0966
1726.0,0.093
1725.0,0.0897
1724.0,0.0863
1723.0,0.0832
1722.0,0.0807
1721.0,0.0785
1720.0,0.0758
1719.0,0.0728
1718.0,0.07
1717.0,0.0675
1716.0,0.0647
1715.0,0.062
1714.0,0.0595
1713.0,0.0571
1712.0,0.0545
1711.0,0.0519
1710.0,0.0496
1709.0,0.0475
1708.0,0.0454
1707.0,0.0432
1706.0,0.0413
1705.0,0.0397
1704.0,0.0383
1703.0,0.0371
1702.0,0.0358
1701.0,0.0342
1700.0,0.0326
1699.0,0.0314
1698.0,0.0308
1697.0,0.0301
1696.0,0.029
1695.0,0.028
1694.0,0.0273
1693.0,0.0267
1692.0,0.026
1691.0,0.0251
1690.0,0.0244
1689.0,0.0239
1688.0,0.0233
1687.0,0.0227
1686.0,0.0221
1685.0,0.0215
1684.0,0.0211
1683.0,0.0206
1682.0,0.0203
1681.0,0.0199
1680.0,0.0194
1679.0,0.019
1678.0,0.0186
1677.0,0.0183
1676.0,0.0178
1675.0,0.0174
1674.0,0.0171
1673.0,0.0169
1672.0,0.0166
1671.0,0.0162
1670.0,0.0159
1669.0,0.0157
1668.0,0.0154
1667.0,0.0151
1666.0,0.0148
1665.0,0.0146
1664.0,0.0142
1663.0,0.0139
1662.0,0.0137
1661.0,0.0135
1660.0,0.0131
1659.0,0.0128
1658.0,0.0125
1657.0,0.0123
1656.0,0.012
1655.0,0.0116
1654.0,0.0113
1653.0,0.0113
1652.0,0.0111
1651.0,0.0107
1650.0,0.0106
1649.0,0.0104
1648.0,0.01
1647.0,0.0099
1646.0,0.01
1645.0,0.01
1644.0,0.0098
1643.0,0.0096
1642.0,0.0094
1641.0,0.0092
1640.0,0.009
1639.0,0.0088
1638.0,0.0087
1637.0,0.0086
1636.0,0.0087
1635.0,0.0087
1634.0,0.0087
1633.0,0.0086
1632.0,0.0084
1631.0,0.0082
1630.0,0.008
1629.0,0.0078
1628.0,0.0077
1627.0,0.0077
1626.0,0.0076
1625.0,0.0075
1624.0,0.0074
1623.0,0.0073
1622.0,0.0072
1621.0,0.0071
1620.0,0.007
1619.0,0.0069
1618.0,0.0068
1617.0,0.0066
1616.0,0.0065
1615.0,0.0063
1614.0,0.0061
1613.0,0.006
1612.0,0.0057
1611.0,0.0055
1610.0,0.0054
1609.0,0.0052
1608.0,0.005
1607.0,0.0048
1606.0,0.0047
1605.0,0.0046
1604.0,0.0044
1603.0,0.0042
1602.0,0.0041
1601.0,0.004
1600.0,0.0038
1599.0,0.0036
1598.0,0.0035
1597.0,0.0033
1596.0,0.0032
1595.0,0.003
1594.0,0.0029
1593.0,0.0028
1592.0,0.0026
1591.0,0.0025
1590.0,0.0024
1589.0,0.0023
1588.0,0.0022
1587.0,0.002
1586.0,0.0018
1585.0,0.0017
1584.0,0.0016
1583.0,0.0015
1582.0,0.0014
1581.0,0.0013
1580.0,0.0012
1579.0,0.0011
1578.0,0.001
1577.0,0.0009
1576.0,0.0007
1575.0,0.0005
1574.0,0.0005
1573.0,0.0005
1572.0,0.0004
1571.0,0.0002
1570.0,0.0001
1569.0,0.0001
1568.0,0.0
1567.0,0.0
1566.0,-0.0
1565.0,-0.0001
1564.0,-0.0001
1563.0,-0.0002
1562.0,-0.0002
1561.0,-0.0002
1560.0,-0.0004
1559.0,-0.0004
1558.0,-0.0005
1557.0,-0.0006
1556.0,-0.0006
1555.0,-0.0006
1554.0,-0.0007
1553.0,-0.0008
1552.0,-0.0009
1551.0,-0.001
1550.0,-0.0011
1549.0,-0.0011
1548.0,-0.0011
1547.0,-0.0011
1546.0,-0.0011
1545.0,-0.0011
1544.0,-0.0011
1543.0,-0.0011
1542.0,-0.0011
1541.0,-0.001
1540.0,-0.001
1539.0,-0.0012
1538.0,-0.0013
1537.0,-0.0012
1536.0,-0.0011
1535.0,-0.0012
1534.0,-0.0012
1533.0,-0.0013
1532.0,-0.0013
1531.0,-0.0014
1530.0,-0.0014
1529.0,-0.0014
1528.0,-0.0015
1527.0,-0.0015
1526.0,-0.0015
1525.0,-0.0015
1524.0,-0.0015
1523.0,-0.0016
1522.0,-0.0018
1521.0,-0.0018
1520.0,-0.0017
1519.0,-0.0016
1518.0,-0.0016
1517.0,-0.0016
1516.0,-0.0017
1515.0,-0.0018
1514.0,-0.0019
1513.0,-0.0019
1512.0,-0.0019
1511.0,-0.002
1510.0,-0.0021
1509.0,-0.0021
1508.0,-0.0021
1507.0,-0.0022
1506.0,-0.0024
1505.0,-0.0024
1504.0,-0.0023
1503.0,-0.0023
1502.0,-0.0023
1501.0,-0.0023
1500.0,-0.0023
1499.0,-0.0024
1498.0,-0.0025
1497.0,-0.0025
1496.0,-0.0025
1495.0,-0.0025
1494.0,-0.0025
1493.0,-0.0024
1492.0,-0.0024
1491.0,-0.0024
1490.0,-0.0024
1489.0,-0.0022
1488.0,-0.0021
1487.0,-0.0021
1486.0,-0.0021
1485.0,-0.002
1484.0,-0.0018
1483.0,-0.0016
1482.0,-0.0014
1481.0,-0.0011
1480.0,-0.0007
1479.0,-0.0003
1478.0,0.0001
1477.0,0.0009
1476.0,0.0018
1475.0,0.0027
1474.0,0.0041
1473.0,0.0065
1472.0,0.0094
1471.0,0.0122
1470.0,0.0148
1469.0,0.0178
1468.0,0.0214
1467.0,0.0259
1466.0,0.0321
1465.0,0.0404
1464.0,0.0489
1463.0,0.056
1462.0,0.0621
1461.0,0.0678
1460.0,0.0736
1459.0,0.0799
1458.0,0.0883
1457.0,0.0973
1456.0,0.1025
1455.0,0.1042
1454.0,0.1047
1453.0,0.1048
1452.0,0.1043
1451.0,0.1032
1450.0,0.1016
1449.0,0.0993
1448.0,0.0958
1447.0,0.0914
1446.0,0.0866
1445.0,0.0811
1444.0,0.0747
1443.0,0.0676
1442.0,0.0603
1441.0,0.0534
1440.0,0.0472
1439.0,0.0416
1438.0,0.0359
1437.0,0.0298
1436.0,0.0245
1435.0,0.0212
1434.0,0.0191
1433.0,0.0171
1432.0,0.0152
1431.0,0.0134
1430.0,0.012
1429.0,0.0106
1428.0,0.0094
1427.0,0.0086
1426.0,0.0078
1425.0,0.007
1424.0,0.0062
1423.0,0.0056
1422.0,0.0053
1421.0,0.0049
1420.0,0.0043
1419.0,0.0039
1418.0,0.0036
1417.0,0.0034
1416.0,0.0031
1415.0,0.0031
1414.0,0.003
1413.0,0.0029
1412.0,0.0028
1411.0,0.0028
1410.0,0.0029
1409.0,0.003
1408.0,0.0031
1407.0,0.0034
1406.0,0.0038
1405.0,0.0043
1404.0,0.0049
1403.0,0.0057
1402.0,0.0065
1401.0,0.0075
1400.0,0.009
1399.0,0.0112
1398.0,0.0138
1397.0,0.0167
1396.0,0.0205
1395.0,0.0257
1394.0,0.0314
1393.0,0.0367
1392.0,0.042
1391.0,0.0475
1390.0,0.0535
1389.0,0.0602
1388.0,0.0679
1387.0,0.0755
1386.0,0.0812
1385.0,0.0848
1384.0,0.0868
1383.0,0.0875
1382.0,0.0866
1381.0,0.084
1380.0,0.0799
1379.0,0.0747
1378.0,0.0695
1377.0,0.0651
1376.0,0.0621
1375.0,0.0611
1374.0,0.0625
1373.0,0.0656
1372.0,0.0693
1371.0,0.0729
1370.0,0.0763
1369.0,0.0792
1368.0,0.0814
1367.0,0.0831
1366.0,0.0845
1365.0,0.0861
1364.0,0.0883
1363.0,0.0912
1362.0,0.0941
1361.0,0.0964
1360.0,0.0978
1359.0,0.0985
1358.0,0.0983
1357.0,0.0971
1356.0,0.0949
1355.0,0.0917
1354.0,0.0879
1353.0,0.0838
1352.0,0.0795
1351.0,0.0753
1350.0,0.071
1349.0,0.067
1348.0,0.0632
1347.0,0.0597
1346.0,0.0565
1345.0,0.0535
1344.0,0.0508
1343.0,0.0484
1342.0,0.0462
1341.0,0.0443
1340.0,0.0423
1339.0,0.0406
1338.0,0.039
1337.0,0.0376
1336.0,0.0363
1335.0,0.0351
1334.0,0.034
1333.0,0.0331
1332.0,0.0323
1331.0,0.0315
1330.0,0.0309
1329.0,0.0304
1328.0,0.03
1327.0,0.0297
1326.0,0.0294
1325.0,0.0293
1324.0,0.0292
1323.0,0.0292
1322.0,0.0292
1321.0,0.0292
1320.0,0.0291
1319.0,0.0291
1318.0,0.0291
1317.0,0.0292
1316.0,0.0293
1315.0,0.0294
1314.0,0.0297
1313.0,0.03
1312.0,0.0304
1311.0,0.0308
1310.0,0.0313
1309.0,0.0319
1308.0,0.0325
1307.0,0.033
1306.0,0.0333
1305.0,0.0334
1304.0,0.0333
1303.0,0.0331
1302.0,0.0329
1301.0,0.0326
1300.0,0.0323
1299.0,0.0319
1298.0,0.0315
1297.0,0.031
1296.0,0.0304
1295.0,0.0297
1294.0,0.0289
1293.0,0.0279
1292.0,0.0268
1291.0,0.0258
1290.0,0.025
1289.0,0.0247
1288.0,0.025
1287.0,0.0259
1286.0,0.0274
1285.0,0.0293
1284.0,0.0316
1283.0,0.0342
1282.0,0.037
1281.0,0.0399
1280.0,0.0429
1279.0,0.0459
1278.0,0.0487
1277.0,0.0515
1276.0,0.054
1275.0,0.0563
1274.0,0.0583
1273.0,0.0601
1272.0,0.0616
1271.0,0.0629
1270.0,0.0638
1269.0,0.0644
1268.0,0.0647
1267.0,0.0647
1266.0,0.0645
1265.0,0.064
1264.0,0.0633
1263.0,0.0625
1262.0,0.0615
1261.0,0.0604
1260.0,0.0592
1259.0,0.0579
1258.0,0.0567
1257.0,0.0556
1256.0,0.0545
1255.0,0.0535
1254.0,0.0526
1253.0,0.0519
1252.0,0.0512
1251.0,0.0507
1250.0,0.0503
1249.0,0.05
1248.0,0.0498
1247.0,0.0498
1246.0,0.0499
1245.0,0.0501
1244.0,0.0504
1243.0,0.0508
1242.0,0.0513
1241.0,0.0519
1240.0,0.0527
1239.0,0.0536
1238.0,0.0547
1237.0,0.0561
1236.0,0.0576
1235.0,0.0593
1234.0,0.0612
1233.0,0.0635
1232.0,0.0661
1231.0,0.0691
1230.0,0.0726
1229.0,0.0766
1228.0,0.081
1227.0,0.086
1226.0,0.0914
1225.0,0.0975
1224.0,0.104
1223.0,0.1109
1222.0,0.1182
1221.0,0.1258
1220.0,0.1338
1219.0,0.142
1218.0,0.1505
1217.0,0.1591
1216.0,0.1676
1215.0,0.1758
1214.0,0.1832
1213.0,0.1897
1212.0,0.1949
1211.0,0.1985
1210.0,0.2006
1209.0,0.2015
1208.0,0.2016
1207.0,0.2011
1206.0,0.2005
1205.0,0.2001
1204.0,0.2004
1203.0,0.2011
1202.0,0.2026
1201.0,0.2048
1200.0,0.208
1199.0,0.2119
1198.0,0.2166
1197.0,0.2223
1196.0,0.229
1195.0,0.2367
1194.0,0.2455
1193.0,0.2557
1192.0,0.2673
1191.0,0.2804
1190.0,0.295
1189.0,0.3116
1188.0,0.3302
1187.0,0.3503
1186.0,0.3717
1185.0,0.3936
1184.0,0.4149
1183.0,0.433
1182.0,0.4453
1181.0,0.4497
1180.0,0.4441
1179.0,0.4276
1178.0,0.4017
1177.0,0.3696
1176.0,0.3346
1175.0,0.2993
1174.0,0.2658
1173.0,0.2356
1172.0,0.209
1171.0,0.1857
1170.0,0.1658
1169.0,0.1488
1168.0,0.1344
1167.0,0.1222
1166.0,0.1118
1165.0,0.103
1164.0,0.0955
1163.0,0.0891
1162.0,0.0836
1161.0,0.0788
1160.0,0.0747
1159.0,0.0711
1158.0,0.068
1157.0,0.0655
1156.0,0.0636
1155.0,0.0622
1154.0,0.0614
1153.0,0.0613
1152.0,0.0619
1151.0,0.0633
1150.0,0.0657
1149.0,0.0693
1148.0,0.074
1147.0,0.0801
1146.0,0.0878
1145.0,0.097
1144.0,0.1078
1143.0,0.1199
1142.0,0.1331
1141.0,0.1475
1140.0,0.1627
1139.0,0.1786
1138.0,0.1949
1137.0,0.2113
1136.0,0.2273
1135.0,0.2423
1134.0,0.2557
1133.0,0.2676
1132.0,0.2777
1131.0,0.2854
1130.0,0.2904
1129.0,0.2926
1128.0,0.2918
1127.0,0.2876
1126.0,0.2805
1125.0,0.2711
1124.0,0.2603
1123.0,0.2491
1122.0,0.2381
1121.0,0.2281
1120.0,0.2196
1119.0,0.2123
1118.0,0.2065
1117.0,0.2024
1116.0,0.2001
1115.0,0.1995
1114.0,0.2006
1113.0,0.2038
1112.0,0.2088
1111.0,0.2155
1110.0,0.2236
1109.0,0.2331
1108.0,0.2438
1107.0,0.2553
1106.0,0.2673
1105.0,0.28
1104.0,0.2931
1103.0,0.3065
1102.0,0.3201
1101.0,0.3343
1100.0,0.349
1099.0,0.3639
1098.0,0.3789
1097.0,0.3943
1096.0,0.4102
1095.0,0.4262
1094.0,0.4423
1093.0,0.4591
1092.0,0.4764
1091.0,0.4937
1090.0,0.5105
1089.0,0.527
1088.0,0.5427
1087.0,0.5564
1086.0,0.5673
1085.0,0.5752
1084.0,0.5799
1083.0,0.5801
1082.0,0.5758
1081.0,0.568
1080.0,0.5569
1079.0,0.5423
1078.0,0.5247
1077.0,0.5053
1076.0,0.4846
1075.0,0.4625
1074.0,0.4395
1073.0,0.4164
1072.0,0.3937
1071.0,0.3712
1070.0,0.3494
1069.0,0.3289
1068.0,0.3098
1067.0,0.2922
1066.0,0.2764
1065.0,0.2628
1064.0,0.2514
1063.0,0.2423
1062.0,0.2354
1061.0,0.2309
1060.0,0.2286
1059.0,0.2279
1058.0,0.2286
1057.0,0.2306
1056.0,0.2337
1055.0,0.2374
1054.0,0.2415
1053.0,0.2462
1052.0,0.2515
1051.0,0.2571
1050.0,0.2631
1049.0,0.2695
1048.0,0.2762
1047.0,0.2823
1046.0,0.2875
1045.0,0.2912
1044.0,0.2932
1043.0,0.2929
1042.0,0.2902
1041.0,0.2856
1040.0,0.2793
1039.0,0.2711
1038.0,0.2615
1037.0,0.251
1036.0,0.2403
1035.0,0.2296
1034.0,0.2195
1033.0,0.2102
1032.0,0.202
1031.0,0.1947
1030.0,0.1883
1029.0,0.1826
1028.0,0.1776
1027.0,0.1728
1026.0,0.1683
1025.0,0.1638
1024.0,0.1592
1023.0,0.1545
1022.0,0.1494
1021.0,0.1443
1020.0,0.1391
1019.0,0.1339
1018.0,0.1288
1017.0,0.124
1016.0,0.1194
1015.0,0.115
1014.0,0.1108
1013.0,0.1071
1012.0,0.1036
1011.0,0.1005
1010.0,0.0976
1009.0,0.0949
1008.0,0.0924
1007.0,0.0901
1006.0,0.088
1005.0,0.086
1004.0,0.0842
1003.0,0.0824
1002.0,0.0808
1001.0,0.0794
1000.0,0.0781
999.0,0.0768
998.0,0.0756
997.0,0.0745
996.0,0.0734
995.0,0.0724
994.0,0.0713
993.0,0.0703
992.0,0.0694
991.0,0.0685
990.0,0.0677
989.0,0.0669
988.0,0.0662
987.0,0.0654
986.0,0.0645
985.0,0.0637
984.0,0.063
983.0,0.0622
982.0,0.0615
981.0,0.0609
980.0,0.0602
979.0,0.0595
978.0,0.0589
977.0,0.0583
976.0,0.0576
975.0,0.057
974.0,0.0564
973.0,0.0558
972.0,0.0553
971.0,0.0547
970.0,0.0542
969.0,0.0538
968.0,0.0534
967.0,0.0532
966.0,0.0532
965.0,0.0534
964.0,0.0539
963.0,0.0547
962.0,0.0559
961.0,0.0574
960.0,0.0589
959.0,0.0603
958.0,0.0614
957.0,0.062
956.0,0.0622
955.0,0.0619
954.0,0.0613
953.0,0.0604
952.0,0.0594
951.0,0.0583
950.0,0.0573
949.0,0.0564
948.0,0.0556
947.0,0.0549
946.0,0.0543
945.0,0.0536
944.0,0.053
943.0,0.0525
942.0,0.052
941.0,0.0516
940.0,0.0511
939.0,0.0507
938.0,0.0504
937.0,0.0502
936.0,0.0501
935.0,0.0501
934.0,0.0501
933.0,0.0502
932.0,0.0504
931.0,0.0506
930.0,0.051
929.0,0.0514
928.0,0.0519
927.0,0.0525
926.0,0.0531
925.0,0.0536
924.0,0.054
923.0,0.0544
922.0,0.0547
921.0,0.055
920.0,0.055
919.0,0.0549
918.0,0.0545
917.0,0.0541
916.0,0.0537
915.0,0.0531
914.0,0.0526
913.0,0.0521
912.0,0.0517
911.0,0.0513
910.0,0.0509
909.0,0.0505
908.0,0.0501
907.0,0.0498
906.0,0.0495
905.0,0.0492
904.0,0.0491
903.0,0.0489
902.0,0.0487
901.0,0.0485
900.0,0.0484
899.0,0.0482
898.0,0.0481
897.0,0.0481
896.0,0.048
895.0,0.0479
894.0,0.0477
893.0,0.0475
892.0,0.0471
891.0,0.0466
890.0,0.046
889.0,0.0453
888.0,0.0447
887.0,0.0443
886.0,0.0442
885.0,0.0445
884.0,0.0452
883.0,0.0465
882.0,0.0485
881.0,0.0512
880.0,0.0547
879.0,0.059
878.0,0.064
877.0,0.0695
876.0,0.0754
875.0,0.0812
874.0,0.0867
873.0,0.0914
872.0,0.0949
871.0,0.0969
870.0,0.0973
869.0,0.0966
868.0,0.0951
867.0,0.0931
866.0,0.0909
865.0,0.0887
864.0,0.0864
863.0,0.0839
862.0,0.0812
861.0,0.0781
860.0,0.0746
859.0,0.0708
858.0,0.0669
857.0,0.0631
856.0,0.0596
855.0,0.0565
854.0,0.0539
853.0,0.0518
852.0,0.0503
851.0,0.0493
850.0,0.0488
849.0,0.0484
848.0,0.0479
847.0,0.0471
846.0,0.0462
845.0,0.045
844.0,0.0437
843.0,0.0424
842.0,0.0411
841.0,0.04
840.0,0.0391
839.0,0.0381
838.0,0.0373
837.0,0.0365
836.0,0.0358
835.0,0.0352
834.0,0.0346
833.0,0.0341
832.0,0.0337
831.0,0.0333
830.0,0.0329
829.0,0.0327
828.0,0.0323
827.0,0.032
826.0,0.0317
825.0,0.0315
824.0,0.0312
823.0,0.031
822.0,0.0308
821.0,0.0307
820.0,0.0305
819.0,0.0303
818.0,0.0299
817.0,0.0296
816.0,0.0292
815.0,0.029
814.0,0.0289
813.0,0.0289
812.0,0.0288
811.0,0.0288
810.0,0.0287
809.0,0.0287
808.0,0.0285
807.0,0.0282
806.0,0.0278
805.0,0.0275
804.0,0.0272
803.0,0.0271
802.0,0.027
801.0,0.027
800.0,0.027
799.0,0.0269
798.0,0.0269
797.0,0.0268
796.0,0.0267
795.0,0.0266
794.0,0.0268
793.0,0.027
792.0,0.0273
791.0,0.0276
790.0,0.0281
789.0,0.0287
788.0,0.0293
787.0,0.0298
786.0,0.0304
785.0,0.0311
784.0,0.0319
783.0,0.0327
782.0,0.0335
781.0,0.0343
780.0,0.0351
779.0,0.036
778.0,0.037
777.0,0.0382
776.0,0.0394
775.0,0.0406
774.0,0.0418
773.0,0.0432
772.0,0.0448
771.0,0.0466
770.0,0.0487
769.0,0.0508
768.0,0.0532
767.0,0.0557
766.0,0.0586
765.0,0.0618
764.0,0.0656
763.0,0.0698
762.0,0.0745
761.0,0.0798
760.0,0.0855
759.0,0.091
758.0,0.0957
757.0,0.0994
756.0,0.1017
755.0,0.1023
754.0,0.1011
753.0,0.0987
752.0,0.0956
751.0,0.0923
750.0,0.089
749.0,0.0859
748.0,0.0832
747.0,0.0809
746.0,0.0791
745.0,0.0777
744.0,0.0766
743.0,0.0754
742.0,0.0741
741.0,0.0728
740.0,0.0716
739.0,0.0706
738.0,0.0696
737.0,0.0683
736.0,0.0663
735.0,0.0635
734.0,0.0601
733.0,0.0566
732.0,0.0532
731.0,0.0502
730.0,0.0477
729.0,0.046
728.0,0.045
727.0,0.0444
726.0,0.0443
725.0,0.0447
724.0,0.0456
723.0,0.0468
722.0,0.0486
721.0,0.0508
720.0,0.0535
719.0,0.0562
718.0,0.0587
717.0,0.0611
716.0,0.0633
715.0,0.0653
714.0,0.067
713.0,0.0685
712.0,0.0699
711.0,0.0711
710.0,0.0721
709.0,0.0727
708.0,0.0731
707.0,0.0734
706.0,0.0738
705.0,0.0744
704.0,0.0749
703.0,0.0751
702.0,0.0751
701.0,0.0754
700.0,0.076
699.0,0.0766
698.0,0.0767
697.0,0.0765
696.0,0.0762
695.0,0.0761
694.0,0.0761
693.0,0.0762
692.0,0.0765
691.0,0.0769
690.0,0.0771
689.0,0.0767
688.0,0.0755
687.0,0.0741
686.0,0.0731
685.0,0.0727
684.0,0.0725
683.0,0.0722
682.0,0.0718
681.0,0.0714
680.0,0.0707
679.0,0.0698
678.0,0.0688
677.0,0.068
676.0,0.0668
675.0,0.0652
674.0,0.0634
673.0,0.0619
672.0,0.0609
671.0,0.0603
670.0,0.0597
669.0,0.0589
668.0,0.0587
667.0,0.0589
666.0,0.0582
665.0,0.0575
664.0,0.0572
663.0,0.0569
662.0,0.0565
661.0,0.0561
660.0,0.0557
659.0,0.0552
658.0,0.0549
657.0,0.0547
656.0,0.0545
655.0,0.054
654.0,0.0533
653.0,0.0524
652.0,0.0512
651.0,0.0498
650.0,0.0488
649.0,0.0487
648.0,0.0495
647.0,0.0504
646.0,0.0508
645.0,0.0508
644.0,0.0505
643.0,0.05
642.0,0.0495
641.0,0.0495
640.0,0.0496
639.0,0.0498
638.0,0.05
637.0,0.0505
636.0,0.0514
635.0,0.0524
634.0,0.0527
633.0,0.0521
632.0,0.0507
631.0,0.0489
630.0,0.0473
629.0,0.046
628.0,0.0451
627.0,0.0445
626.0,0.044
625.0,0.0435
624.0,0.0432
623.0,0.0428
622.0,0.0426
621.0,0.0425
620.0,0.0423
619.0,0.042
618.0,0.0417
617.0,0.0415
616.0,0.0411
615.0,0.0404
614.0,0.0396
613.0,0.0389
612.0,0.0383
611.0,0.0376
610.0,0.0372
609.0,0.0373
608.0,0.0374
607.0,0.0371
606.0,0.0363
605.0,0.0357
604.0,0.0357
603.0,0.036
602.0,0.0366
601.0,0.0374
600.0,0.0381
