cm-1,A
4000.0,-0.0026
3999.0,-0.0026
3998.0,-0.0026
3997.0,-0.0026
3996.0,-0.0026
3995.0,-0.0027
3994.0,-0.0027
3993.0,-0.0027
3992.0,-0.0027
3991.0,-0.0026
3990.0,-0.0025
3989.0,-0.0025
3988.0,-0.0025
3987.0,-0.0026
3986.0,-0.0027
3985.0,-0.0027
3984.0,-0.0027
3983.0,-0.0026
3982.0,-0.0026
3981.0,-0.0025
3980.0,-0.0025
3979.0,-0.0025
3978.0,-0.0025
3977.0,-0.0024
3976.0,-0.0025
3975.0,-0.0025
3974.0,-0.0026
3973.0,-0.0026
3972.0,-0.0026
3971.0,-0.0026
3970.0,-0.0025
3969.0,-0.0025
3968.0,-0.0026
3967.0,-0.0026
3966.0,-0.0027
3965.0,-0.0027
3964.0,-0.0027
3963.0,-0.0027
3962.0,-0.0027
3961.0,-0.0027
3960.0,-0.0027
3959.0,-0.0028
3958.0,-0.0028
3957.0,-0.0027
3956.0,-0.0027
3955.0,-0.0027
3954.0,-0.0027
3953.0,-0.0027
3952.0,-0.0028
3951.0,-0.0029
3950.0,-0.0029
3949.0,-0.003
3948.0,-0.0031
3947.0,-0.0031
3946.0,-0.0031
3945.0,-0.0031
3944.0,-0.003
3943.0,-0.0029
3942.0,-0.0028
3941.0,-0.0028
3940.0,-0.0027
3939.0,-0.0027
3938.0,-0.0027
3937.0,-0.0027
3936.0,-0.0027
3935.0,-0.0027
3934.0,-0.0028
3933.0,-0.0028
3932.0,-0.0028
3931.0,-0.0028
3930.0,-0.0028
3929.0,-0.0029
3928.0,-0.0029
3927.0,-0.003
3926.0,-0.003
3925.0,-0.003
3924.0,-0.003
3923.0,-0.003
3922.0,-0.003
3921.0,-0.0029
3920.0,-0.0028
3919.0,-0.0028
3918.0,-0.0027
3917.0,-0.0026
3916.0,-0.0026
3915.0,-0.0025
3914.0,-0.0025
3913.0,-0.0025
3912.0,-0.0025
3911.0,-0.0025
3910.0,-0.0026
3909.0,-0.0027
3908.0,-0.0029
3907.0,-0.003
3906.0,-0.0032
3905.0,-0.0033
3904.0,-0.0034
3903.0,-0.0035
3902.0,-0.0035
3901.0,-0.0033
3900.0,-0.0031
3899.0,-0.0029
3898.0,-0.0028
3897.0,-0.0027
3896.0,-0.0026
3895.0,-0.0026
3894.0,-0.0027
3893.0,-0.0027
3892.0,-0.0028
3891.0,-0.0029
3890.0,-0.003
3889.0,-0.003
3888.0,-0.0029
3887.0,-0.0028
3886.0,-0.0028
3885.0,-0.0028
3884.0,-0.0029
3883.0,-0.0028
3882.0,-0.0027
3881.0,-0.0026
3880.0,-0.0026
3879.0,-0.0027
3878.0,-0.0027
3877.0,-0.0027
3876.0,-0.0028
3875.0,-0.0029
3874.0,-0.003
3873.0,-0.003
3872.0,-0.003
3871.0,-0.003
3870.0,-0.003
3869.0,-0.0031
3868.0,-0.003
3867.0,-0.0029
3866.0,-0.0027
3865.0,-0.0026
3864.0,-0.0027
3863.0,-0.0027
3862.0,-0.0027
3861.0,-0.0027
3860.0,-0.0027
3859.0,-0.0027
3858.0,-0.0028
3857.0,-0.0029
3856.0,-0.003
3855.0,-0.0028
3854.0,-0.0026
3853.0,-0.0027
3852.0,-0.0027
3851.0,-0.0026
3850.0,-0.0025
3849.0,-0.0024
3848.0,-0.0024
3847.0,-0.0025
3846.0,-0.0026
3845.0,-0.0027
3844.0,-0.0029
3843.0,-0.0031
3842.0,-0.0033
3841.0,-0.0034
3840.0,-0.0033
3839.0,-0.0031
3838.0,-0.0029
3837.0,-0.0028
3836.0,-0.0027
3835.0,-0.0026
3834.0,-0.0026
3833.0,-0.0025
3832.0,-0.0025
3831.0,-0.0025
3830.0,-0.0025
3829.0,-0.0025
3828.0,-0.0025
3827.0,-0.0025
3826.0,-0.0026
3825.0,-0.0028
3824.0,-0.0029
3823.0,-0.003
3822.0,-0.003
3821.0,-0.0029
3820.0,-0.0029
3819.0,-0.0029
3818.0,-0.0027
3817.0,-0.0025
3816.0,-0.0025
3815.0,-0.0025
3814.0,-0.0025
3813.0,-0.0024
3812.0,-0.0024
3811.0,-0.0025
3810.0,-0.0026
3809.0,-0.0027
3808.0,-0.0027
3807.0,-0.0028
3806.0,-0.0029
3805.0,-0.0029
3804.0,-0.0029
3803.0,-0.0028
3802.0,-0.0027
3801.0,-0.0028
3800.0,-0.0029
3799.0,-0.0028
3798.0,-0.0026
3797.0,-0.0024
3796.0,-0.0024
3795.0,-0.0023
3794.0,-0.0023
3793.0,-0.0022
3792.0,-0.0022
3791.0,-0.0023
3790.0,-0.0023
3789.0,-0.0024
3788.0,-0.0024
3787.0,-0.0025
3786.0,-0.0025
3785.0,-0.0025
3784.0,-0.0025
3783.0,-0.0026
3782.0,-0.0026
3781.0,-0.0026
3780.0,-0.0026
3779.0,-0.0026
3778.0,-0.0025
3777.0,-0.0025
3776.0,-0.0024
3775.0,-0.0024
3774.0,-0.0024
3773.0,-0.0025
3772.0,-0.0024
3771.0,-0.0024
3770.0,-0.0023
3769.0,-0.0023
3768.0,-0.0023
3767.0,-0.0022
3766.0,-0.0023
3765.0,-0.0024
3764.0,-0.0025
3763.0,-0.0025
3762.0,-0.0025
3761.0,-0.0025
3760.0,-0.0025
3759.0,-0.0026
3758.0,-0.0026
3757.0,-0.0027
3756.0,-0.0028
3755.0,-0.0029
3754.0,-0.0031
3753.0,-0.0031
3752.0,-0.0031
3751.0,-0.003
3750.0,-0.0029
3749.0,-0.0029
3748.0,-0.0029
3747.0,-0.0028
3746.0,-0.0026
3745.0,-0.0025
3744.0,-0.0026
3743.0,-0.0028
3742.0,-0.0028
3741.0,-0.0028
3740.0,-0.003
3739.0,-0.0031
3738.0,-0.0031
3737.0,-0.0031
3736.0,-0.0032
3735.0,-0.0035
3734.0,-0.0037
3733.0,-0.0038
3732.0,-0.0038
3731.0,-0.0038
3730.0,-0.0038
3729.0,-0.0038
3728.0,-0.0038
3727.0,-0.0038
3726.0,-0.0038
3725.0,-0.0038
3724.0,-0.0038
3723.0,-0.0037
3722.0,-0.0036
3721.0,-0.0035
3720.0,-0.0034
3719.0,-0.0032
3718.0,-0.003
3717.0,-0.0028
3716.0,-0.0027
3715.0,-0.0026
3714.0,-0.0027
3713.0,-0.0027
3712.0,-0.0027
3711.0,-0.0028
3710.0,-0.0028
3709.0,-0.0029
3708.0,-0.003
3707.0,-0.0031
3706.0,-0.0032
3705.0,-0.0033
3704.0,-0.0033
3703.0,-0.0033
3702.0,-0.0032
3701.0,-0.0031
3700.0,-0.0031
3699.0,-0.003
3698.0,-0.0028
3697.0,-0.0028
3696.0,-0.0028
3695.0,-0.0029
3694.0,-0.003
3693.0,-0.0031
3692.0,-0.0029
3691.0,-0.0027
3690.0,-0.0024
3689.0,-0.0023
3688.0,-0.0023
3687.0,-0.0022
3686.0,-0.0021
3685.0,-0.002
3684.0,-0.002
3683.0,-0.002
3682.0,-0.002
3681.0,-0.0019
3680.0,-0.0019
3679.0,-0.0019
3678.0,-0.002
3677.0,-0.0019
3676.0,-0.0018
3675.0,-0.0018
3674.0,-0.0019
3673.0,-0.0017
3672.0,-0.0016
3671.0,-0.0013
3670.0,-0.0012
3669.0,-0.0012
3668.0,-0.0011
3667.0,-0.0009
3666.0,-0.0007
3665.0,-0.0006
3664.0,-0.0005
3663.0,-0.0005
3662.0,-0.0005
3661.0,-0.0005
3660.0,-0.0005
3659.0,-0.0005
3658.0,-0.0004
3657.0,-0.0002
3656.0,-0.0002
3655.0,-0.0002
3654.0,-0.0003
3653.0,-0.0005
3652.0,-0.0007
3651.0,-0.0008
3650.0,-0.0008
3649.0,-0.0008
3648.0,-0.0008
3647.0,-0.0007
3646.0,-0.0005
3645.0,-0.0003
3644.0,-0.0002
3643.0,-0.0002
3642.0,-0.0002
3641.0,-0.0002
3640.0,-0.0002
3639.0,-0.0002
3638.0,-0.0004
3637.0,-0.0005
3636.0,-0.0006
3635.0,-0.0008
3634.0,-0.0009
3633.0,-0.0011
3632.0,-0.0013
3631.0,-0.0013
3630.0,-0.0012
3629.0,-0.001
3628.0,-0.001
3627.0,-0.0011
3626.0,-0.0011
3625.0,-0.0011
3624.0,-0.0012
3623.0,-0.0014
3622.0,-0.0015
3621.0,-0.0015
3620.0,-0.0015
3619.0,-0.0014
3618.0,-0.0013
3617.0,-0.0012
3616.0,-0.001
3615.0,-0.0009
3614.0,-0.0008
3613.0,-0.0007
3612.0,-0.0006
3611.0,-0.0005
3610.0,-0.0005
3609.0,-0.0005
3608.0,-0.0005
3607.0,-0.0006
3606.0,-0.0006
3605.0,-0.0006
3604.0,-0.0006
3603.0,-0.0007
3602.0,-0.0007
3601.0,-0.0007
3600.0,-0.0007
3599.0,-0.0007
3598.0,-0.0007
3597.0,-0.0007
3596.0,-0.0005
3595.0,-0.0004
3594.0,-0.0003
3593.0,-0.0003
3592.0,-0.0003
3591.0,-0.0002
3590.0,-0.0001
3589.0,0.0001
3588.0,0.0003
3587.0,0.0003
3586.0,0.0004
3585.0,0.0004
3584.0,0.0006
3583.0,0.0006
3582.0,0.0006
3581.0,0.0006
3580.0,0.0007
3579.0,0.0007
3578.0,0.0007
3577.0,0.0008
3576.0,0.0009
3575.0,0.001
3574.0,0.0011
3573.0,0.0012
3572.0,0.0012
3571.0,0.0012
3570.0,0.0011
3569.0,0.0011
3568.0,0.0011
3567.0,0.0011
3566.0,0.0011
3565.0,0.0011
3564.0,0.0012
3563.0,0.0013
3562.0,0.0014
3561.0,0.0015
3560.0,0.0016
3559.0,0.0016
3558.0,0.0016
3557.0,0.0016
3556.0,0.0016
3555.0,0.0015
3554.0,0.0015
3553.0,0.0015
3552.0,0.0015
3551.0,0.0016
3550.0,0.0016
3549.0,0.0016
3548.0,0.0016
3547.0,0.0017
3546.0,0.0018
3545.0,0.0018
3544.0,0.0019
3543.0,0.002
3542.0,0.0021
3541.0,0.0022
3540.0,0.0023
3539.0,0.0025
3538.0,0.0025
3537.0,0.0026
3536.0,0.0025
3535.0,0.0025
3534.0,0.0024
3533.0,0.0024
3532.0,0.0023
3531.0,0.0024
3530.0,0.0024
3529.0,0.0025
3528.0,0.0027
3527.0,0.0027
3526.0,0.0027
3525.0,0.0027
3524.0,0.0028
3523.0,0.003
3522.0,0.0032
3521.0,0.0034
3520.0,0.0035
3519.0,0.0036
3518.0,0.0037
3517.0,0.0037
3516.0,0.0038
3515.0,0.0039
3514.0,0.004
3513.0,0.0042
3512.0,0.0044
3511.0,0.0044
3510.0,0.0045
3509.0,0.0045
3508.0,0.0045
3507.0,0.0046
3506.0,0.0046
3505.0,0.0047
3504.0,0.0046
3503.0,0.0046
3502.0,0.0046
3501.0,0.0046
3500.0,0.0046
3499.0,0.0046
3498.0,0.0045
3497.0,0.0045
3496.0,0.0045
3495.0,0.0045
3494.0,0.0044
3493.0,0.0044
3492.0,0.0043
3491.0,0.0042
3490.0,0.0041
3489.0,0.004
3488.0,0.004
3487.0,0.0039
3486.0,0.0039
3485.0,0.0038
3484.0,0.0036
3483.0,0.0035
3482.0,0.0034
3481.0,0.0033
3480.0,0.0033
3479.0,0.0034
3478.0,0.0034
3477.0,0.0033
3476.0,0.0033
3475.0,0.0033
3474.0,0.0033
3473.0,0.0033
3472.0,0.0033
3471.0,0.0032
3470.0,0.0031
3469.0,0.003
3468.0,0.003
3467.0,0.003
3466.0,0.003
3465.0,0.003
3464.0,0.003
3463.0,0.003
3462.0,0.0029
3461.0,0.0029
3460.0,0.0028
3459.0,0.0028
3458.0,0.0028
3457.0,0.0028
3456.0,0.0027
3455.0,0.0027
3454.0,0.0028
3453.0,0.0029
3452.0,0.003
3451.0,0.003
3450.0,0.0029
3449.0,0.0028
3448.0,0.0028
3447.0,0.0027
3446.0,0.0027
3445.0,0.0027
3444.0,0.0027
3443.0,0.0028
3442.0,0.0029
3441.0,0.0029
3440.0,0.0029
3439.0,0.0029
3438.0,0.0028
3437.0,0.0028
3436.0,0.0028
3435.0,0.0028
3434.0,0.0027
3433.0,0.0027
3432.0,0.0028
3431.0,0.0029
3430.0,0.0029
3429.0,0.003
3428.0,0.003
3427.0,0.003
3426.0,0.0031
3425.0,0.0031
3424.0,0.003
3423.0,0.003
3422.0,0.0029
3421.0,0.0029
3420.0,0.003
3419.0,0.003
3418.0,0.0031
3417.0,0.0031
3416.0,0.0031
3415.0,0.0031
3414.0,0.003
3413.0,0.003
3412.0,0.0029
3411.0,0.0029
3410.0,0.003
3409.0,0.003
3408.0,0.0031
3407.0,0.0031
3406.0,0.003
3405.0,0.0029
3404.0,0.0028
3403.0,0.0027
3402.0,0.0028
3401.0,0.0028
3400.0,0.0029
3399.0,0.003
3398.0,0.0029
3397.0,0.0029
3396.0,0.0028
3395.0,0.0027
3394.0,0.0027
3393.0,0.0027
3392.0,0.0028
3391.0,0.0029
3390.0,0.003
3389.0,0.003
3388.0,0.003
3387.0,0.0029
3386.0,0.0028
3385.0,0.0027
3384.0,0.0028
3383.0,0.0028
3382.0,0.0029
3381.0,0.003
3380.0,0.003
3379.0,0.0029
3378.0,0.0028
3377.0,0.0028
3376.0,0.0027
3375.0,0.0027
3374.0,0.0027
3373.0,0.0028
3372.0,0.0028
3371.0,0.0028
3370.0,0.0028
3369.0,0.0029
3368.0,0.003
3367.0,0.0029
3366.0,0.0028
3365.0,0.0028
3364.0,0.0028
3363.0,0.0028
3362.0,0.0028
3361.0,0.0029
3360.0,0.0029
3359.0,0.003
3358.0,0.003
3357.0,0.003
3356.0,0.0029
3355.0,0.0028
3354.0,0.0027
3353.0,0.0026
3352.0,0.0025
3351.0,0.0025
3350.0,0.0025
3349.0,0.0025
3348.0,0.0027
3347.0,0.0029
3346.0,0.003
3345.0,0.0031
3344.0,0.0032
3343.0,0.0031
3342.0,0.003
3341.0,0.0028
3340.0,0.0026
3339.0,0.0025
3338.0,0.0025
3337.0,0.0025
3336.0,0.0026
3335.0,0.0028
3334.0,0.0029
3333.0,0.0029
3332.0,0.0028
3331.0,0.0027
3330.0,0.0027
3329.0,0.0027
3328.0,0.0028
3327.0,0.0029
3326.0,0.0029
3325.0,0.0028
3324.0,0.0028
3323.0,0.0027
3322.0,0.0027
3321.0,0.0027
3320.0,0.0027
3319.0,0.0026
3318.0,0.0026
3317.0,0.0027
3316.0,0.0027
3315.0,0.0027
3314.0,0.0027
3313.0,0.0027
3312.0,0.0026
3311.0,0.0026
3310.0,0.0025
3309.0,0.0025
3308.0,0.0025
3307.0,0.0025
3306.0,0.0026
3305.0,0.0026
3304.0,0.0026
3303.0,0.0025
3302.0,0.0025
3301.0,0.0025
3300.0,0.0026
3299.0,0.0025
3298.0,0.0025
3297.0,0.0024
3296.0,0.0024
3295.0,0.0025
3294.0,0.0026
3293.0,0.0027
3292.0,0.0026
3291.0,0.0025
3290.0,0.0024
3289.0,0.0023
3288.0,0.0023
3287.0,0.0023
3286.0,0.0023
3285.0,0.0023
3284.0,0.0023
3283.0,0.0023
3282.0,0.0023
3281.0,0.0024
3280.0,0.0024
3279.0,0.0024
3278.0,0.0024
3277.0,0.0024
3276.0,0.0024
3275.0,0.0023
3274.0,0.0023
3273.0,0.0023
3272.0,0.0023
3271.0,0.0023
3270.0,0.0023
3269.0,0.0024
3268.0,0.0024
3267.0,0.0024
3266.0,0.0024
3265.0,0.0023
3264.0,0.0022
3263.0,0.0021
3262.0,0.0021
3261.0,0.0021
3260.0,0.0021
3259.0,0.0021
3258.0,0.0021
3257.0,0.0021
3256.0,0.0021
3255.0,0.0021
3254.0,0.0021
3253.0,0.0021
3252.0,0.0022
3251.0,0.0022
3250.0,0.0023
3249.0,0.0023
3248.0,0.0023
3247.0,0.0022
3246.0,0.0022
3245.0,0.0023
3244.0,0.0023
3243.0,0.0022
3242.0,0.0021
3241.0,0.002
3240.0,0.002
3239.0,0.002
3238.0,0.002
3237.0,0.0021
3236.0,0.0021
3235.0,0.0021
3234.0,0.002
3233.0,0.0021
3232.0,0.0021
3231.0,0.0021
3230.0,0.002
3229.0,0.002
3228.0,0.002
3227.0,0.0021
3226.0,0.0021
3225.0,0.0021
3224.0,0.0021
3223.0,0.0021
3222.0,0.002
3221.0,0.002
3220.0,0.0019
3219.0,0.0019
3218.0,0.0019
3217.0,0.0019
3216.0,0.0018
3215.0,0.0018
3214.0,0.0019
3213.0,0.002
3212.0,0.0022
3211.0,0.0022
3210.0,0.0022
3209.0,0.0021
3208.0,0.002
3207.0,0.002
3206.0,0.002
3205.0,0.0021
3204.0,0.0021
3203.0,0.0021
3202.0,0.002
3201.0,0.002
3200.0,0.002
3199.0,0.0019
3198.0,0.0018
3197.0,0.0018
3196.0,0.0018
3195.0,0.0018
3194.0,0.0018
3193.0,0.0018
3192.0,0.0018
3191.0,0.0016
3190.0,0.0016
3189.0,0.0015
3188.0,0.0015
3187.0,0.0015
3186.0,0.0014
3185.0,0.0014
3184.0,0.0014
3183.0,0.0015
3182.0,0.0016
3181.0,0.0017
3180.0,0.0018
3179.0,0.0018
3178.0,0.0018
3177.0,0.0017
3176.0,0.0016
3175.0,0.0015
3174.0,0.0015
3173.0,0.0014
3172.0,0.0013
3171.0,0.0013
3170.0,0.0013
3169.0,0.0014
3168.0,0.0014
3167.0,0.0014
3166.0,0.0013
3165.0,0.0012
3164.0,0.0011
3163.0,0.0011
3162.0,0.0011
3161.0,0.0011
3160.0,0.001
3159.0,0.001
3158.0,0.001
3157.0,0.001
3156.0,0.001
3155.0,0.0011
3154.0,0.0011
3153.0,0.0012
3152.0,0.0012
3151.0,0.0012
3150.0,0.0011
3149.0,0.0011
3148.0,0.001
3147.0,0.001
3146.0,0.001
3145.0,0.001
3144.0,0.001
3143.0,0.001
3142.0,0.001
3141.0,0.0009
3140.0,0.001
3139.0,0.001
3138.0,0.0011
3137.0,0.0011
3136.0,0.0011
3135.0,0.0011
3134.0,0.001
3133.0,0.0009
3132.0,0.0008
3131.0,0.0008
3130.0,0.0008
3129.0,0.0008
3128.0,0.0008
3127.0,0.0008
3126.0,0.0007
3125.0,0.0007
3124.0,0.0007
3123.0,0.0007
3122.0,0.0007
3121.0,0.0006
3120.0,0.0006
3119.0,0.0006
3118.0,0.0006
3117.0,0.0007
3116.0,0.0007
3115.0,0.0006
3114.0,0.0005
3113.0,0.0005
3112.0,0.0005
3111.0,0.0006
3110.0,0.0007
3109.0,0.0007
3108.0,0.0007
3107.0,0.0007
3106.0,0.0007
3105.0,0.0007
3104.0,0.0007
3103.0,0.0006
3102.0,0.0005
3101.0,0.0005
3100.0,0.0004
3099.0,0.0004
3098.0,0.0004
3097.0,0.0004
3096.0,0.0005
3095.0,0.0005
3094.0,0.0005
3093.0,0.0005
3092.0,0.0005
3091.0,0.0005
3090.0,0.0005
3089.0,0.0006
3088.0,0.0006
3087.0,0.0006
3086.0,0.0006
3085.0,0.0005
3084.0,0.0005
3083.0,0.0005
3082.0,0.0005
3081.0,0.0005
3080.0,0.0004
3079.0,0.0003
3078.0,0.0002
3077.0,0.0001
3076.0,0.0001
3075.0,0.0002
3074.0,0.0002
3073.0,0.0003
3072.0,0.0003
3071.0,0.0004
3070.0,0.0003
3069.0,0.0003
3068.0,0.0002
3067.0,0.0002
3066.0,0.0001
3065.0,0.0001
3064.0,0.0002
3063.0,0.0002
3062.0,0.0002
3061.0,0.0002
3060.0,0.0003
3059.0,0.0004
3058.0,0.0004
3057.0,0.0003
3056.0,0.0002
3055.0,0.0001
3054.0,0.0001
3053.0,0.0002
3052.0,0.0002
3051.0,0.0002
3050.0,0.0002
3049.0,0.0001
3048.0,0.0001
3047.0,0.0
3046.0,0.0
3045.0,0.0
3044.0,0.0
3043.0,0.0
3042.0,0.0
3041.0,0.0
3040.0,0.0001
3039.0,0.0002
3038.0,0.0002
3037.0,0.0003
3036.0,0.0003
3035.0,0.0004
3034.0,0.0004
3033.0,0.0005
3032.0,0.0006
3031.0,0.0007
3030.0,0.0008
3029.0,0.0009
3028.0,0.001
3027.0,0.0012
3026.0,0.0014
3025.0,0.0016
3024.0,0.0019
3023.0,0.0022
3022.0,0.0025
3021.0,0.0029
3020.0,0.0033
3019.0,0.0038
3018.0,0.0043
3017.0,0.0047
3016.0,0.0052
3015.0,0.0058
3014.0,0.0065
3013.0,0.0073
3012.0,0.008
3011.0,0.0088
3010.0,0.0095
3009.0,0.0104
3008.0,0.0114
3007.0,0.0125
3006.0,0.0136
3005.0,0.0147
3004.0,0.0158
3003.0,0.0169
3002.0,0.018
3001.0,0.019
3000.0,0.02
2999.0,0.0208
2998.0,0.0214
2997.0,0.0218
2996.0,0.022
2995.0,0.0219
2994.0,0.0215
2993.0,0.0208
2992.0,0.0199
2991.0,0.0188
2990.0,0.0175
2989.0,0.0162
2988.0,0.0149
2987.0,0.0138
2986.0,0.0127
2985.0,0.0118
2984.0,0.011
2983.0,0.0104
2982.0,0.0099
2981.0,0.0094
2980.0,0.009
2979.0,0.0086
2978.0,0.0084
2977.0,0.0082
2976.0,0.0081
2975.0,0.008
2974.0,0.0078
2973.0,0.0077
2972.0,0.0077
2971.0,0.0077
2970.0,0.0078
2969.0,0.0079
2968.0,0.0081
2967.0,0.0083
2966.0,0.0085
2965.0,0.0087
2964.0,0.0089
2963.0,0.0091
2962.0,0.0092
2961.0,0.0094
2960.0,0.0097
2959.0,0.0101
2958.0,0.0105
2957.0,0.0109
2956.0,0.0114
2955.0,0.012
2954.0,0.0126
2953.0,0.0134
2952.0,0.0142
2951.0,0.0151
2950.0,0.0159
2949.0,0.0166
2948.0,0.0173
2947.0,0.0177
2946.0,0.0179
2945.0,0.0179
2944.0,0.0176
2943.0,0.017
2942.0,0.0162
2941.0,0.0153
2940.0,0.0142
2939.0,0.0132
2938.0,0.0122
2937.0,0.0113
2936.0,0.0105
2935.0,0.0099
2934.0,0.0094
2933.0,0.0089
2932.0,0.0084
2931.0,0.0079
2930.0,0.0075
2929.0,0.0071
2928.0,0.0068
2927.0,0.0066
2926.0,0.0064
2925.0,0.0062
2924.0,0.006
2923.0,0.0057
2922.0,0.0055
2921.0,0.0053
2920.0,0.0052
2919.0,0.0051
2918.0,0.0049
2917.0,0.0048
2916.0,0.0046
2915.0,0.0045
2914.0,0.0044
2913.0,0.0043
2912.0,0.0043
2911.0,0.0042
2910.0,0.0042
2909.0,0.0042
2908.0,0.0042
2907.0,0.0041
2906.0,0.0041
2905.0,0.0041
2904.0,0.0041
2903.0,0.004
2902.0,0.0039
2901.0,0.0039
2900.0,0.0038
2899.0,0.0038
2898.0,0.0037
2897.0,0.0037
2896.0,0.0036
2895.0,0.0036
2894.0,0.0036
2893.0,0.0036
2892.0,0.0037
2891.0,0.0038
2890.0,0.004
2889.0,0.0041
2888.0,0.0043
2887.0,0.0044
2886.0,0.0046
2885.0,0.0047
2884.0,0.0049
2883.0,0.005
2882.0,0.0051
2881.0,0.0051
2880.0,0.005
2879.0,0.005
2878.0,0.0048
2877.0,0.0046
2876.0,0.0044
2875.0,0.0041
2874.0,0.0038
2873.0,0.0035
2872.0,0.0032
2871.0,0.003
2870.0,0.0027
2869.0,0.0025
2868.0,0.0023
2867.0,0.0022
2866.0,0.0021
2865.0,0.002
2864.0,0.0019
2863.0,0.0018
2862.0,0.0017
2861.0,0.0016
2860.0,0.0017
2859.0,0.0017
2858.0,0.0017
2857.0,0.0017
2856.0,0.0016
2855.0,0.0016
2854.0,0.0015
2853.0,0.0015
2852.0,0.0015
2851.0,0.0015
2850.0,0.0015
2849.0,0.0015
2848.0,0.0014
2847.0,0.0013
2846.0,0.0012
2845.0,0.0011
2844.0,0.0011
2843.0,0.001
2842.0,0.001
2841.0,0.001
2840.0,0.001
2839.0,0.001
2838.0,0.001
2837.0,0.001
2836.0,0.001
2835.0,0.001
2834.0,0.0009
2833.0,0.0009
2832.0,0.0009
2831.0,0.0009
2830.0,0.0009
2829.0,0.0009
2828.0,0.0009
2827.0,0.0009
2826.0,0.0008
2825.0,0.0008
2824.0,0.0008
2823.0,0.0008
2822.0,0.0007
2821.0,0.0007
2820.0,0.0006
2819.0,0.0006
2818.0,0.0005
2817.0,0.0005
2816.0,0.0005
2815.0,0.0004
2814.0,0.0004
2813.0,0.0003
2812.0,0.0003
2811.0,0.0003
2810.0,0.0002
2809.0,0.0003
2808.0,0.0003
2807.0,0.0003
2806.0,0.0002
2805.0,0.0002
2804.0,0.0001
2803.0,0.0001
2802.0,0.0001
2801.0,0.0001
2800.0,0.0
2799.0,-0.0
2798.0,-0.0001
2797.0,-0.0001
2796.0,-0.0001
2795.0,-0.0
2794.0,-0.0
2793.0,-0.0001
2792.0,-0.0001
2791.0,-0.0001
2790.0,-0.0001
2789.0,-0.0002
2788.0,-0.0002
2787.0,-0.0003
2786.0,-0.0003
2785.0,-0.0003
2784.0,-0.0003
2783.0,-0.0003
2782.0,-0.0004
2781.0,-0.0004
2780.0,-0.0004
2779.0,-0.0004
2778.0,-0.0004
2777.0,-0.0004
2776.0,-0.0004
2775.0,-0.0004
2774.0,-0.0004
2773.0,-0.0004
2772.0,-0.0005
2771.0,-0.0005
2770.0,-0.0005
2769.0,-0.0005
2768.0,-0.0004
2767.0,-0.0004
2766.0,-0.0004
2765.0,-0.0005
2764.0,-0.0005
2763.0,-0.0005
2762.0,-0.0005
2761.0,-0.0005
2760.0,-0.0004
2759.0,-0.0004
2758.0,-0.0004
2757.0,-0.0004
2756.0,-0.0004
2755.0,-0.0005
2754.0,-0.0005
2753.0,-0.0005
2752.0,-0.0005
2751.0,-0.0005
2750.0,-0.0005
2749.0,-0.0005
2748.0,-0.0005
2747.0,-0.0005
2746.0,-0.0005
2745.0,-0.0005
2744.0,-0.0005
2743.0,-0.0005
2742.0,-0.0006
2741.0,-0.0006
2740.0,-0.0006
2739.0,-0.0006
2738.0,-0.0006
2737.0,-0.0006
2736.0,-0.0006
2735.0,-0.0005
2734.0,-0.0005
2733.0,-0.0005
2732.0,-0.0005
2731.0,-0.0006
2730.0,-0.0006
2729.0,-0.0006
2728.0,-0.0006
2727.0,-0.0007
2726.0,-0.0007
2725.0,-0.0007
2724.0,-0.0007
2723.0,-0.0007
2722.0,-0.0007
2721.0,-0.0007
2720.0,-0.0007
2719.0,-0.0007
2718.0,-0.0007
2717.0,-0.0007
2716.0,-0.0007
2715.0,-0.0007
2714.0,-0.0006
2713.0,-0.0006
2712.0,-0.0006
2711.0,-0.0007
2710.0,-0.0007
2709.0,-0.0007
2708.0,-0.0007
2707.0,-0.0007
2706.0,-0.0007
2705.0,-0.0008
2704.0,-0.0008
2703.0,-0.0007
2702.0,-0.0007
2701.0,-0.0007
2700.0,-0.0006
2699.0,-0.0006
2698.0,-0.0006
2697.0,-0.0007
2696.0,-0.0006
2695.0,-0.0006
2694.0,-0.0006
2693.0,-0.0006
2692.0,-0.0006
2691.0,-0.0007
2690.0,-0.0007
2689.0,-0.0007
2688.0,-0.0007
2687.0,-0.0007
2686.0,-0.0007
2685.0,-0.0006
2684.0,-0.0006
2683.0,-0.0006
2682.0,-0.0007
2681.0,-0.0007
2680.0,-0.0007
2679.0,-0.0007
2678.0,-0.0007
2677.0,-0.0007
2676.0,-0.0006
2675.0,-0.0006
2674.0,-0.0006
2673.0,-0.0006
2672.0,-0.0006
2671.0,-0.0006
2670.0,-0.0006
2669.0,-0.0005
2668.0,-0.0005
2667.0,-0.0005
2666.0,-0.0006
2665.0,-0.0006
2664.0,-0.0007
2663.0,-0.0007
2662.0,-0.0007
2661.0,-0.0007
2660.0,-0.0006
2659.0,-0.0006
2658.0,-0.0006
2657.0,-0.0006
2656.0,-0.0006
2655.0,-0.0005
2654.0,-0.0004
2653.0,-0.0004
2652.0,-0.0003
2651.0,-0.0003
2650.0,-0.0004
2649.0,-0.0005
2648.0,-0.0005
2647.0,-0.0006
2646.0,-0.0005
2645.0,-0.0005
2644.0,-0.0005
2643.0,-0.0005
2642.0,-0.0006
2641.0,-0.0006
2640.0,-0.0007
2639.0,-0.0007
2638.0,-0.0007
2637.0,-0.0006
2636.0,-0.0006
2635.0,-0.0006
2634.0,-0.0006
2633.0,-0.0006
2632.0,-0.0007
2631.0,-0.0007
2630.0,-0.0007
2629.0,-0.0008
2628.0,-0.0008
2627.0,-0.0008
2626.0,-0.0007
2625.0,-0.0007
2624.0,-0.0006
2623.0,-0.0006
2622.0,-0.0007
2621.0,-0.0007
2620.0,-0.0007
2619.0,-0.0008
2618.0,-0.0008
2617.0,-0.0009
2616.0,-0.0009
2615.0,-0.0009
2614.0,-0.0009
2613.0,-0.001
2612.0,-0.001
2611.0,-0.001
2610.0,-0.001
2609.0,-0.001
2608.0,-0.001
2607.0,-0.001
2606.0,-0.001
2605.0,-0.001
2604.0,-0.001
2603.0,-0.0011
2602.0,-0.0011
2601.0,-0.001
2600.0,-0.001
2599.0,-0.001
2598.0,-0.001
2597.0,-0.001
2596.0,-0.001
2595.0,-0.001
2594.0,-0.0009
2593.0,-0.0009
2592.0,-0.0009
2591.0,-0.0009
2590.0,-0.0009
2589.0,-0.0009
2588.0,-0.0009
2587.0,-0.0009
2586.0,-0.0009
2585.0,-0.001
2584.0,-0.001
2583.0,-0.001
2582.0,-0.0011
2581.0,-0.0011
2580.0,-0.0011
2579.0,-0.0011
2578.0,-0.0011
2577.0,-0.001
2576.0,-0.001
2575.0,-0.001
2574.0,-0.001
2573.0,-0.001
2572.0,-0.001
2571.0,-0.001
2570.0,-0.001
2569.0,-0.0011
2568.0,-0.0011
2567.0,-0.0012
2566.0,-0.0012
2565.0,-0.0012
2564.0,-0.0012
2563.0,-0.0012
2562.0,-0.0012
2561.0,-0.0012
2560.0,-0.0013
2559.0,-0.0013
2558.0,-0.0013
2557.0,-0.0013
2556.0,-0.0013
2555.0,-0.0013
2554.0,-0.0013
2553.0,-0.0013
2552.0,-0.0013
2551.0,-0.0013
2550.0,-0.0013
2549.0,-0.0013
2548.0,-0.0013
2547.0,-0.0013
2546.0,-0.0013
2545.0,-0.0013
2544.0,-0.0014
2543.0,-0.0014
2542.0,-0.0014
2541.0,-0.0013
2540.0,-0.0013
2539.0,-0.0012
2538.0,-0.0012
2537.0,-0.0013
2536.0,-0.0013
2535.0,-0.0013
2534.0,-0.0013
2533.0,-0.0014
2532.0,-0.0014
2531.0,-0.0015
2530.0,-0.0015
2529.0,-0.0015
2528.0,-0.0015
2527.0,-0.0015
2526.0,-0.0016
2525.0,-0.0016
2524.0,-0.0015
2523.0,-0.0015
2522.0,-0.0014
2521.0,-0.0014
2520.0,-0.0014
2519.0,-0.0014
2518.0,-0.0014
2517.0,-0.0014
2516.0,-0.0014
2515.0,-0.0013
2514.0,-0.0013
2513.0,-0.0013
2512.0,-0.0013
2511.0,-0.0014
2510.0,-0.0014
2509.0,-0.0014
2508.0,-0.0014
2507.0,-0.0014
2506.0,-0.0014
2505.0,-0.0014
2504.0,-0.0014
2503.0,-0.0014
2502.0,-0.0014
2501.0,-0.0014
2500.0,-0.0013
2499.0,-0.0014
2498.0,-0.0015
2497.0,-0.0015
2496.0,-0.0015
2495.0,-0.0015
2494.0,-0.0015
2493.0,-0.0014
2492.0,-0.0014
2491.0,-0.0015
2490.0,-0.0015
2489.0,-0.0016
2488.0,-0.0016
2487.0,-0.0016
2486.0,-0.0016
2485.0,-0.0016
2484.0,-0.0016
2483.0,-0.0017
2482.0,-0.0017
2481.0,-0.0017
2480.0,-0.0017
2479.0,-0.0017
2478.0,-0.0017
2477.0,-0.0016
2476.0,-0.0016
2475.0,-0.0017
2474.0,-0.0017
2473.0,-0.0017
2472.0,-0.0017
2471.0,-0.0017
2470.0,-0.0018
2469.0,-0.0018
2468.0,-0.0018
2467.0,-0.0018
2466.0,-0.0018
2465.0,-0.0018
2464.0,-0.0018
2463.0,-0.0018
2462.0,-0.0018
2461.0,-0.0018
2460.0,-0.0018
2459.0,-0.0017
2458.0,-0.0017
2457.0,-0.0017
2456.0,-0.0016
2455.0,-0.0016
2454.0,-0.0017
2453.0,-0.0018
2452.0,-0.0018
2451.0,-0.0019
2450.0,-0.0019
2449.0,-0.0019
2448.0,-0.0018
2447.0,-0.0018
2446.0,-0.0019
2445.0,-0.0019
2444.0,-0.0019
2443.0,-0.0019
2442.0,-0.0019
2441.0,-0.0018
2440.0,-0.0017
2439.0,-0.0017
2438.0,-0.0017
2437.0,-0.0016
2436.0,-0.0016
2435.0,-0.0015
2434.0,-0.0015
2433.0,-0.0014
2432.0,-0.0013
2431.0,-0.0013
2430.0,-0.0013
2429.0,-0.0014
2428.0,-0.0014
2427.0,-0.0014
2426.0,-0.0014
2425.0,-0.0014
2424.0,-0.0014
2423.0,-0.0014
2422.0,-0.0014
2421.0,-0.0014
2420.0,-0.0013
2419.0,-0.0013
2418.0,-0.0013
2417.0,-0.0012
2416.0,-0.0012
2415.0,-0.0012
2414.0,-0.0013
2413.0,-0.0013
2412.0,-0.0012
2411.0,-0.0012
2410.0,-0.0012
2409.0,-0.0012
2408.0,-0.0011
2407.0,-0.0011
2406.0,-0.0011
2405.0,-0.001
2404.0,-0.001
2403.0,-0.0011
2402.0,-0.0011
2401.0,-0.0011
2400.0,-0.0011
2399.0,-0.001
2398.0,-0.001
2397.0,-0.001
2396.0,-0.0011
2395.0,-0.0011
2394.0,-0.0011
2393.0,-0.0011
2392.0,-0.0011
2391.0,-0.0011
2390.0,-0.0011
2389.0,-0.001
2388.0,-0.001
2387.0,-0.001
2386.0,-0.0011
2385.0,-0.0012
2384.0,-0.0014
2383.0,-0.0016
2382.0,-0.002
2381.0,-0.0024
2380.0,-0.0027
2379.0,-0.0028
2378.0,-0.0028
2377.0,-0.0025
2376.0,-0.002
2375.0,-0.0015
2374.0,-0.0013
2373.0,-0.0016
2372.0,-0.0023
2371.0,-0.0033
2370.0,-0.0042
2369.0,-0.0043
2368.0,-0.0035
2367.0,-0.003
2366.0,-0.0035
2365.0,-0.0042
2364.0,-0.0046
2363.0,-0.0055
2362.0,-0.0068
2361.0,-0.0069
2360.0,-0.0054
2359.0,-0.0043
2358.0,-0.0051
2357.0,-0.0068
2356.0,-0.008
2355.0,-0.009
2354.0,-0.0098
2353.0,-0.0103
2352.0,-0.0102
2351.0,-0.0096
2350.0,-0.0089
2349.0,-0.0084
2348.0,-0.0083
2347.0,-0.0085
2346.0,-0.0085
2345.0,-0.0082
2344.0,-0.0078
2343.0,-0.008
2342.0,-0.0089
2341.0,-0.0099
2340.0,-0.0107
2339.0,-0.0115
2338.0,-0.012
2337.0,-0.0119
2336.0,-0.0115
2335.0,-0.0116
2334.0,-0.0122
2333.0,-0.0128
2332.0,-0.0129
2331.0,-0.0124
2330.0,-0.0115
2329.0,-0.0099
2328.0,-0.0083
2327.0,-0.0071
2326.0,-0.0066
2325.0,-0.0064
2324.0,-0.0062
2323.0,-0.0058
2322.0,-0.005
2321.0,-0.004
2320.0,-0.0028
2319.0,-0.0021
2318.0,-0.0018
2317.0,-0.0018
2316.0,-0.0018
2315.0,-0.002
2314.0,-0.0024
2313.0,-0.0028
2312.0,-0.0031
2311.0,-0.0034
2310.0,-0.0037
2309.0,-0.0039
2308.0,-0.0039
2307.0,-0.0038
2306.0,-0.0036
2305.0,-0.0034
2304.0,-0.0032
2303.0,-0.0031
2302.0,-0.0031
2301.0,-0.0032
2300.0,-0.0032
2299.0,-0.0032
2298.0,-0.0032
2297.0,-0.0031
2296.0,-0.0031
2295.0,-0.0031
2294.0,-0.0031
2293.0,-0.0031
2292.0,-0.0031
2291.0,-0.003
2290.0,-0.0029
2289.0,-0.0028
2288.0,-0.0028
2287.0,-0.0027
2286.0,-0.0027
2285.0,-0.0027
2284.0,-0.0028
2283.0,-0.0028
2282.0,-0.0028
2281.0,-0.0029
2280.0,-0.0029
2279.0,-0.003
2278.0,-0.0031
2277.0,-0.0032
2276.0,-0.0032
2275.0,-0.0033
2274.0,-0.0033
2273.0,-0.0034
2272.0,-0.0034
2271.0,-0.0035
2270.0,-0.0035
2269.0,-0.0035
2268.0,-0.0035
2267.0,-0.0035
2266.0,-0.0035
2265.0,-0.0035
2264.0,-0.0034
2263.0,-0.0033
2262.0,-0.0033
2261.0,-0.0033
2260.0,-0.0032
2259.0,-0.0032
2258.0,-0.0032
2257.0,-0.0032
2256.0,-0.0032
2255.0,-0.0032
2254.0,-0.0033
2253.0,-0.0033
2252.0,-0.0033
2251.0,-0.0033
2250.0,-0.0033
2249.0,-0.0033
2248.0,-0.0033
2247.0,-0.0033
2246.0,-0.0033
2245.0,-0.0033
2244.0,-0.0033
2243.0,-0.0033
2242.0,-0.0034
2241.0,-0.0034
2240.0,-0.0033
2239.0,-0.0033
2238.0,-0.0033
2237.0,-0.0034
2236.0,-0.0034
2235.0,-0.0034
2234.0,-0.0035
2233.0,-0.0035
2232.0,-0.0035
2231.0,-0.0035
2230.0,-0.0035
2229.0,-0.0036
2228.0,-0.0036
2227.0,-0.0036
2226.0,-0.0037
2225.0,-0.0037
2224.0,-0.0038
2223.0,-0.0038
2222.0,-0.0038
2221.0,-0.0037
2220.0,-0.0037
2219.0,-0.0037
2218.0,-0.0037
2217.0,-0.0038
2216.0,-0.0038
2215.0,-0.0039
2214.0,-0.0039
2213.0,-0.004
2212.0,-0.004
2211.0,-0.004
2210.0,-0.0041
2209.0,-0.0042
2208.0,-0.0042
2207.0,-0.0042
2206.0,-0.0042
2205.0,-0.0042
2204.0,-0.0042
2203.0,-0.0042
2202.0,-0.0042
2201.0,-0.0043
2200.0,-0.0044
2199.0,-0.0044
2198.0,-0.0044
2197.0,-0.0044
2196.0,-0.0044
2195.0,-0.0044
2194.0,-0.0044
2193.0,-0.0043
2192.0,-0.0043
2191.0,-0.0043
2190.0,-0.0043
2189.0,-0.0042
2188.0,-0.0042
2187.0,-0.0042
2186.0,-0.0042
2185.0,-0.0043
2184.0,-0.0043
2183.0,-0.0043
2182.0,-0.0043
2181.0,-0.0043
2180.0,-0.0042
2179.0,-0.0042
2178.0,-0.0042
2177.0,-0.0042
2176.0,-0.0042
2175.0,-0.0042
2174.0,-0.0042
2173.0,-0.0042
2172.0,-0.0042
2171.0,-0.0042
2170.0,-0.0043
2169.0,-0.0043
2168.0,-0.0043
2167.0,-0.0043
2166.0,-0.0043
2165.0,-0.0044
2164.0,-0.0044
2163.0,-0.0044
2162.0,-0.0044
2161.0,-0.0044
2160.0,-0.0044
2159.0,-0.0044
2158.0,-0.0045
2157.0,-0.0045
2156.0,-0.0045
2155.0,-0.0044
2154.0,-0.0045
2153.0,-0.0045
2152.0,-0.0045
2151.0,-0.0044
2150.0,-0.0044
2149.0,-0.0044
2148.0,-0.0043
2147.0,-0.0043
2146.0,-0.0043
2145.0,-0.0043
2144.0,-0.0044
2143.0,-0.0044
2142.0,-0.0044
2141.0,-0.0044
2140.0,-0.0043
2139.0,-0.0042
2138.0,-0.0043
2137.0,-0.0043
2136.0,-0.0043
2135.0,-0.0043
2134.0,-0.0043
2133.0,-0.0042
2132.0,-0.0042
2131.0,-0.0041
2130.0,-0.0041
2129.0,-0.004
2128.0,-0.004
2127.0,-0.004
2126.0,-0.004
2125.0,-0.004
2124.0,-0.004
2123.0,-0.004
2122.0,-0.004
2121.0,-0.004
2120.0,-0.0039
2119.0,-0.0039
2118.0,-0.0039
2117.0,-0.004
2116.0,-0.004
2115.0,-0.0041
2114.0,-0.0041
2113.0,-0.0042
2112.0,-0.0042
2111.0,-0.0042
2110.0,-0.0042
2109.0,-0.0041
2108.0,-0.0041
2107.0,-0.0041
2106.0,-0.0041
2105.0,-0.0042
2104.0,-0.0042
2103.0,-0.0042
2102.0,-0.0042
2101.0,-0.0042
2100.0,-0.0041
2099.0,-0.004
2098.0,-0.0039
2097.0,-0.0039
2096.0,-0.0038
2095.0,-0.0038
2094.0,-0.0038
2093.0,-0.0039
2092.0,-0.0039
2091.0,-0.0039
2090.0,-0.0039
2089.0,-0.0039
2088.0,-0.0039
2087.0,-0.0039
2086.0,-0.0038
2085.0,-0.0038
2084.0,-0.0038
2083.0,-0.0038
2082.0,-0.004
2081.0,-0.004
2080.0,-0.0041
2079.0,-0.0041
2078.0,-0.0041
2077.0,-0.004
2076.0,-0.004
2075.0,-0.004
2074.0,-0.0042
2073.0,-0.0043
2072.0,-0.0043
2071.0,-0.0044
2070.0,-0.0044
2069.0,-0.0045
2068.0,-0.0045
2067.0,-0.0045
2066.0,-0.0045
2065.0,-0.0045
2064.0,-0.0045
2063.0,-0.0046
2062.0,-0.0046
2061.0,-0.0047
2060.0,-0.0048
2059.0,-0.0049
2058.0,-0.005
2057.0,-0.0051
2056.0,-0.0051
2055.0,-0.0051
2054.0,-0.0051
2053.0,-0.0052
2052.0,-0.0052
2051.0,-0.0053
2050.0,-0.0054
2049.0,-0.0055
2048.0,-0.0056
2047.0,-0.0056
2046.0,-0.0057
2045.0,-0.0058
2044.0,-0.0058
2043.0,-0.0059
2042.0,-0.006
2041.0,-0.006
2040.0,-0.006
2039.0,-0.006
2038.0,-0.0061
2037.0,-0.0061
2036.0,-0.0061
2035.0,-0.0062
2034.0,-0.0063
2033.0,-0.0063
2032.0,-0.0063
2031.0,-0.0063
2030.0,-0.0063
2029.0,-0.0063
2028.0,-0.0063
2027.0,-0.0063
2026.0,-0.0064
2025.0,-0.0064
2024.0,-0.0063
2023.0,-0.0063
2022.0,-0.0063
2021.0,-0.0063
2020.0,-0.0063
2019.0,-0.0062
2018.0,-0.0062
2017.0,-0.0062
2016.0,-0.0062
2015.0,-0.0062
2014.0,-0.0062
2013.0,-0.0062
2012.0,-0.0061
2011.0,-0.0061
2010.0,-0.0061
2009.0,-0.0061
2008.0,-0.006
2007.0,-0.0061
2006.0,-0.0061
2005.0,-0.0061
2004.0,-0.0061
2003.0,-0.006
2002.0,-0.0061
2001.0,-0.0061
2000.0,-0.0061
1999.0,-0.0061
1998.0,-0.0062
1997.0,-0.0062
1996.0,-0.0062
1995.0,-0.0062
1994.0,-0.0063
1993.0,-0.0063
1992.0,-0.0063
1991.0,-0.0063
1990.0,-0.0064
1989.0,-0.0064
1988.0,-0.0064
1987.0,-0.0065
1986.0,-0.0065
1985.0,-0.0065
1984.0,-0.0064
1983.0,-0.0063
1982.0,-0.0063
1981.0,-0.0063
1980.0,-0.0063
1979.0,-0.0063
1978.0,-0.0063
1977.0,-0.0063
1976.0,-0.0062
1975.0,-0.0062
1974.0,-0.0061
1973.0,-0.0061
1972.0,-0.0061
1971.0,-0.0061
1970.0,-0.0061
1969.0,-0.0061
1968.0,-0.0061
1967.0,-0.0061
1966.0,-0.0062
1965.0,-0.0062
1964.0,-0.0062
1963.0,-0.0062
1962.0,-0.0062
1961.0,-0.0063
1960.0,-0.0063
1959.0,-0.0064
1958.0,-0.0065
1957.0,-0.0066
1956.0,-0.0066
1955.0,-0.0067
1954.0,-0.0067
1953.0,-0.0068
1952.0,-0.0068
1951.0,-0.0069
1950.0,-0.007
1949.0,-0.0071
1948.0,-0.0071
1947.0,-0.0072
1946.0,-0.0073
1945.0,-0.0073
1944.0,-0.0073
1943.0,-0.0073
1942.0,-0.0074
1941.0,-0.0075
1940.0,-0.0075
1939.0,-0.0075
1938.0,-0.0076
1937.0,-0.0077
1936.0,-0.0077
1935.0,-0.0077
1934.0,-0.0077
1933.0,-0.0077
1932.0,-0.0077
1931.0,-0.0077
1930.0,-0.0078
1929.0,-0.0078
1928.0,-0.0078
1927.0,-0.0078
1926.0,-0.0078
1925.0,-0.0078
1924.0,-0.0078
1923.0,-0.0079
1922.0,-0.0079
1921.0,-0.0078
1920.0,-0.0077
1919.0,-0.0077
1918.0,-0.0078
1917.0,-0.0079
1916.0,-0.0078
1915.0,-0.0078
1914.0,-0.0078
1913.0,-0.0079
1912.0,-0.0079
1911.0,-0.0079
1910.0,-0.008
1909.0,-0.008
1908.0,-0.008
1907.0,-0.008
1906.0,-0.008
1905.0,-0.008
1904.0,-0.008
1903.0,-0.008
1902.0,-0.0081
1901.0,-0.0081
1900.0,-0.0081
1899.0,-0.0081
1898.0,-0.0082
1897.0,-0.0081
1896.0,-0.0081
1895.0,-0.0081
1894.0,-0.0081
1893.0,-0.0081
1892.0,-0.008
1891.0,-0.008
1890.0,-0.0081
1889.0,-0.0082
1888.0,-0.0082
1887.0,-0.0082
1886.0,-0.0082
1885.0,-0.0082
1884.0,-0.0081
1883.0,-0.0081
1882.0,-0.0081
1881.0,-0.0082
1880.0,-0.0082
1879.0,-0.0083
1878.0,-0.0083
1877.0,-0.0083
1876.0,-0.0083
1875.0,-0.0082
1874.0,-0.0082
1873.0,-0.0082
1872.0,-0.0081
1871.0,-0.0081
1870.0,-0.0082
1869.0,-0.0083
1868.0,-0.0083
1867.0,-0.0082
1866.0,-0.0082
1865.0,-0.0081
1864.0,-0.008
1863.0,-0.008
1862.0,-0.008
1861.0,-0.008
1860.0,-0.0079
1859.0,-0.0078
1858.0,-0.0078
1857.0,-0.0077
1856.0,-0.0076
1855.0,-0.0076
1854.0,-0.0076
1853.0,-0.0076
1852.0,-0.0075
1851.0,-0.0073
1850.0,-0.0073
1849.0,-0.0072
1848.0,-0.007
1847.0,-0.0068
1846.0,-0.0067
1845.0,-0.0066
1844.0,-0.0065
1843.0,-0.0064
1842.0,-0.0063
1841.0,-0.0061
1840.0,-0.0059
1839.0,-0.0057
1838.0,-0.0056
1837.0,-0.0054
1836.0,-0.005
1835.0,-0.0048
1834.0,-0.0046
1833.0,-0.0043
1832.0,-0.004
1831.0,-0.0038
1830.0,-0.0037
1829.0,-0.0035
1828.0,-0.0032
1827.0,-0.0029
1826.0,-0.0028
1825.0,-0.0026
1824.0,-0.0023
1823.0,-0.0019
1822.0,-0.0017
1821.0,-0.0015
1820.0,-0.0012
1819.0,-0.0009
1818.0,-0.0008
1817.0,-0.0006
1816.0,-0.0003
1815.0,-0.0001
1814.0,0.0
1813.0,0.0002
1812.0,0.0006
1811.0,0.0008
1810.0,0.001
1809.0,0.0013
1808.0,0.0017
1807.0,0.0021
1806.0,0.0024
1805.0,0.0028
1804.0,0.0033
1803.0,0.0037
1802.0,0.0042
1801.0,0.0048
1800.0,0.0055
1799.0,0.0062
1798.0,0.0067
1797.0,0.0075
1796.0,0.0085
1795.0,0.0095
1794.0,0.0105
1793.0,0.0122
1792.0,0.0146
1791.0,0.0169
1790.0,0.0191
1789.0,0.0215
1788.0,0.0244
1787.0,0.0277
1786.0,0.0317
1785.0,0.0364
1784.0,0.0414
1783.0,0.0464
1782.0,0.0518
1781.0,0.0582
1780.0,0.0651
1779.0,0.0714
1778.0,0.077
1777.0,0.0825
1776.0,0.0881
1775.0,0.0933
1774.0,0.0989
1773.0,0.1067
1772.0,0.1164
1771.0,0.125
1770.0,0.1326
1769.0,0.1417
1768.0,0.1531
1767.0,0.1652
1766.0,0.1768
1765.0,0.1888
1764.0,0.2033
1763.0,0.2229
1762.0,0.2477
1761.0,0.2732
1760.0,0.2949
1759.0,0.3131
1758.0,0.3314
1757.0,0.3508
1756.0,0.3667
1755.0,0.3756
1754.0,0.3799
1753.0,0.383
1752.0,0.386
1751.0,0.3873
1750.0,0.3865
1749.0,0.3834
1748.0,0.3768
1747.0,0.3662
1746.0,0.3528
1745.0,0.3371
1744.0,0.3188
1743.0,0.2993
1742.0,0.28
1741.0,0.2598
1740.0,0.2376
1739.0,0.217
1738.0,0.2016
1737.0,0.1898
1736.0,0.1773
1735.0,0.1609
1734.0,0.1437
1733.0,0.1318
1732.0,0.1239
1731.0,0.1172
1730.0,0.1109
1729.0,0.1051
1728.0,0.1001
1727.0,0.0959
1726.0,0.0925
1725.0,0.0892
1724.0,0.086
1723.0,0.083
1722.0,0.0806
1721.0,0.0783
1720.0,0.0757
1719.0,0.0727
1718.0,0.07
1717.0,0.0676
1716.0,0.065
1715.0,0.0625
1714.0,0.0602
1713.0,0.0579
1712.0,0.0554
1711.0,0.053
1710.0,0.0508
1709.0,0.0489
1708.0,0.0469
1707.0,0.0449
1706.0,0.043
1705.0,0.0415
1704.0,0.0401
1703.0,0.039
1702.0,0.038
1701.0,0.0368
1700.0,0.0354
1699.0,0.0341
1698.0,0.0333
1697.0,0.0325
1696.0,0.0314
1695.0,0.0304
1694.0,0.0298
1693.0,0.0292
1692.0,0.0285
1691.0,0.0277
1690.0,0.0271
1689.0,0.0265
1688.0,0.0259
1687.0,0.0253
1686.0,0.0247
1685.0,0.0243
1684.0,0.0239
1683.0,0.0235
1682.0,0.0233
1681.0,0.0229
1680.0,0.0225
1679.0,0.0221
1678.0,0.0217
1677.0,0.0214
1676.0,0.021
1675.0,0.0206
1674.0,0.0204
1673.0,0.0201
1672.0,0.0198
1671.0,0.0194
1670.0,0.0192
1669.0,0.019
1668.0,0.0187
1667.0,0.0184
1666.0,0.0182
1665.0,0.0179
1664.0,0.0175
1663.0,0.0173
1662.0,0.0172
1661.0,0.0171
1660.0,0.0168
1659.0,0.0164
1658.0,0.0161
1657.0,0.0158
1656.0,0.0155
1655.0,0.0153
1654.0,0.0153
1653.0,0.0153
1652.0,0.0149
1651.0,0.0147
1650.0,0.0146
1649.0,0.0144
1648.0,0.0141
1647.0,0.014
1646.0,0.014
1645.0,0.0139
1644.0,0.0137
1643.0,0.0135
1642.0,0.0133
1641.0,0.0132
1640.0,0.013
1639.0,0.0129
1638.0,0.0128
1637.0,0.0128
1636.0,0.0128
1635.0,0.0127
1634.0,0.0126
1633.0,0.0126
1632.0,0.0124
1631.0,0.0122
1630.0,0.012
1629.0,0.0119
1628.0,0.0118
1627.0,0.0117
1626.0,0.0117
1625.0,0.0116
1624.0,0.0114
1623.0,0.0113
1622.0,0.0112
1621.0,0.0111
1620.0,0.0109
1619.0,0.0107
1618.0,0.0106
1617.0,0.0104
1616.0,0.0103
1615.0,0.0101
1614.0,0.01
1613.0,0.0097
1612.0,0.0095
1611.0,0.0092
1610.0,0.009
1609.0,0.0089
1608.0,0.0087
1607.0,0.0085
1606.0,0.0083
1605.0,0.0081
1604.0,0.0078
1603.0,0.0076
1602.0,0.0075
1601.0,0.0074
1600.0,0.0072
1599.0,0.007
1598.0,0.0068
1597.0,0.0066
1596.0,0.0064
1595.0,0.0062
1594.0,0.0061
1593.0,0.0059
1592.0,0.0058
1591.0,0.0056
1590.0,0.0055
1589.0,0.0054
1588.0,0.0052
1587.0,0.005
1586.0,0.0049
1585.0,0.0048
1584.0,0.0046
1583.0,0.0045
1582.0,0.0043
1581.0,0.0042
1580.0,0.0041
1579.0,0.0039
1578.0,0.0038
1577.0,0.0036
1576.0,0.0034
1575.0,0.0034
1574.0,0.0034
1573.0,0.0034
1572.0,0.0033
1571.0,0.0031
1570.0,0.0029
1569.0,0.0029
1568.0,0.0028
1567.0,0.0027
1566.0,0.0027
1565.0,0.0025
1564.0,0.0024
1563.0,0.0023
1562.0,0.0023
1561.0,0.0022
1560.0,0.0022
1559.0,0.0022
1558.0,0.0021
1557.0,0.0021
1556.0,0.0022
1555.0,0.0021
1554.0,0.002
1553.0,0.0019
1552.0,0.0019
1551.0,0.0018
1550.0,0.0018
1549.0,0.0017
1548.0,0.0017
1547.0,0.0017
1546.0,0.0016
1545.0,0.0015
1544.0,0.0014
1543.0,0.0013
1542.0,0.0012
1541.0,0.0012
1540.0,0.0012
1539.0,0.001
1538.0,0.001
1537.0,0.0011
1536.0,0.0011
1535.0,0.001
1534.0,0.0009
1533.0,0.0009
1532.0,0.0009
1531.0,0.0009
1530.0,0.0009
1529.0,0.0009
1528.0,0.0009
1527.0,0.0008
1526.0,0.0008
1525.0,0.0009
1524.0,0.0009
1523.0,0.0008
1522.0,0.0007
1521.0,0.0007
1520.0,0.0007
1519.0,0.0006
1518.0,0.0006
1517.0,0.0006
1516.0,0.0006
1515.0,0.0005
1514.0,0.0005
1513.0,0.0005
1512.0,0.0004
1511.0,0.0003
1510.0,0.0002
1509.0,0.0002
1508.0,0.0002
1507.0,0.0002
1506.0,-0.0
1505.0,-0.0001
1504.0,-0.0001
1503.0,-0.0001
1502.0,-0.0001
1501.0,-0.0001
1500.0,-0.0001
1499.0,-0.0002
1498.0,-0.0003
1497.0,-0.0004
1496.0,-0.0003
1495.0,-0.0003
1494.0,-0.0003
1493.0,-0.0002
1492.0,-0.0002
1491.0,-0.0003
1490.0,-0.0004
1489.0,-0.0003
1488.0,-0.0002
1487.0,-0.0001
1486.0,-0.0001
1485.0,0.0001
1484.0,0.0003
1483.0,0.0004
1482.0,0.0006
1481.0,0.001
1480.0,0.0014
1479.0,0.0018
1478.0,0.0022
1477.0,0.0029
1476.0,0.0037
1475.0,0.0046
1474.0,0.0059
1473.0,0.0083
1472.0,0.0112
1471.0,0.0138
1470.0,0.0164
1469.0,0.0194
1468.0,0.0228
1467.0,0.0271
1466.0,0.033
1465.0,0.0408
1464.0,0.049
1463.0,0.0558
1462.0,0.0616
1461.0,0.0671
1460.0,0.0727
1459.0,0.0789
1458.0,0.0869
1457.0,0.0954
1456.0,0.1002
1455.0,0.1017
1454.0,0.1022
1453.0,0.1022
1452.0,0.1018
1451.0,0.1008
1450.0,0.0993
1449.0,0.0972
1448.0,0.0939
1447.0,0.0897
1446.0,0.0852
1445.0,0.0801
1444.0,0.0741
1443.0,0.0674
1442.0,0.0605
1441.0,0.054
1440.0,0.0481
1439.0,0.0428
1438.0,0.0375
1437.0,0.0317
1436.0,0.0266
1435.0,0.0233
1434.0,0.0211
1433.0,0.0192
1432.0,0.0174
1431.0,0.0156
1430.0,0.0142
1429.0,0.0129
1428.0,0.0118
1427.0,0.0109
1426.0,0.0102
1425.0,0.0094
1424.0,0.0086
1423.0,0.008
1422.0,0.0077
1421.0,0.0073
1420.0,0.0068
1419.0,0.0064
1418.0,0.0061
1417.0,0.0058
1416.0,0.0055
1415.0,0.0054
1414.0,0.0053
1413.0,0.0051
1412.0,0.005
1411.0,0.005
1410.0,0.005
1409.0,0.005
1408.0,0.0051
1407.0,0.0053
1406.0,0.0057
1405.0,0.0061
1404.0,0.0066
1403.0,0.0073
1402.0,0.0082
1401.0,0.0092
1400.0,0.0107
1399.0,0.0129
1398.0,0.0153
1397.0,0.0181
1396.0,0.0217
1395.0,0.0265
1394.0,0.0319
1393.0,0.037
1392.0,0.042
1391.0,0.0473
1390.0,0.0531
1389.0,0.0595
1388.0,0.0668
1387.0,0.074
1386.0,0.0794
1385.0,0.0827
1384.0,0.0846
1383.0,0.0853
1382.0,0.0845
1381.0,0.0821
1380.0,0.0782
1379.0,0.0734
1378.0,0.0684
1377.0,0.0641
1376.0,0.0613
1375.0,0.0604
1374.0,0.0618
1373.0,0.0648
1372.0,0.0684
1371.0,0.0719
1370.0,0.0751
1369.0,0.0778
1368.0,0.0799
1367.0,0.0815
1366.0,0.0829
1365.0,0.0844
1364.0,0.0866
1363.0,0.0894
1362.0,0.0922
1361.0,0.0945
1360.0,0.0959
1359.0,0.0964
1358.0,0.0961
1357.0,0.0949
1356.0,0.0927
1355.0,0.0896
1354.0,0.086
1353.0,0.0821
1352.0,0.0781
1351.0,0.074
1350.0,0.0699
1349.0,0.066
1348.0,0.0624
1347.0,0.059
1346.0,0.0559
1345.0,0.0531
1344.0,0.0506
1343.0,0.0483
1342.0,0.0462
1341.0,0.0442
1340.0,0.0423
1339.0,0.0405
1338.0,0.0391
1337.0,0.0379
1336.0,0.0367
1335.0,0.0356
1334.0,0.0346
1333.0,0.0337
1332.0,0.0329
1331.0,0.0321
1330.0,0.0316
1329.0,0.0311
1328.0,0.0306
1327.0,0.0303
1326.0,0.0301
1325.0,0.03
1324.0,0.0299
1323.0,0.0298
1322.0,0.0297
1321.0,0.0297
1320.0,0.0296
1319.0,0.0296
1318.0,0.0296
1317.0,0.0297
1316.0,0.0298
1315.0,0.0299
1314.0,0.0301
1313.0,0.0304
1312.0,0.0308
1311.0,0.0313
1310.0,0.0318
1309.0,0.0323
1308.0,0.0329
1307.0,0.0333
1306.0,0.0336
1305.0,0.0338
1304.0,0.0337
1303.0,0.0336
1302.0,0.0333
1301.0,0.033
1300.0,0.0327
1299.0,0.0323
1298.0,0.0319
1297.0,0.0315
1296.0,0.031
1295.0,0.0303
1294.0,0.0295
1293.0,0.0286
1292.0,0.0275
1291.0,0.0266
1290.0,0.0259
1289.0,0.0256
1288.0,0.0259
1287.0,0.0266
1286.0,0.0279
1285.0,0.0297
1284.0,0.0318
1283.0,0.0343
1282.0,0.0369
1281.0,0.0398
1280.0,0.0426
1279.0,0.0455
1278.0,0.0482
1277.0,0.0508
1276.0,0.0532
1275.0,0.0554
1274.0,0.0574
1273.0,0.0591
1272.0,0.0606
1271.0,0.0617
1270.0,0.0626
1269.0,0.0632
1268.0,0.0634
1267.0,0.0634
1266.0,0.0632
1265.0,0.0628
1264.0,0.0621
1263.0,0.0613
1262.0,0.0604
1261.0,0.0593
1260.0,0.0582
1259.0,0.0571
1258.0,0.0559
1257.0,0.0548
1256.0,0.0538
1255.0,0.0528
1254.0,0.0519
1253.0,0.0512
1252.0,0.0506
1251.0,0.0501
1250.0,0.0497
1249.0,0.0495
1248.0,0.0494
1247.0,0.0493
1246.0,0.0494
1245.0,0.0496
1244.0,0.0499
1243.0,0.0504
1242.0,0.0509
1241.0,0.0516
1240.0,0.0524
1239.0,0.0533
1238.0,0.0543
1237.0,0.0555
1236.0,0.0569
1235.0,0.0585
1234.0,0.0603
1233.0,0.0625
1232.0,0.065
1231.0,0.0679
1230.0,0.0712
1229.0,0.0751
1228.0,0.0795
1227.0,0.0844
1226.0,0.0897
1225.0,0.0956
1224.0,0.1019
1223.0,0.1086
1222.0,0.1156
1221.0,0.123
1220.0,0.1307
1219.0,0.1387
1218.0,0.1468
1217.0,0.1552
1216.0,0.1635
1215.0,0.1713
1214.0,0.1784
1213.0,0.1845
1212.0,0.1894
1211.0,0.1928
1210.0,0.1947
1209.0,0.1955
1208.0,0.1955
1207.0,0.1951
1206.0,0.1946
1205.0,0.1945
1204.0,0.1949
1203.0,0.196
1202.0,0.1978
1201.0,0.2004
1200.0,0.2038
1199.0,0.2079
1198.0,0.2127
1197.0,0.2183
1196.0,0.2249
1195.0,0.2323
1194.0,0.2407
1193.0,0.2504
1192.0,0.2615
1191.0,0.274
1190.0,0.2879
1189.0,0.3037
1188.0,0.3213
1187.0,0.3404
1186.0,0.3606
1185.0,0.3812
1184.0,0.4011
1183.0,0.418
1182.0,0.4297
1181.0,0.4342
1180.0,0.4296
1179.0,0.4151
1178.0,0.3919
1177.0,0.3629
1176.0,0.3309
1175.0,0.2983
1174.0,0.267
1173.0,0.2387
1172.0,0.2136
1171.0,0.1915
1170.0,0.1724
1169.0,0.156
1168.0,0.1422
1167.0,0.1304
1166.0,0.1203
1165.0,0.1118
1164.0,0.1045
1163.0,0.0982
1162.0,0.0927
1161.0,0.0879
1160.0,0.0838
1159.0,0.0802
1158.0,0.0772
1157.0,0.0747
1156.0,0.0726
1155.0,0.0711
1154.0,0.0701
1153.0,0.0697
1152.0,0.07
1151.0,0.0712
1150.0,0.0733
1149.0,0.0764
1148.0,0.0808
1147.0,0.0866
1146.0,0.0939
1145.0,0.1028
1144.0,0.1131
1143.0,0.1248
1142.0,0.1375
1141.0,0.1513
1140.0,0.1659
1139.0,0.1813
1138.0,0.1969
1137.0,0.2128
1136.0,0.2283
1135.0,0.2428
1134.0,0.2558
1133.0,0.2672
1132.0,0.2765
1131.0,0.2836
1130.0,0.288
1129.0,0.2899
1128.0,0.2889
1127.0,0.2849
1126.0,0.2781
1125.0,0.2693
1124.0,0.2592
1123.0,0.2485
1122.0,0.238
1121.0,0.2285
1120.0,0.2203
1119.0,0.2133
1118.0,0.2078
1117.0,0.204
1116.0,0.2018
1115.0,0.2014
1114.0,0.2026
1113.0,0.2058
1112.0,0.2107
1111.0,0.2171
1110.0,0.2249
1109.0,0.2339
1108.0,0.2439
1107.0,0.2547
1106.0,0.266
1105.0,0.278
1104.0,0.2905
1103.0,0.3032
1102.0,0.3162
1101.0,0.3296
1100.0,0.3435
1099.0,0.3576
1098.0,0.3718
1097.0,0.3865
1096.0,0.4016
1095.0,0.417
1094.0,0.4325
1093.0,0.4487
1092.0,0.4653
1091.0,0.4818
1090.0,0.4978
1089.0,0.5136
1088.0,0.5287
1087.0,0.5419
1086.0,0.5526
1085.0,0.5608
1084.0,0.566
1083.0,0.5669
1082.0,0.5636
1081.0,0.5568
1080.0,0.5469
1079.0,0.5338
1078.0,0.5179
1077.0,0.5002
1076.0,0.4812
1075.0,0.4605
1074.0,0.4387
1073.0,0.4167
1072.0,0.3949
1071.0,0.3733
1070.0,0.3521
1069.0,0.3321
1068.0,0.3136
1067.0,0.2963
1066.0,0.2807
1065.0,0.2671
1064.0,0.2558
1063.0,0.2465
1062.0,0.2394
1061.0,0.2346
1060.0,0.2319
1059.0,0.2308
1058.0,0.2312
1057.0,0.2329
1056.0,0.2357
1055.0,0.2392
1054.0,0.2431
1053.0,0.2475
1052.0,0.2524
1051.0,0.2576
1050.0,0.2633
1049.0,0.2695
1048.0,0.276
1047.0,0.282
1046.0,0.287
1045.0,0.2907
1044.0,0.2927
1043.0,0.2926
1042.0,0.2903
1041.0,0.2861
1040.0,0.2802
1039.0,0.2725
1038.0,0.2634
1037.0,0.2535
1036.0,0.2434
1035.0,0.2333
1034.0,0.2235
1033.0,0.2146
1032.0,0.2065
1031.0,0.1994
1030.0,0.1931
1029.0,0.1875
1028.0,0.1826
1027.0,0.1781
1026.0,0.1736
1025.0,0.1693
1024.0,0.1648
1023.0,0.1601
1022.0,0.1552
1021.0,0.1503
1020.0,0.1453
1019.0,0.1402
1018.0,0.1353
1017.0,0.1306
1016.0,0.1261
1015.0,0.1218
1014.0,0.1177
1013.0,0.114
1012.0,0.1104
1011.0,0.1071
1010.0,0.1041
1009.0,0.1014
1008.0,0.0989
1007.0,0.0966
1006.0,0.0945
1005.0,0.0925
1004.0,0.0906
1003.0,0.0888
1002.0,0.0871
1001.0,0.0856
1000.0,0.0842
999.0,0.0828
998.0,0.0816
997.0,0.0804
996.0,0.0793
995.0,0.0782
994.0,0.0771
993.0,0.076
992.0,0.075
991.0,0.0741
990.0,0.0732
989.0,0.0724
988.0,0.0715
987.0,0.0706
986.0,0.0698
985.0,0.0689
984.0,0.0682
983.0,0.0675
982.0,0.0668
981.0,0.066
980.0,0.0653
979.0,0.0645
978.0,0.0637
977.0,0.0629
976.0,0.0621
975.0,0.0614
974.0,0.0608
973.0,0.0602
972.0,0.0597
971.0,0.0592
970.0,0.0587
969.0,0.0582
968.0,0.0579
967.0,0.0576
966.0,0.0575
965.0,0.0576
964.0,0.0581
963.0,0.0588
962.0,0.06
961.0,0.0614
960.0,0.0628
959.0,0.0641
958.0,0.0651
957.0,0.0657
956.0,0.0659
955.0,0.0656
954.0,0.065
953.0,0.0641
952.0,0.0632
951.0,0.0622
950.0,0.0612
949.0,0.0602
948.0,0.0593
947.0,0.0586
946.0,0.0579
945.0,0.0572
944.0,0.0566
943.0,0.0561
942.0,0.0556
941.0,0.0551
940.0,0.0548
939.0,0.0545
938.0,0.0542
937.0,0.054
936.0,0.0537
935.0,0.0536
934.0,0.0535
933.0,0.0535
932.0,0.0537
931.0,0.054
930.0,0.0544
929.0,0.0548
928.0,0.0554
927.0,0.0558
926.0,0.0563
925.0,0.0567
924.0,0.0571
923.0,0.0575
922.0,0.0578
921.0,0.0581
920.0,0.0581
919.0,0.0579
918.0,0.0577
917.0,0.0573
916.0,0.0568
915.0,0.0563
914.0,0.0556
913.0,0.0551
912.0,0.0545
911.0,0.054
910.0,0.0536
909.0,0.0532
908.0,0.0529
907.0,0.0526
906.0,0.0524
905.0,0.0522
904.0,0.0521
903.0,0.0519
902.0,0.0517
901.0,0.0516
900.0,0.0515
899.0,0.0513
898.0,0.0512
897.0,0.0511
896.0,0.0509
895.0,0.0508
894.0,0.0505
893.0,0.0502
892.0,0.0497
891.0,0.0492
890.0,0.0486
889.0,0.048
888.0,0.0473
887.0,0.0468
886.0,0.0466
885.0,0.047
884.0,0.0478
883.0,0.0492
882.0,0.0512
881.0,0.0539
880.0,0.0574
879.0,0.0615
878.0,0.0663
877.0,0.0716
876.0,0.0773
875.0,0.0829
874.0,0.0882
873.0,0.0927
872.0,0.096
871.0,0.0978
870.0,0.0983
869.0,0.0977
868.0,0.0965
867.0,0.0948
866.0,0.0927
865.0,0.0905
864.0,0.0882
863.0,0.0858
862.0,0.0831
861.0,0.0802
860.0,0.0769
859.0,0.0733
858.0,0.0695
857.0,0.0659
856.0,0.0625
855.0,0.0595
854.0,0.0569
853.0,0.0549
852.0,0.0534
851.0,0.0524
850.0,0.0517
849.0,0.0513
848.0,0.0508
847.0,0.0501
846.0,0.0492
845.0,0.048
844.0,0.0467
843.0,0.0453
842.0,0.0441
841.0,0.043
840.0,0.042
839.0,0.0411
838.0,0.0404
837.0,0.0398
836.0,0.0393
835.0,0.0387
834.0,0.0381
833.0,0.0374
832.0,0.0369
831.0,0.0365
830.0,0.0362
829.0,0.0359
828.0,0.0357
827.0,0.0354
826.0,0.0351
825.0,0.0348
824.0,0.0346
823.0,0.0344
822.0,0.0341
821.0,0.0339
820.0,0.0336
819.0,0.0335
818.0,0.0334
817.0,0.0332
816.0,0.0329
815.0,0.0326
814.0,0.0324
813.0,0.0324
812.0,0.0323
811.0,0.0321
810.0,0.032
809.0,0.0319
808.0,0.0319
807.0,0.0317
806.0,0.0315
805.0,0.0312
804.0,0.0309
803.0,0.0307
802.0,0.0307
801.0,0.0306
800.0,0.0305
799.0,0.0304
798.0,0.0302
797.0,0.0302
796.0,0.0302
795.0,0.0303
794.0,0.0305
793.0,0.0308
792.0,0.0311
791.0,0.0314
790.0,0.0317
789.0,0.0322
788.0,0.0326
787.0,0.0331
786.0,0.0336
785.0,0.0342
784.0,0.035
783.0,0.0358
782.0,0.0367
781.0,0.0375
780.0,0.0384
779.0,0.0393
778.0,0.0402
777.0,0.0412
776.0,0.0422
775.0,0.0434
774.0,0.0446
773.0,0.0458
772.0,0.0471
771.0,0.0487
770.0,0.0506
769.0,0.0528
768.0,0.0552
767.0,0.0577
766.0,0.0604
765.0,0.0636
764.0,0.0673
763.0,0.0715
762.0,0.0762
761.0,0.0814
760.0,0.0869
759.0,0.0923
758.0,0.0971
757.0,0.1007
756.0,0.1027
755.0,0.1029
754.0,0.1017
753.0,0.0994
752.0,0.0964
751.0,0.0932
750.0,0.0901
749.0,0.0872
748.0,0.0848
747.0,0.0828
746.0,0.0813
745.0,0.0801
744.0,0.079
743.0,0.0779
742.0,0.0767
741.0,0.0756
740.0,0.0746
739.0,0.0736
738.0,0.0723
737.0,0.0705
736.0,0.0684
735.0,0.0658
734.0,0.0628
733.0,0.0596
732.0,0.0562
731.0,0.0532
730.0,0.0506
729.0,0.0489
728.0,0.0479
727.0,0.0476
726.0,0.0477
725.0,0.0483
724.0,0.049
723.0,0.05
722.0,0.0513
721.0,0.0531
720.0,0.0556
719.0,0.0583
718.0,0.0608
717.0,0.0631
716.0,0.0652
715.0,0.0671
714.0,0.0688
713.0,0.0701
712.0,0.0712
711.0,0.0721
710.0,0.0729
709.0,0.0736
708.0,0.0742
707.0,0.0745
706.0,0.0746
705.0,0.0747
704.0,0.0748
703.0,0.075
702.0,0.0754
701.0,0.0761
700.0,0.0769
699.0,0.0776
698.0,0.0777
697.0,0.0774
696.0,0.0767
695.0,0.0762
694.0,0.0762
693.0,0.0767
692.0,0.0771
691.0,0.0769
690.0,0.0763
689.0,0.0757
688.0,0.0752
687.0,0.0747
686.0,0.0743
685.0,0.074
684.0,0.0739
683.0,0.0734
682.0,0.0724
681.0,0.0712
680.0,0.0702
679.0,0.0693
678.0,0.0684
677.0,0.0673
676.0,0.0659
675.0,0.0647
674.0,0.0637
673.0,0.063
672.0,0.0623
671.0,0.0619
670.0,0.0626
669.0,0.0652
668.0,0.0696
667.0,0.072
666.0,0.07
665.0,0.0662
664.0,0.0635
663.0,0.0621
662.0,0.0614
661.0,0.0609
660.0,0.0604
659.0,0.0597
658.0,0.0585
657.0,0.0574
656.0,0.0566
655.0,0.0563
654.0,0.0563
653.0,0.0559
652.0,0.0551
651.0,0.0541
650.0,0.0532
649.0,0.0529
648.0,0.0532
647.0,0.0536
646.0,0.0537
645.0,0.0533
644.0,0.0529
643.0,0.0524
642.0,0.0519
641.0,0.0515
640.0,0.0514
639.0,0.0517
638.0,0.0523
637.0,0.0529
636.0,0.0538
635.0,0.055
634.0,0.0558
633.0,0.0554
632.0,0.0541
631.0,0.0524
630.0,0.051
629.0,0.05
628.0,0.0493
627.0,0.0491
626.0,0.0492
625.0,0.0495
624.0,0.0496
623.0,0.0495
622.0,0.0489
621.0,0.048
620.0,0.0468
619.0,0.0457
618.0,0.0448
617.0,0.0441
616.0,0.0439
615.0,0.0439
614.0,0.0442
613.0,0.0448
612.0,0.0456
611.0,0.0464
610.0,0.0466
609.0,0.0459
608.0,0.0447
607.0,0.0437
606.0,0.043
605.0,0.0425
604.0,0.0426
603.0,0.043
602.0,0.0434
601.0,0.0431
600.0,0.0421
