nm,Intensity
526.553,836.76
526.69,835.64
526.827,836.14
526.963,835.62
527.1,835.52
527.237,836.18
527.373,835.94
527.51,835.88
527.647,835.7
527.784,835.14
527.92,836.28
528.057,836.06
528.194,835.98
528.33,836.06
528.467,836.34
528.603,835.66
528.74,836.04
528.877,835.28
529.013,836.04
529.15,836.06
529.286,835.82
529.423,835.16
529.56,835.9
529.696,836.34
529.833,835.62
529.969,835.24
530.106,835.66
530.242,836.04
530.379,836.16
530.515,835.66
530.652,835.64
530.788,835.7
530.925,835.74
531.061,835.62
531.198,835.66
531.334,835.74
531.47,836.1
531.607,835.44
531.743,835.7
531.88,836.34
532.016,845.98
532.152,879.02
532.289,868.22
532.425,840.0
532.562,836.12
532.698,836.2
532.834,835.66
532.971,835.54
533.107,836.56
533.243,835.84
533.38,835.82
533.516,835.66
533.652,838.6
533.789,865.44
533.925,957.32
534.061,1062.64
534.197,1100.4
534.334,1101.54
534.47,1098.98
534.606,1104.06
534.742,1105.58
534.879,1101.76
535.015,1097.32
535.151,1095.72
535.287,1095.58
535.423,1101.6
535.56,1102.56
535.696,1104.36
535.832,1105.92
535.968,1105.58
536.104,1108.64
536.24,1105.82
536.376,1107.24
536.513,1107.32
536.649,1106.64
536.785,1108.9
536.921,1104.76
537.057,1111.14
537.193,1107.3
537.329,1111.24
537.465,1112.96
537.601,1110.92
537.737,1113.3
537.873,1115.24
538.009,1117.82
538.145,1117.52
538.281,1121.2
538.417,1121.98
538.553,1125.0
538.689,1121.2
538.825,1121.6
538.961,1121.64
539.097,1122.26
539.233,1125.18
539.369,1125.62
539.505,1125.82
539.641,1128.18
539.777,1131.28
539.913,1130.66
540.049,1131.64
540.185,1131.54
540.321,1135.06
540.457,1133.74
540.592,1134.68
540.728,1136.14
540.864,1138.06
541.0,1139.06
541.136,1142.06
541.272,1142.24
541.408,1143.02
541.543,1142.86
541.679,1145.52
541.815,1148.98
541.951,1150.38
542.087,1154.2
542.222,1153.52
542.358,1152.14
542.494,1156.52
542.63,1154.58
542.765,1156.38
542.901,1162.1
543.037,1164.38
543.173,1163.64
543.308,1167.58
543.444,1163.74
543.58,1167.3
543.715,1166.92
543.851,1172.52
543.987,1173.38
544.123,1175.3
544.258,1173.48
544.394,1176.5
544.529,1182.84
544.665,1183.86
544.801,1182.58
544.936,1183.68
545.072,1184.12
545.208,1185.86
545.343,1186.44
545.479,1186.72
545.614,1186.94
545.75,1191.96
545.886,1193.72
546.021,1198.06
546.157,1198.48
546.292,1194.06
546.428,1195.74
546.563,1195.6
546.699,1197.8
546.834,1201.96
546.97,1199.28
547.105,1200.46
547.241,1202.98
547.376,1202.48
547.512,1204.22
547.647,1202.98
547.783,1202.36
547.918,1204.9
548.054,1211.14
548.189,1210.26
548.325,1207.92
548.46,1210.22
548.595,1211.06
548.731,1214.46
548.866,1215.16
549.002,1220.58
549.137,1221.9
549.272,1220.38
549.408,1220.4
549.543,1222.9
549.679,1224.36
549.814,1224.76
549.949,1222.98
550.085,1224.26
550.22,1226.04
550.355,1226.44
550.491,1227.02
550.626,1229.62
550.761,1230.18
550.896,1229.5
551.032,1232.1
551.167,1233.92
551.302,1236.12
551.438,1236.34
551.573,1238.84
551.708,1242.02
551.843,1241.02
551.979,1244.32
552.114,1243.86
552.249,1248.08
552.384,1247.36
552.519,1244.6
552.655,1245.76
552.79,1246.68
552.925,1245.96
553.06,1245.64
553.195,1249.02
553.331,1251.46
553.466,1250.6
553.601,1252.34
553.736,1255.84
553.871,1258.74
554.006,1262.62
554.141,1262.14
554.276,1261.74
554.412,1256.12
554.547,1262.78
554.682,1261.36
554.817,1264.7
554.952,1265.22
555.087,1265.22
555.222,1261.24
555.357,1265.28
555.492,1266.92
555.627,1266.66
555.762,1265.72
555.897,1268.34
556.032,1269.78
556.167,1269.92
556.302,1274.34
556.437,1272.92
556.572,1273.14
556.707,1277.04
556.842,1280.12
556.977,1279.22
557.112,1283.36
557.247,1283.98
557.382,1281.0
557.517,1281.84
557.652,1282.58
557.787,1284.34
557.922,1284.16
558.057,1284.6
558.192,1280.42
558.327,1281.9
558.462,1283.78
558.596,1284.1
558.731,1280.36
558.866,1285.74
559.001,1283.98
559.136,1285.86
559.271,1287.5
559.406,1290.96
559.54,1291.92
559.675,1290.76
559.81,1293.8
559.945,1297.88
560.08,1302.48
560.215,1302.24
560.349,1303.8
560.484,1304.06
560.619,1301.1
560.754,1303.36
560.889,1302.06
561.023,1304.24
561.158,1304.4
561.293,1305.28
561.428,1306.6
561.562,1302.86
561.697,1306.1
561.832,1305.2
561.966,1307.1
562.101,1309.9
562.236,1310.56
562.371,1313.44
562.505,1312.58
562.64,1315.92
562.775,1318.4
562.909,1319.92
563.044,1322.2
563.179,1321.94
563.313,1326.38
563.448,1328.68
563.583,1333.28
563.717,1333.76
563.852,1335.14
563.986,1335.84
564.121,1338.28
564.256,1340.92
564.39,1340.48
564.525,1340.94
564.659,1342.12
564.794,1343.64
564.929,1347.42
565.063,1348.54
565.198,1347.46
565.332,1348.56
565.467,1351.94
565.601,1349.36
565.736,1348.72
565.87,1350.98
566.005,1348.7
566.139,1353.18
566.274,1353.04
566.408,1353.18
566.543,1350.26
566.677,1351.68
566.812,1348.88
566.946,1353.18
567.081,1349.0
567.215,1352.74
567.35,1357.14
567.484,1359.42
567.619,1358.76
567.753,1358.12
567.888,1353.9
568.022,1356.64
568.156,1353.62
568.291,1359.48
568.425,1360.1
568.56,1364.96
568.694,1366.06
568.828,1366.16
568.963,1363.72
569.097,1366.24
569.231,1371.46
569.366,1371.38
569.5,1375.24
569.635,1376.02
569.769,1375.08
569.903,1375.6
570.038,1378.28
570.172,1380.18
570.306,1379.1
570.441,1378.04
570.575,1381.32
570.709,1381.48
570.843,1379.06
570.978,1378.46
571.112,1382.12
571.246,1384.68
571.38,1382.64
571.515,1384.7
571.649,1385.48
571.783,1383.62
571.917,1388.88
572.052,1390.82
572.186,1392.66
572.32,1392.6
572.454,1391.06
572.589,1397.92
572.723,1395.86
572.857,1400.02
572.991,1402.26
573.125,1398.98
573.26,1400.14
573.394,1404.02
573.528,1401.56
573.662,1405.58
573.796,1404.24
573.93,1403.34
574.064,1409.66
574.199,1406.64
574.333,1411.1
574.467,1407.5
574.601,1405.76
574.735,1410.24
574.869,1408.8
575.003,1407.2
575.137,1407.3
575.271,1415.5
575.406,1410.66
575.54,1414.22
575.674,1415.0
575.808,1416.46
575.942,1419.56
576.076,1420.88
576.21,1424.2
576.344,1426.12
576.478,1428.92
576.612,1428.14
576.746,1422.56
576.88,1428.38
577.014,1427.34
577.148,1426.86
577.282,1428.98
577.416,1431.82
577.55,1430.34
577.684,1432.6
577.818,1427.96
577.952,1427.48
578.086,1431.48
578.22,1432.12
578.354,1433.62
578.488,1437.28
578.622,1434.02
578.756,1436.86
578.89,1434.34
579.023,1438.14
579.157,1442.08
579.291,1440.62
579.425,1444.84
579.559,1444.48
579.693,1441.44
579.827,1446.22
579.961,1448.54
580.095,1446.88
580.228,1452.2
580.362,1446.12
580.496,1447.98
580.63,1447.38
580.764,1446.8
580.898,1443.4
581.032,1447.36
581.165,1451.4
581.299,1455.1
581.433,1457.42
581.567,1464.18
581.701,1466.72
581.834,1477.64
581.968,1476.02
582.102,1470.22
582.236,1465.16
582.37,1463.48
582.503,1470.28
582.637,1474.24
582.771,1470.28
582.905,1466.56
583.038,1466.92
583.172,1467.84
583.306,1461.54
583.44,1458.86
583.573,1461.68
583.707,1466.06
583.841,1462.6
583.974,1464.32
584.108,1460.42
584.242,1459.94
584.375,1460.88
584.509,1464.68
584.643,1464.62
584.777,1463.12
584.91,1463.38
585.044,1464.4
585.177,1466.5
585.311,1464.82
585.445,1468.36
585.578,1469.78
585.712,1469.08
585.846,1469.3
585.979,1470.36
586.113,1469.88
586.247,1474.86
586.38,1479.0
586.514,1477.68
586.647,1476.4
586.781,1475.48
586.914,1479.7
587.048,1478.22
587.182,1480.98
587.315,1483.48
587.449,1482.1
587.582,1481.44
587.716,1481.44
587.849,1483.64
587.983,1483.6
588.116,1479.22
588.25,1480.78
588.384,1485.2
588.517,1479.24
588.651,1482.32
588.784,1476.48
588.918,1481.04
589.051,1478.38
589.185,1472.16
589.318,1479.42
589.452,1477.46
589.585,1478.72
589.718,1484.36
589.852,1482.5
589.985,1482.92
590.119,1482.52
590.252,1483.34
590.386,1480.36
590.519,1487.16
590.653,1489.8
590.786,1485.84
590.919,1483.08
591.053,1487.26
591.186,1487.94
591.32,1489.68
591.453,1489.36
591.586,1492.86
591.72,1489.06
591.853,1485.76
591.987,1489.9
592.12,1492.68
592.253,1488.62
592.387,1489.38
592.52,1489.42
592.653,1491.88
592.787,1494.32
592.92,1489.0
593.053,1488.92
593.187,1491.32
593.32,1487.54
593.453,1487.68
593.587,1490.06
593.72,1492.46
593.853,1489.0
593.987,1493.82
594.12,1500.5
594.253,1494.98
594.386,1491.04
594.52,1494.78
594.653,1496.52
594.786,1493.68
594.919,1495.22
595.053,1497.52
595.186,1499.72
595.319,1502.3
595.452,1502.0
595.586,1505.82
595.719,1504.3
595.852,1503.38
595.985,1502.94
596.119,1500.98
596.252,1508.08
596.385,1499.7
596.518,1500.9
596.651,1507.02
596.785,1507.74
596.918,1511.42
597.051,1508.16
597.184,1502.22
597.317,1506.02
597.45,1508.56
597.584,1501.76
597.717,1508.08
597.85,1505.78
597.983,1509.52
598.116,1506.36
598.249,1513.48
598.382,1513.3
598.516,1520.16
598.649,1514.12
598.782,1516.0
598.915,1515.6
599.048,1519.26
599.181,1519.3
599.314,1516.88
599.447,1517.06
599.58,1516.18
599.713,1515.28
599.847,1514.7
599.98,1512.78
600.113,1520.08
600.246,1512.32
600.379,1508.88
600.512,1511.58
600.645,1508.34
600.778,1507.24
600.911,1508.6
601.044,1509.82
601.177,1508.08
601.31,1506.34
601.443,1506.02
601.576,1505.52
601.709,1503.06
601.842,1509.58
601.975,1509.1
602.108,1501.04
602.241,1509.76
602.374,1506.72
602.507,1509.44
602.64,1509.0
602.773,1508.3
602.906,1509.54
603.039,1510.02
603.172,1512.8
603.305,1508.64
603.438,1508.24
603.571,1508.34
603.703,1508.62
603.836,1507.26
603.969,1507.98
604.102,1506.62
604.235,1502.68
604.368,1503.66
604.501,1501.86
604.634,1501.06
604.767,1496.78
604.9,1499.24
605.033,1496.12
605.165,1495.66
605.298,1494.98
605.431,1486.46
605.564,1486.54
605.697,1489.72
605.83,1487.22
605.963,1483.32
606.095,1488.24
606.228,1478.48
606.361,1483.16
606.494,1484.84
606.627,1485.58
606.76,1481.66
606.892,1486.56
607.025,1483.36
607.158,1487.22
607.291,1489.68
607.424,1483.32
607.556,1485.22
607.689,1489.84
607.822,1491.16
607.955,1494.58
608.088,1496.76
608.22,1492.58
608.353,1496.52
608.486,1490.74
608.619,1494.5
608.751,1492.6
608.884,1497.76
609.017,1492.74
609.15,1496.5
609.282,1492.88
609.415,1492.9
609.548,1494.04
609.681,1493.06
609.813,1492.8
609.946,1494.02
610.079,1488.9
610.211,1489.88
610.344,1487.38
610.477,1491.12
610.609,1491.76
610.742,1495.5
610.875,1491.78
611.007,1491.58
611.14,1487.52
611.273,1491.9
611.405,1492.5
611.538,1496.44
611.671,1493.3
611.803,1497.38
611.936,1498.06
612.069,1499.88
612.201,1498.14
612.334,1502.12
612.467,1499.34
612.599,1504.78
612.732,1506.6
612.864,1505.96
612.997,1511.34
613.13,1509.32
613.262,1509.8
613.395,1516.8
613.527,1510.4
613.66,1516.82
613.793,1514.54
613.925,1517.38
614.058,1516.02
614.19,1514.5
614.323,1518.22
614.456,1518.0
614.588,1512.52
614.721,1519.36
614.853,1510.8
614.986,1515.78
615.118,1515.42
615.251,1511.84
615.383,1510.5
615.516,1513.54
615.648,1508.8
615.781,1509.92
615.913,1510.4
616.046,1508.74
616.178,1505.24
616.311,1509.62
616.443,1509.46
616.576,1510.76
616.708,1512.5
616.841,1511.92
616.973,1511.02
617.106,1508.46
617.238,1513.0
617.371,1514.04
617.503,1513.26
617.636,1516.78
617.768,1513.8
617.901,1512.96
618.033,1514.14
618.166,1516.48
618.298,1520.74
618.43,1516.44
618.563,1519.2
618.695,1517.14
618.828,1513.78
618.96,1512.66
619.093,1517.84
619.225,1510.54
619.357,1510.22
619.49,1508.56
619.622,1508.18
619.755,1510.98
619.887,1509.46
620.019,1507.7
620.152,1505.52
620.284,1506.12
620.417,1503.64
620.549,1500.52
620.681,1502.2
620.814,1506.02
620.946,1503.08
621.078,1504.12
621.211,1500.2
621.343,1508.26
621.475,1504.22
621.608,1508.92
621.74,1504.08
621.872,1507.06
622.005,1505.84
622.137,1507.4
622.269,1507.3
622.402,1508.72
622.534,1505.38
622.666,1509.88
622.799,1508.44
622.931,1510.14
623.063,1510.64
623.195,1511.0
623.328,1512.88
623.46,1514.18
623.592,1510.4
623.725,1512.18
623.857,1515.12
623.989,1513.4
624.121,1515.44
624.254,1516.64
624.386,1511.38
624.518,1513.42
624.65,1509.2
624.783,1513.5
624.915,1512.24
625.047,1515.66
625.179,1510.34
625.312,1517.0
625.444,1508.72
625.576,1514.38
625.708,1506.64
625.841,1507.04
625.973,1507.24
626.105,1508.0
626.237,1514.08
626.369,1509.42
626.502,1510.86
626.634,1511.58
626.766,1516.2
626.898,1517.58
627.03,1519.24
627.163,1526.7
627.295,1527.92
627.427,1532.5
627.559,1530.26
627.691,1529.32
627.823,1531.6
627.956,1527.08
628.088,1525.68
628.22,1526.84
628.352,1528.84
628.484,1532.64
628.616,1543.88
628.748,1540.74
628.881,1539.14
629.013,1542.12
629.145,1539.54
629.277,1543.14
629.409,1542.64
629.541,1544.76
629.673,1540.88
629.805,1546.9
629.937,1546.56
630.07,1541.68
630.202,1540.54
630.334,1542.14
630.466,1542.5
630.598,1537.8
630.73,1535.62
630.862,1533.48
630.994,1532.1
631.126,1525.98
631.258,1526.42
631.39,1525.12
631.522,1521.92
631.655,1517.56
631.787,1516.84
631.919,1515.62
632.051,1512.68
632.183,1511.58
632.315,1509.98
632.447,1506.28
632.579,1506.64
632.711,1499.56
632.843,1501.36
632.975,1502.34
633.107,1501.94
633.239,1501.26
633.371,1497.92
633.503,1496.44
633.635,1495.38
633.767,1496.64
633.899,1491.54
634.031,1497.2
634.163,1500.9
634.295,1497.26
634.427,1492.66
634.559,1492.96
634.691,1492.18
634.823,1493.42
634.955,1491.14
635.087,1492.8
635.219,1488.94
635.351,1495.58
635.483,1494.22
635.615,1495.16
635.747,1495.48
635.879,1492.08
636.011,1494.4
636.143,1493.6
636.275,1494.96
636.406,1493.08
636.538,1488.38
636.67,1492.36
636.802,1489.78
636.934,1490.78
637.066,1493.04
637.198,1487.08
637.33,1488.44
637.462,1487.94
637.594,1481.78
637.726,1487.04
637.858,1482.74
637.989,1487.04
638.121,1490.5
638.253,1484.64
638.385,1487.92
638.517,1487.08
638.649,1484.02
638.781,1478.48
638.913,1483.36
639.045,1479.06
639.176,1477.26
639.308,1479.04
639.44,1482.76
639.572,1482.88
639.704,1485.7
639.836,1481.22
639.968,1483.36
640.1,1480.86
640.231,1481.32
640.363,1480.16
640.495,1481.2
640.627,1481.64
640.759,1477.92
640.891,1480.64
641.022,1476.0
641.154,1477.92
641.286,1486.0
641.418,1477.02
641.55,1481.3
641.682,1474.38
641.813,1479.38
641.945,1473.94
642.077,1471.3
642.209,1476.42
642.341,1474.16
642.472,1472.94
642.604,1475.16
642.736,1468.56
642.868,1475.22
643.0,1466.44
643.131,1465.32
643.263,1469.32
643.395,1461.5
643.527,1459.88
643.658,1460.6
643.79,1460.84
643.922,1461.96
644.054,1456.9
644.186,1459.66
644.317,1463.96
644.449,1457.38
644.581,1459.64
644.713,1459.26
644.844,1456.56
644.976,1456.84
645.108,1452.66
645.24,1456.26
645.371,1454.54
645.503,1453.14
645.635,1454.56
645.767,1453.38
645.898,1451.9
646.03,1454.14
646.162,1454.96
646.293,1453.68
646.425,1451.0
646.557,1454.56
646.689,1452.42
646.82,1452.82
646.952,1456.78
647.084,1452.38
647.215,1457.26
647.347,1450.12
647.479,1453.54
647.61,1451.08
647.742,1451.54
647.874,1450.8
648.006,1453.86
648.137,1455.28
648.269,1452.42
648.401,1451.18
648.532,1448.0
648.664,1446.86
648.796,1442.0
648.927,1445.62
649.059,1441.52
649.191,1442.8
649.322,1444.74
649.454,1442.96
649.586,1438.7
649.717,1444.8
649.849,1438.12
649.981,1436.22
650.112,1434.5
650.244,1435.5
650.375,1434.86
650.507,1435.76
650.639,1434.22
650.77,1440.12
650.902,1432.3
651.034,1436.54
651.165,1433.26
651.297,1431.52
651.429,1432.42
651.56,1430.6
651.692,1430.8
651.823,1432.66
651.955,1431.96
652.087,1432.98
652.218,1433.92
652.35,1437.82
652.481,1435.86
652.613,1431.22
652.745,1436.58
652.876,1441.98
653.008,1435.74
653.139,1431.72
653.271,1437.62
653.403,1436.32
653.534,1432.76
653.666,1436.3
653.797,1433.78
653.929,1433.98
654.061,1437.42
654.192,1435.8
654.324,1436.4
654.455,1431.42
654.587,1436.4
654.718,1429.26
654.85,1433.8
654.982,1429.66
655.113,1430.36
655.245,1430.08
655.376,1429.82
655.508,1433.8
655.639,1431.26
655.771,1432.92
655.902,1431.58
656.034,1430.22
656.166,1426.46
656.297,1427.14
656.429,1429.38
656.56,1429.48
656.692,1429.34
656.823,1428.96
656.955,1427.72
657.086,1432.74
657.218,1432.14
657.349,1428.34
657.481,1432.26
657.612,1428.6
657.744,1429.16
657.875,1429.44
658.007,1429.44
658.138,1427.08
658.27,1426.7
658.401,1428.22
658.533,1429.62
658.664,1425.2
658.796,1427.4
658.927,1427.2
659.059,1428.28
659.19,1425.62
659.322,1430.96
659.453,1433.1
659.585,1426.3
659.716,1424.02
659.848,1426.08
659.979,1428.94
660.111,1425.14
660.242,1424.38
660.374,1423.82
660.505,1423.42
660.637,1423.98
660.768,1421.54
660.9,1420.12
661.031,1414.52
661.163,1416.92
661.294,1419.16
661.426,1418.02
661.557,1417.38
661.689,1416.72
661.82,1415.74
661.951,1419.94
662.083,1412.52
662.214,1408.16
662.346,1411.5
662.477,1410.62
662.609,1414.52
662.74,1416.14
662.872,1408.44
663.003,1409.74
663.135,1405.92
