nm,Intensity
528.626,1870.1
528.711,1870.2
528.795,1868.2
528.879,1868.9
528.963,1868.1
529.048,1869.8
529.132,1869.2
529.216,1870.5
529.3,1869.4
529.385,1869.9
529.469,1869.7
529.553,1867.6
529.637,1869.1
529.721,1868.3
529.806,1870.1
529.89,1871.0
529.974,1870.5
530.058,1868.3
530.143,1869.3
530.227,1868.6
530.311,1870.0
530.395,1869.0
530.48,1870.9
530.564,1870.4
530.648,1869.2
530.732,1869.8
530.816,1870.2
530.901,1871.6
530.985,1870.3
531.069,1870.8
531.153,1871.0
531.237,1872.9
531.322,1874.0
531.406,1871.2
531.49,1871.3
531.574,1878.6
531.658,1887.5
531.743,1933.1
531.827,2129.5
531.911,2616.8
531.995,3241.8
532.079,3480.5
532.164,3190.6
532.248,2622.1
532.332,2087.0
532.416,1894.4
532.5,1872.7
532.585,1870.7
532.669,1869.5
532.753,1870.1
532.837,1870.3
532.921,1869.8
533.006,1871.6
533.09,1871.7
533.174,1868.2
533.258,1871.4
533.342,1871.7
533.426,1874.7
533.511,1883.8
533.595,1902.5
533.679,1956.8
533.763,2021.9
533.847,2100.3
533.931,2141.1
534.016,2165.6
534.1,2169.4
534.184,2168.5
534.268,2164.3
534.352,2179.7
534.436,2168.3
534.521,2199.0
534.605,2219.8
534.689,2256.6
534.773,2313.5
534.857,2351.4
534.941,2392.0
535.025,2405.6
535.11,2405.1
535.194,2378.8
535.278,2318.2
535.362,2243.1
535.446,2177.2
535.53,2132.8
535.614,2090.1
535.699,2066.6
535.783,2048.1
535.867,2036.1
535.951,2014.8
536.035,2008.1
536.119,2007.9
536.203,2006.3
536.287,2007.7
536.372,2014.3
536.456,2022.0
536.54,2031.0
536.624,2051.3
536.708,2073.4
536.792,2115.8
536.876,2138.1
536.96,2146.7
537.044,2182.9
537.129,2182.4
537.213,2148.2
537.297,2112.4
537.381,2074.7
537.465,2055.9
537.549,2028.1
537.633,2025.6
537.717,2005.5
537.801,2012.2
537.885,1995.0
537.97,1993.8
538.054,1989.8
538.138,1994.1
538.222,1993.7
538.306,1990.7
538.39,1991.4
538.474,2000.9
538.558,1991.2
538.642,1981.4
538.726,1994.6
538.81,2006.8
538.894,2004.5
538.979,2014.9
539.063,2026.5
539.147,2039.6
539.231,2050.4
539.315,2052.8
539.399,2045.2
539.483,2039.7
539.567,2030.7
539.651,2005.1
539.735,1992.6
539.819,1980.8
539.903,1980.8
539.987,1967.1
540.071,1964.4
540.155,1966.7
540.239,1959.5
540.324,1962.9
540.408,1956.6
540.492,1960.4
540.576,1954.6
540.66,1957.5
540.744,1962.2
540.828,1972.2
540.912,1973.3
540.996,1985.9
541.08,1994.5
541.164,2010.4
541.248,2023.6
541.332,2026.9
541.416,2023.0
541.5,2017.1
541.584,1994.8
541.668,1980.2
541.752,1971.5
541.836,1968.7
541.92,1963.1
542.004,1954.7
542.088,1951.8
542.172,1953.5
542.256,1957.0
542.34,1951.1
542.424,1952.1
542.508,1947.3
542.592,1955.7
542.676,1948.8
542.76,1957.4
542.844,1957.8
542.928,1959.0
543.012,1971.0
543.096,1987.6
543.18,2002.5
543.264,2030.9
543.348,2101.7
543.432,2210.6
543.516,2330.6
543.6,2415.0
543.684,2393.5
543.768,2337.8
543.852,2226.6
543.936,2127.6
544.02,2078.5
544.104,2032.0
544.188,2016.9
544.272,1998.9
544.356,1984.8
544.44,1985.5
544.524,1980.4
544.608,1984.6
544.692,1990.5
544.776,1986.2
544.86,1988.9
544.944,2004.1
545.028,2014.4
545.112,2049.5
545.196,2072.1
545.28,2100.0
545.364,2100.8
545.448,2084.9
545.532,2063.6
545.616,2026.8
545.7,2000.3
545.784,1985.9
545.867,1970.6
545.951,1970.9
546.035,1964.0
546.119,1957.2
546.203,1951.5
546.287,1952.9
546.371,1953.8
546.455,1950.1
546.539,1948.7
546.623,1952.6
546.707,1957.9
546.791,1959.9
546.875,1964.0
546.959,1969.6
547.043,1979.7
547.127,1991.8
547.21,2011.0
547.294,2036.7
547.378,2054.1
547.462,2065.3
547.546,2064.4
547.63,2061.0
547.714,2038.3
547.798,2009.4
547.882,1986.2
547.966,1975.0
548.05,1967.5
548.134,1955.4
548.217,1953.3
548.301,1951.4
548.385,1949.9
548.469,1943.9
548.553,1945.6
548.637,1943.7
548.721,1937.0
548.805,1933.2
548.889,1936.0
548.972,1939.4
549.056,1931.5
549.14,1925.8
549.224,1926.7
549.308,1927.2
549.392,1924.6
549.476,1926.1
549.56,1924.6
549.644,1921.9
549.727,1926.6
549.811,1927.7
549.895,1925.7
549.979,1927.3
550.063,1926.8
550.147,1924.9
550.231,1928.9
550.315,1926.4
550.398,1923.3
550.482,1925.6
550.566,1923.3
550.65,1918.4
550.734,1918.6
550.818,1922.8
550.902,1927.6
550.985,1919.7
551.069,1925.3
551.153,1928.9
551.237,1922.9
551.321,1921.3
551.405,1927.8
551.488,1926.0
551.572,1925.3
551.656,1922.7
551.74,1928.0
551.824,1927.9
551.908,1927.3
551.991,1923.2
552.075,1926.4
552.159,1925.0
552.243,1923.8
552.327,1929.6
552.411,1927.6
552.494,1921.4
552.578,1929.6
552.662,1924.0
552.746,1927.3
552.83,1927.3
552.914,1929.2
552.997,1930.8
553.081,1925.6
553.165,1926.6
553.249,1933.3
553.333,1926.5
553.416,1925.4
553.5,1930.4
553.584,1930.7
553.668,1928.4
553.752,1928.0
553.835,1935.0
553.919,1930.9
554.003,1931.3
554.087,1935.1
554.171,1940.9
554.254,1936.4
554.338,1938.5
554.422,1947.4
554.506,1949.0
554.589,1951.0
554.673,1955.4
554.757,1962.4
554.841,1958.5
554.925,1968.4
555.008,1964.8
555.092,1969.2
555.176,1970.6
555.26,1975.6
555.343,1984.9
555.427,2000.7
555.511,2029.3
555.595,2056.9
555.679,2106.3
555.762,2202.5
555.846,2381.8
555.93,2593.6
556.014,2799.8
556.097,2834.2
556.181,2699.0
556.265,2493.1
556.349,2297.8
556.432,2201.6
556.516,2160.9
556.6,2185.4
556.684,2230.4
556.767,2295.3
556.851,2392.3
556.935,2520.2
557.018,2650.7
557.102,2676.3
557.186,2577.2
557.27,2402.3
557.353,2251.5
557.437,2143.3
557.521,2103.0
557.605,2068.7
557.688,2051.7
557.772,2024.7
557.856,2014.2
557.939,2002.6
558.023,2005.4
558.107,2003.5
558.191,1999.7
558.274,1991.1
558.358,1992.3
558.442,1994.2
558.525,1999.8
558.609,2011.8
558.693,2021.1
558.776,2046.6
558.86,2074.3
558.944,2081.4
559.028,2054.9
559.111,2020.8
559.195,2012.3
559.279,1993.4
559.362,1987.9
559.446,1975.3
559.53,1984.2
559.613,1980.7
559.697,1989.7
559.781,2003.5
559.864,2016.3
559.948,2029.7
560.032,2063.1
560.115,2092.6
560.199,2116.2
560.283,2109.2
560.366,2091.7
560.45,2061.8
560.534,2034.7
560.617,2024.5
560.701,2033.6
560.785,2057.1
560.868,2096.2
560.952,2168.0
561.036,2271.6
561.119,2385.0
561.203,2442.1
561.287,2387.0
561.37,2292.5
561.454,2167.5
561.538,2091.4
561.621,2065.4
561.705,2088.1
561.789,2139.6
561.872,2192.9
561.956,2234.1
562.039,2246.3
562.123,2197.7
562.207,2140.1
562.29,2087.0
562.374,2063.5
562.458,2056.3
562.541,2038.3
562.625,2040.5
562.708,2046.7
562.792,2072.3
562.876,2081.4
562.959,2107.2
563.043,2145.3
563.127,2175.0
563.21,2211.7
563.294,2216.8
563.377,2208.3
563.461,2190.0
563.545,2125.0
563.628,2093.6
563.712,2062.3
563.795,2043.3
563.879,2015.5
563.963,2001.7
564.046,1997.5
564.13,1999.5
564.213,1996.7
564.297,1993.0
564.38,1992.8
564.464,1994.9
564.548,1995.5
564.631,1990.1
564.715,1999.0
564.798,2004.4
564.882,2002.0
564.966,2014.0
565.049,2021.6
565.133,2021.2
565.216,2043.4
565.3,2056.8
565.383,2049.4
565.467,2051.2
565.551,2035.8
565.634,2022.9
565.718,2013.5
565.801,2014.9
565.885,2006.1
565.968,1999.9
566.052,2011.2
566.135,2006.4
566.219,2025.7
566.302,2037.8
566.386,2059.8
566.47,2089.6
566.553,2167.8
566.637,2259.6
566.72,2393.8
566.804,2503.1
566.887,2618.6
566.971,2645.5
567.054,2594.5
567.138,2547.2
567.221,2510.4
567.305,2515.2
567.388,2495.1
567.472,2470.1
567.555,2373.8
567.639,2264.7
567.722,2143.9
567.806,2080.7
567.889,2051.0
567.973,2027.0
568.057,2026.5
568.14,2024.6
568.224,2028.1
568.307,2039.2
568.391,2037.6
568.474,2048.1
568.558,2053.4
568.641,2070.4
568.725,2097.4
568.808,2133.5
568.892,2202.2
568.975,2231.4
569.058,2261.0
569.142,2270.3
569.225,2217.7
569.309,2147.7
569.392,2105.2
569.476,2067.2
569.559,2049.9
569.643,2036.8
569.726,2032.5
569.81,2039.8
569.893,2044.1
569.977,2064.0
570.06,2076.4
570.144,2086.3
570.227,2099.8
570.311,2093.2
570.394,2078.9
570.477,2052.8
570.561,2038.3
570.644,2028.7
570.728,2025.0
570.811,2040.1
570.895,2033.1
570.978,2023.0
571.062,2040.8
571.145,2041.1
571.229,2059.3
571.312,2078.5
571.395,2085.8
571.479,2111.2
571.562,2125.2
571.646,2138.3
571.729,2144.2
571.813,2153.7
571.896,2139.4
571.979,2128.1
572.063,2128.4
572.146,2157.3
572.23,2192.0
572.313,2268.1
572.397,2394.9
572.48,2545.4
572.563,2671.2
572.647,2753.7
572.73,2778.1
572.814,2661.1
572.897,2483.4
572.98,2320.3
573.064,2216.0
573.147,2171.3
573.231,2165.2
573.314,2176.2
573.397,2202.2
573.481,2247.4
573.564,2314.5
573.648,2344.6
573.731,2361.1
573.814,2315.9
573.898,2239.4
573.981,2182.2
574.064,2154.8
574.148,2150.4
574.231,2126.1
574.315,2107.3
574.398,2074.1
574.481,2039.9
574.565,2028.5
574.648,2019.3
574.731,2008.2
574.815,2010.6
574.898,2005.4
574.982,2004.9
575.065,1999.0
575.148,2007.1
575.232,2003.6
575.315,2003.1
575.398,2004.8
575.482,2005.2
575.565,2013.5
575.648,2025.3
575.732,2043.5
575.815,2059.5
575.898,2122.6
575.982,2197.8
576.065,2292.7
576.148,2373.4
576.232,2399.8
576.315,2400.6
576.398,2407.8
576.482,2427.6
576.565,2504.5
576.648,2658.8
576.732,2818.8
576.815,2948.5
576.898,3045.9
576.982,3098.2
577.065,3035.8
577.148,2788.2
577.232,2578.4
577.315,2409.8
577.398,2259.2
577.481,2162.4
577.565,2114.9
577.648,2083.9
577.731,2057.8
577.815,2051.4
577.898,2029.3
577.981,2033.5
578.065,2015.7
578.148,2022.4
578.231,2020.4
578.314,2017.2
578.398,2014.1
578.481,2008.0
578.564,2020.6
578.648,2018.0
578.731,2012.9
578.814,2012.5
578.897,2007.8
578.981,2013.0
579.064,2007.6
579.147,2011.0
579.23,2011.1
579.314,2014.6
579.397,2020.7
579.48,2018.5
579.563,2016.0
579.647,2021.4
579.73,2015.5
579.813,2022.2
579.896,2015.4
579.98,2032.4
580.063,2030.6
580.146,2024.7
580.229,2024.0
580.313,2032.9
580.396,2025.0
580.479,2028.3
580.562,2030.8
580.646,2039.9
580.729,2039.5
580.812,2038.0
580.895,2040.2
580.979,2033.7
581.062,2038.7
581.145,2033.2
581.228,2036.7
581.311,2049.3
581.395,2061.9
581.478,2047.9
581.561,2046.6
581.644,2057.8
581.728,2053.1
581.811,2051.1
581.894,2049.6
581.977,2060.7
582.06,2063.4
582.144,2066.8
582.227,2065.2
582.31,2066.6
582.393,2062.5
582.476,2073.5
582.56,2069.6
582.643,2073.8
582.726,2074.2
582.809,2074.5
582.892,2082.4
582.975,2087.6
583.059,2100.4
583.142,2088.4
583.225,2085.1
583.308,2093.1
583.391,2096.9
583.475,2093.0
583.558,2087.9
583.641,2100.4
583.724,2107.1
583.807,2097.0
583.89,2095.9
583.973,2099.4
584.057,2103.3
584.14,2105.2
584.223,2113.8
584.306,2112.2
584.389,2116.5
584.472,2116.7
584.556,2114.1
584.639,2107.5
584.722,2119.2
584.805,2120.9
584.888,2129.2
584.971,2136.6
585.054,2133.0
585.138,2120.4
585.221,2128.8
585.304,2125.1
585.387,2114.9
585.47,2135.6
585.553,2126.3
585.636,2135.1
585.719,2124.9
585.802,2122.6
585.886,2126.2
585.969,2125.8
586.052,2122.6
586.135,2126.7
586.218,2125.3
586.301,2120.6
586.384,2135.9
586.467,2123.0
586.55,2104.9
586.634,2107.3
586.717,2122.3
586.8,2130.9
586.883,2124.3
586.966,2113.7
587.049,2127.4
587.132,2126.1
587.215,2115.6
587.298,2110.4
587.381,2121.7
587.464,2126.3
587.548,2116.3
587.631,2122.2
587.714,2121.8
587.797,2127.2
587.88,2118.6
587.963,2128.7
588.046,2119.8
588.129,2118.5
588.212,2107.3
588.295,2115.0
588.378,2126.1
588.461,2107.1
588.544,2102.9
588.627,2110.2
588.71,2113.6
588.793,2107.4
588.876,2110.1
588.96,2111.5
589.043,2100.9
589.126,2092.7
589.209,2100.2
589.292,2099.3
589.375,2102.1
589.458,2089.3
589.541,2099.2
589.624,2095.1
589.707,2086.5
589.79,2101.3
589.873,2098.8
589.956,2103.1
590.039,2104.2
590.122,2094.5
590.205,2086.4
590.288,2087.3
590.371,2082.5
590.454,2087.5
590.537,2087.0
590.62,2094.6
590.703,2084.1
590.786,2094.6
590.869,2089.0
590.952,2088.6
591.035,2077.8
591.118,2092.2
591.201,2092.1
591.284,2080.7
591.367,2086.8
591.45,2079.7
591.533,2079.8
591.616,2079.0
591.699,2083.5
591.782,2080.6
591.865,2081.5
591.948,2086.4
592.031,2087.2
592.114,2083.3
592.197,2084.3
592.28,2090.3
592.363,2086.5
592.446,2078.7
592.529,2073.4
592.611,2076.6
592.694,2085.2
592.777,2084.7
592.86,2078.4
592.943,2076.2
593.026,2067.7
593.109,2069.6
593.192,2078.0
593.275,2068.8
593.358,2052.2
593.441,2068.2
593.524,2069.5
593.607,2053.6
593.69,2060.7
593.773,2066.8
593.856,2060.2
593.939,2057.7
594.021,2064.7
594.104,2077.0
594.187,2061.9
594.27,2052.3
594.353,2047.8
594.436,2049.3
594.519,2054.7
594.602,2051.0
594.685,2056.6
594.768,2048.7
594.851,2047.0
594.933,2055.0
595.016,2040.6
595.099,2047.0
595.182,2052.0
595.265,2047.8
595.348,2051.7
595.431,2061.1
595.514,2064.2
595.597,2048.8
595.68,2040.1
595.762,2044.4
595.845,2042.9
595.928,2050.8
596.011,2048.4
596.094,2041.9
596.177,2048.6
596.26,2058.5
596.342,2047.0
596.425,2039.8
596.508,2046.8
596.591,2038.4
596.674,2035.9
596.757,2043.2
596.84,2037.0
596.923,2041.6
597.005,2045.8
597.088,2042.0
597.171,2046.0
597.254,2050.4
597.337,2043.3
597.42,2034.1
597.502,2034.3
597.585,2039.7
597.668,2039.6
597.751,2048.1
597.834,2027.1
597.917,2034.7
597.999,2040.1
598.082,2046.9
598.165,2034.3
598.248,2037.6
598.331,2029.8
598.414,2031.1
598.496,2032.6
598.579,2036.2
598.662,2025.8
598.745,2035.9
598.828,2043.5
598.91,2031.6
598.993,2035.0
599.076,2037.4
599.159,2029.1
599.242,2031.7
599.324,2028.1
599.407,2043.4
599.49,2024.3
599.573,2026.4
599.656,2037.0
599.738,2033.7
599.821,2036.9
599.904,2033.5
599.987,2024.3
600.069,2024.9
600.152,2026.4
600.235,2023.8
600.318,2034.4
600.401,2033.1
600.483,2026.2
600.566,2030.0
600.649,2021.1
600.732,2022.1
600.814,2023.9
600.897,2028.2
600.98,2027.5
601.063,2029.0
601.145,2016.8
601.228,2028.1
601.311,2022.0
601.394,2027.1
601.476,2027.8
601.559,2021.1
601.642,2028.5
601.725,2021.4
601.807,2022.6
601.89,2021.2
601.973,2019.2
602.055,2023.7
602.138,2019.2
602.221,2012.3
602.304,2028.0
602.386,2016.5
602.469,2019.5
602.552,2015.1
602.635,2021.9
602.717,2025.9
602.8,2025.2
602.883,2014.2
602.965,2018.6
603.048,2018.3
603.131,2019.4
603.213,2018.6
603.296,2015.5
603.379,2028.7
603.462,2028.5
603.544,2022.9
603.627,2023.0
603.71,2025.7
603.792,2029.7
603.875,2027.9
603.958,2026.5
604.04,2015.3
604.123,2028.2
604.206,2028.1
604.288,2025.2
604.371,2035.0
604.454,2025.1
604.536,2022.8
604.619,2013.5
604.702,2026.1
604.784,2032.5
604.867,2034.2
604.95,2023.8
605.032,2018.4
605.115,2029.4
605.198,2029.1
605.28,2013.5
605.363,2016.8
605.446,2019.3
605.528,2035.8
605.611,2031.4
605.693,2024.3
605.776,2029.2
605.859,2021.5
605.941,2019.7
606.024,2022.4
606.107,2027.6
606.189,2026.7
606.272,2037.1
606.354,2031.7
606.437,2022.9
606.52,2031.3
606.602,2027.8
606.685,2021.6
606.767,2016.6
606.85,2025.5
606.933,2014.8
607.015,2021.6
607.098,2026.1
607.181,2020.1
607.263,2026.3
607.346,2027.4
607.428,2021.4
607.511,2033.8
607.593,2035.2
607.676,2031.8
607.759,2027.2
607.841,2023.1
607.924,2010.9
608.006,2015.5
608.089,2014.4
608.172,2014.2
608.254,2013.7
608.337,2011.7
608.419,2012.3
608.502,2012.4
608.584,2004.9
608.667,2017.1
608.749,2011.0
608.832,2010.3
608.915,2014.3
608.997,2007.7
609.08,2004.5
609.162,2005.0
609.245,2013.1
609.327,2018.5
609.41,2013.1
609.492,2015.4
609.575,2007.4
609.657,2007.9
609.74,2009.0
609.823,2012.3
609.905,2012.2
609.988,2005.1
610.07,2013.0
610.153,2007.8
610.235,2011.8
610.318,2009.9
610.4,2010.6
610.483,2011.6
610.565,2005.7
610.648,2000.5
610.73,2006.3
610.813,2004.0
610.895,2007.8
610.978,2009.9
611.06,2008.7
611.143,2002.0
611.225,2005.6
611.308,2007.8
611.39,2004.6
611.473,1999.2
611.555,2003.4
611.638,2003.8
611.72,2005.1
611.803,2003.1
611.885,2000.1
611.968,2014.1
612.05,2005.1
612.133,2010.4
612.215,2002.4
612.297,1997.3
612.38,2003.6
612.462,1999.5
612.545,2004.6
612.627,1999.9
612.71,2005.1
612.792,2005.6
612.875,1990.5
612.957,1993.6
613.04,1996.4
613.122,1992.5
613.204,1993.0
613.287,1996.3
613.369,2000.2
613.452,1988.1
613.534,1990.2
613.617,1989.2
613.699,1986.5
613.781,1988.2
613.864,1990.8
613.946,1993.4
614.029,2000.7
614.111,1998.2
614.194,1999.0
614.276,2007.2
614.358,2003.4
614.441,1999.8
614.523,1999.4
614.606,2000.1
614.688,2006.4
614.77,1992.8
614.853,2006.6
614.935,2011.9
615.018,1998.6
615.1,1993.1
615.182,2002.2
615.265,2005.8
615.347,1988.1
615.43,1994.1
615.512,1999.0
615.594,1995.8
615.677,1995.5
615.759,1996.3
615.841,1989.5
615.924,1998.7
616.006,2001.1
616.089,1995.5
616.171,1995.3
616.253,2002.7
616.336,2004.4
616.418,2005.4
616.5,2004.8
616.583,2000.1
616.665,2014.5
616.747,2010.6
616.83,2016.9
616.912,2008.8
616.994,2012.5
617.077,2014.2
617.159,2012.5
617.242,2019.4
617.324,2020.5
617.406,2031.5
617.489,2023.4
617.571,2024.6
617.653,2026.9
617.735,2023.8
617.818,2022.6
617.9,2014.1
617.982,2020.7
618.065,2022.4
618.147,2018.2
618.229,2025.0
618.312,2020.7
618.394,2022.2
618.476,2014.0
618.559,2014.3
618.641,2015.4
618.723,2018.9
618.805,2019.8
618.888,2029.5
618.97,2022.8
619.052,2036.4
619.135,2044.1
619.217,2043.9
619.299,2054.0
619.381,2070.1
619.464,2062.9
619.546,2086.2
619.628,2100.3
619.711,2092.0
619.793,2087.9
619.875,2080.5
619.957,2072.9
620.04,2075.4
620.122,2070.0
620.204,2065.7
620.286,2066.5
620.369,2070.2
620.451,2062.1
620.533,2059.4
620.615,2068.5
620.698,2065.6
620.78,2063.0
620.862,2078.2
620.944,2078.3
621.027,2075.4
621.109,2066.9
621.191,2071.3
621.273,2083.2
621.356,2104.5
621.438,2103.6
621.52,2126.5
621.602,2150.5
621.684,2184.2
621.767,2207.3
621.849,2220.9
621.931,2252.2
622.013,2287.0
622.095,2306.2
622.178,2340.4
622.26,2380.8
622.342,2402.6
622.424,2371.3
622.506,2308.4
622.589,2261.1
622.671,2257.0
622.753,2236.5
622.835,2213.7
622.917,2167.8
623.0,2165.2
623.082,2140.8
623.164,2147.1
623.246,2125.3
623.328,2123.6
623.41,2110.5
623.493,2107.1
623.575,2109.5
623.657,2088.2
623.739,2070.2
623.821,2064.1
623.903,2061.3
623.986,2049.8
624.068,2042.1
624.15,2042.1
624.232,2048.9
624.314,2036.3
624.396,2034.5
624.478,2041.1
624.561,2044.8
624.643,2057.3
624.725,2041.4
624.807,2052.0
624.889,2049.5
624.971,2058.0
625.053,2055.7
625.136,2064.9
625.218,2070.2
625.3,2068.1
625.382,2094.3
625.464,2086.3
625.546,2095.4
625.628,2111.5
625.71,2110.7
625.792,2130.8
625.875,2140.3
625.957,2175.9
626.039,2206.5
626.121,2246.9
626.203,2290.9
626.285,2371.0
626.367,2477.6
626.449,2638.9
626.531,2919.0
626.613,3226.9
626.695,3624.3
626.778,3921.7
626.86,4073.0
626.942,4124.1
627.024,3963.4
627.106,3670.2
627.188,3421.3
627.27,3190.4
627.352,3069.0
627.434,3029.5
627.516,3110.9
627.598,3300.1
627.68,3699.5
627.762,4140.4
627.844,4592.4
627.926,5084.6
628.008,5310.7
628.09,5495.3
628.172,5735.6
628.255,5801.8
628.337,6032.9
628.419,6256.4
628.501,6533.2
628.583,6675.4
628.665,6613.3
628.747,6600.5
628.829,6381.4
628.911,6230.8
628.993,5943.5
629.075,5628.3
629.157,5483.4
629.239,5609.1
629.321,5746.7
629.403,5730.4
629.485,5697.5
629.567,5503.0
629.649,5267.5
629.731,5019.1
629.813,4780.2
629.895,4659.7
629.977,4609.3
630.059,4592.2
630.141,4617.3
630.223,4633.8
630.305,4540.1
630.387,4375.1
630.469,4145.4
630.551,3925.9
630.633,3639.6
630.715,3436.5
630.797,3308.5
630.878,3281.8
630.96,3350.9
631.042,3579.0
631.124,3875.5
631.206,4153.0
631.288,4362.3
631.37,4437.2
631.452,4446.9
631.534,4512.1
631.616,4421.8
631.698,4333.6
631.78,4266.7
631.862,4104.9
631.944,3857.8
632.026,3631.8
632.108,3373.9
632.19,3129.7
632.272,2895.0
632.353,2703.7
632.435,2578.5
632.517,2463.7
632.599,2374.6
632.681,2321.6
632.763,2287.0
632.845,2238.1
632.927,2207.8
633.009,2167.4
633.091,2161.1
633.173,2156.2
633.254,2142.7
633.336,2119.2
633.418,2103.4
633.5,2085.4
633.582,2082.6
633.664,2077.8
633.746,2084.0
633.828,2062.3
633.91,2054.8
633.991,2052.5
634.073,2051.6
634.155,2037.6
634.237,2038.8
634.319,2037.1
634.401,2017.4
634.483,2032.6
634.564,2027.9
634.646,2018.8
634.728,2023.5
634.81,2013.9
634.892,2014.1
634.974,2015.4
635.056,2010.2
635.137,2016.5
635.219,2010.6
635.301,2014.5
635.383,2014.4
635.465,2005.5
635.547,1998.9
635.628,2001.9
635.71,2007.3
635.792,2015.0
635.874,2001.8
635.956,1997.1
636.038,1999.6
636.119,2003.3
636.201,1991.3
636.283,1996.2
636.365,1995.8
636.447,1995.0
636.528,1993.5
636.61,1991.8
636.692,1992.1
636.774,2000.5
636.856,1999.8
636.937,1985.9
637.019,1998.3
637.101,1993.3
637.183,1995.3
637.265,1987.6
637.346,1991.8
637.428,1989.5
637.51,1986.9
637.592,1988.0
637.673,1995.0
637.755,1994.6
637.837,1996.0
637.919,1991.2
638.0,1993.4
638.082,1994.9
638.164,1986.3
638.246,1990.4
638.327,1989.3
638.409,1989.5
638.491,1989.0
638.573,1993.6
638.654,1998.7
638.736,1994.9
638.818,1998.5
638.9,1993.5
638.981,1996.9
639.063,1995.1
639.145,1994.9
639.227,1999.2
639.308,1989.1
639.39,1990.3
639.472,1992.8
639.553,1985.5
639.635,1986.3
639.717,1983.4
639.799,1987.8
639.88,1994.7
639.962,1988.2
640.044,1991.9
640.125,1988.6
640.207,1988.0
640.289,1996.5
640.37,1992.8
640.452,1990.8
640.534,1987.6
640.616,1990.2
640.697,1991.6
640.779,1992.2
640.861,1990.8
640.942,1984.7
641.024,1984.7
641.106,1996.1
641.187,1995.0
641.269,1989.4
641.351,1994.7
641.432,1979.9
641.514,1989.1
641.596,1989.1
641.677,1982.7
641.759,1985.9
641.84,1983.8
641.922,1985.3
642.004,1985.1
642.085,1968.9
642.167,1977.3
642.249,1976.2
642.33,1966.6
642.412,1973.5
642.494,1982.2
642.575,1971.4
642.657,1972.2
642.738,1963.9
642.82,1962.8
642.902,1966.2
642.983,1965.4
643.065,1962.2
643.147,1955.0
643.228,1957.0
643.31,1952.7
643.391,1955.1
643.473,1959.2
643.555,1964.8
643.636,1960.4
643.718,1955.7
643.799,1952.7
643.881,1955.7
643.963,1960.3
644.044,1962.0
644.126,1955.7
644.207,1955.6
644.289,1952.9
644.37,1950.2
644.452,1958.7
644.534,1954.9
644.615,1957.3
644.697,1952.9
644.778,1953.4
644.86,1947.7
644.941,1949.3
645.023,1955.6
645.104,1958.2
645.186,1957.7
645.268,1952.0
645.349,1949.2
645.431,1947.4
645.512,1945.6
645.594,1953.5
645.675,1950.8
645.757,1944.7
645.838,1947.7
645.92,1943.9
646.001,1955.9
646.083,1946.7
646.164,1946.4
646.246,1945.8
646.327,1946.1
646.409,1938.4
646.49,1940.5
646.572,1936.8
646.653,1943.9
646.735,1946.2
646.816,1944.1
646.898,1950.7
646.979,1942.0
647.061,1946.1
647.142,1943.8
647.224,1942.0
647.305,1953.2
647.387,1948.1
647.468,1946.8
647.55,1932.1
647.631,1938.2
647.713,1941.2
647.794,1938.7
647.876,1943.6
647.957,1944.9
648.039,1942.1
648.12,1941.6
648.202,1940.8
648.283,1945.2
648.365,1937.1
648.446,1941.1
648.527,1944.1
648.609,1939.1
648.69,1937.8
648.772,1939.4
648.853,1945.1
648.935,1943.0
649.016,1938.4
649.098,1938.7
649.179,1937.9
649.26,1934.9
649.342,1940.9
649.423,1926.9
649.505,1930.1
649.586,1930.1
649.667,1934.4
649.749,1938.9
649.83,1938.2
649.912,1936.3
649.993,1931.6
650.075,1932.1
650.156,1930.2
650.237,1934.7
650.319,1933.0
650.4,1933.2
650.482,1931.0
650.563,1935.3
650.644,1930.9
650.726,1937.5
650.807,1932.6
650.888,1928.7
650.97,1938.4
651.051,1934.1
651.133,1933.5
651.214,1930.3
651.295,1936.3
651.377,1932.1
651.458,1925.3
651.539,1934.4
651.621,1927.2
651.702,1926.5
651.783,1931.8
651.865,1925.2
651.946,1926.2
652.027,1927.2
652.109,1933.0
652.19,1926.8
652.271,1926.6
652.353,1927.3
652.434,1928.7
652.515,1927.9
652.597,1928.4
652.678,1925.3
652.759,1924.8
652.841,1930.6
652.922,1927.3
653.003,1920.1
653.085,1922.2
653.166,1926.1
653.247,1922.1
653.329,1920.3
653.41,1924.6
653.491,1929.2
653.573,1924.4
653.654,1924.5
653.735,1923.2
653.816,1920.0
653.898,1924.0
653.979,1924.5
654.06,1922.4
654.142,1923.6
654.223,1920.9
654.304,1925.6
654.385,1922.5
654.467,1924.0
654.548,1925.1
654.629,1921.8
654.71,1917.7
654.792,1917.7
654.873,1920.6
654.954,1924.3
655.035,1918.0
655.117,1923.9
655.198,1920.7
655.279,1918.4
655.36,1916.0
655.442,1921.8
655.523,1920.1
655.604,1913.9
655.685,1921.0
655.767,1920.1
655.848,1919.4
655.929,1919.5
656.01,1915.1
656.091,1914.9
656.173,1917.5
656.254,1916.7
656.335,1914.8
656.416,1908.4
656.498,1917.2
656.579,1918.9
656.66,1916.0
656.741,1914.2
656.822,1915.6
656.904,1912.2
656.985,1915.3
657.066,1913.5
657.147,1918.0
657.228,1916.3
657.309,1913.8
657.391,1917.5
657.472,1912.8
657.553,1918.6
657.634,1920.8
657.715,1916.1
657.796,1914.9
657.878,1915.1
657.959,1915.3
658.04,1917.2
658.121,1915.0
658.202,1916.4
658.283,1913.0
658.365,1916.0
658.446,1921.2
658.527,1911.5
658.608,1910.4
658.689,1915.4
658.77,1909.3
658.851,1918.4
658.933,1913.5
659.014,1912.5
659.095,1911.9
659.176,1913.8
659.257,1912.4
659.338,1911.0
659.419,1913.4
659.5,1915.9
659.581,1913.5
659.663,1914.9
659.744,1906.4
659.825,1909.7
659.906,1913.6
659.987,1915.3
660.068,1911.5
660.149,1908.9
660.23,1906.5
660.311,1917.0
660.392,1916.7
660.474,1915.2
660.555,1913.2
660.636,1913.0
660.717,1907.5
660.798,1912.0
660.879,1906.6
660.96,1911.9
661.041,1914.0
