nm,Intensity
526.486,830.2
526.622,830.2
526.759,830.4
526.896,828.3
527.033,829.8
527.169,830.2
527.306,830.8
527.443,829.3
527.579,831.4
527.716,829.9
527.853,829.3
527.989,830.5
528.126,828.9
528.263,829.3
528.399,829.3
528.536,829.3
528.672,830.2
528.809,830.3
528.946,829.6
529.082,828.7
529.219,828.7
529.355,829.8
529.492,828.6
529.628,830.3
529.765,829.1
529.901,827.1
530.038,830.4
530.174,830.2
530.311,830.8
530.447,828.8
530.584,828.6
530.72,829.6
530.857,828.6
530.993,829.0
531.13,829.7
531.266,828.9
531.403,828.2
531.539,829.9
531.676,830.1
531.812,829.5
531.948,829.1
532.085,835.6
532.221,838.9
532.358,833.4
532.494,829.7
532.63,830.3
532.767,829.2
532.903,830.6
533.039,829.5
533.176,829.4
533.312,829.5
533.448,831.7
533.585,836.2
533.721,871.5
533.857,1108.3
533.993,1615.8
534.13,1978.4
534.266,2043.0
534.402,2015.4
534.539,1977.2
534.675,1971.8
534.811,1935.9
534.947,1914.1
535.083,1872.9
535.22,1834.3
535.356,1835.3
535.492,1831.2
535.628,1834.3
535.764,1827.8
535.901,1815.8
536.037,1800.9
536.173,1793.6
536.309,1784.2
536.445,1777.4
536.581,1779.4
536.717,1777.0
536.854,1763.5
536.99,1773.1
537.126,1789.3
537.262,1785.7
537.398,1775.1
537.534,1781.8
537.67,1777.7
537.806,1778.1
537.942,1788.5
538.078,1803.3
538.214,1811.6
538.35,1818.3
538.486,1815.8
538.622,1808.4
538.758,1816.1
538.894,1817.3
539.03,1814.6
539.166,1832.1
539.302,1836.8
539.438,1845.9
539.574,1842.4
539.71,1854.9
539.846,1860.6
539.982,1882.5
540.118,1882.8
540.254,1870.0
540.39,1872.5
540.526,1861.3
540.662,1863.7
540.798,1876.7
540.933,1874.4
541.069,1866.5
541.205,1882.8
541.341,1885.2
541.477,1889.2
541.613,1895.2
541.749,1889.2
541.884,1888.8
542.02,1897.1
542.156,1903.7
542.292,1901.8
542.428,1899.9
542.563,1916.1
542.699,1911.8
542.835,1925.1
542.971,1935.6
543.106,1933.1
543.242,1939.1
543.378,1933.7
543.514,1945.7
543.649,1948.9
543.785,1947.2
543.921,1971.8
544.057,1969.5
544.192,1969.8
544.328,1968.5
544.464,1975.9
544.599,1967.7
544.735,1972.5
544.871,1986.1
545.006,1991.9
545.142,1998.3
545.278,2004.2
545.413,2012.6
545.549,2004.0
545.684,2006.1
545.82,2003.1
545.956,2011.9
546.091,2007.5
546.227,2019.1
546.362,2019.6
546.498,2020.7
546.634,2036.9
546.769,2046.0
546.905,2037.9
547.04,2043.0
547.176,2035.4
547.311,2057.8
547.447,2044.4
547.582,2049.4
547.718,2047.1
547.853,2053.8
547.989,2045.0
548.124,2057.9
548.26,2071.9
548.395,2064.4
548.531,2069.2
548.666,2071.8
548.802,2087.6
548.937,2110.7
549.072,2099.5
549.208,2099.8
549.343,2101.8
549.479,2088.1
549.614,2112.3
549.75,2111.7
549.885,2114.9
550.02,2110.5
550.156,2109.8
550.291,2107.1
550.426,2131.9
550.562,2189.1
550.697,2291.7
550.832,2245.9
550.968,2146.7
551.103,2150.5
551.238,2151.5
551.374,2148.9
551.509,2164.4
551.644,2162.4
551.78,2172.3
551.915,2173.9
552.05,2177.1
552.185,2157.2
552.321,2176.2
552.456,2178.9
552.591,2181.0
552.726,2197.4
552.862,2227.4
552.997,2228.3
553.132,2203.3
553.267,2204.4
553.403,2196.6
553.538,2207.2
553.673,2209.4
553.808,2208.8
553.943,2222.8
554.078,2225.5
554.214,2239.5
554.349,2224.1
554.484,2235.7
554.619,2238.9
554.754,2243.4
554.889,2239.9
555.024,2246.9
555.16,2250.5
555.295,2245.6
555.43,2243.9
555.565,2271.1
555.7,2275.9
555.835,2269.7
555.97,2281.0
556.105,2275.1
556.24,2280.3
556.375,2293.2
556.51,2288.3
556.645,2311.7
556.78,2314.5
556.915,2311.1
557.05,2319.0
557.185,2343.4
557.32,2384.6
557.455,2448.2
557.59,2538.4
557.725,2576.6
557.86,2473.9
557.995,2382.3
558.13,2357.5
558.265,2353.9
558.4,2346.3
558.535,2354.8
558.67,2329.2
558.805,2345.1
558.94,2334.4
559.075,2346.5
559.21,2340.0
559.345,2358.5
559.479,2353.8
559.614,2359.7
559.749,2368.3
559.884,2371.4
560.019,2367.2
560.154,2395.4
560.289,2393.8
560.424,2390.3
560.558,2406.1
560.693,2405.1
560.828,2411.3
560.963,2413.9
561.098,2419.5
561.232,2414.7
561.367,2421.4
561.502,2432.6
561.637,2444.4
561.772,2447.5
561.906,2459.1
562.041,2471.1
562.176,2482.2
562.311,2488.6
562.445,2472.1
562.58,2463.8
562.715,2478.3
562.85,2460.5
562.984,2489.0
563.119,2492.5
563.254,2489.0
563.388,2493.4
563.523,2513.3
563.658,2501.4
563.792,2520.5
563.927,2536.7
564.062,2541.3
564.196,2551.5
564.331,2558.6
564.466,2554.0
564.6,2576.7
564.735,2598.1
564.87,2630.4
565.004,2655.6
565.139,2711.6
565.273,2697.2
565.408,2685.6
565.543,2672.8
565.677,2688.4
565.812,2700.0
565.946,2698.6
566.081,2667.9
566.215,2670.7
566.35,2632.5
566.485,2616.1
566.619,2623.6
566.754,2603.9
566.888,2589.4
567.023,2608.6
567.157,2611.1
567.292,2609.2
567.426,2613.1
567.561,2626.2
567.695,2673.2
567.83,2671.5
567.964,2681.6
568.099,2670.4
568.233,2655.8
568.368,2650.7
568.502,2656.6
568.636,2669.0
568.771,2660.9
568.905,2664.7
569.04,2698.1
569.174,2678.8
569.309,2707.5
569.443,2721.9
569.577,2705.9
569.712,2724.2
569.846,2712.0
569.98,2747.7
570.115,2738.8
570.249,2745.6
570.384,2766.7
570.518,2804.7
570.652,2816.9
570.787,2839.0
570.921,2907.8
571.055,2967.4
571.19,3016.2
571.324,3087.5
571.458,3097.0
571.592,3067.9
571.727,2989.9
571.861,2927.5
571.995,2907.5
572.13,2902.6
572.264,2861.4
572.398,2829.9
572.532,2827.0
572.667,2814.7
572.801,2807.7
572.935,2824.9
573.069,2827.9
573.204,2828.7
573.338,2821.1
573.472,2837.8
573.606,2843.9
573.74,2852.2
573.875,2855.0
574.009,2868.7
574.143,2865.4
574.277,2871.7
574.411,2853.8
574.545,2882.5
574.68,2872.9
574.814,2889.2
574.948,2885.9
575.082,2911.8
575.216,2920.4
575.35,2945.2
575.484,2979.4
575.619,2965.6
575.753,2960.1
575.887,2937.6
576.021,2913.4
576.155,2925.4
576.289,2938.1
576.423,2932.5
576.557,2946.2
576.691,2982.8
576.825,2955.5
576.959,2982.9
577.093,2979.9
577.227,2986.1
577.361,2990.4
577.495,2977.2
577.629,2995.3
577.763,2975.9
577.897,2971.8
578.031,2972.7
578.165,2986.8
578.299,2988.4
578.433,2980.6
578.567,2998.0
578.701,3008.2
578.835,2989.7
578.969,3000.0
579.103,3018.2
579.237,3020.3
579.371,3011.7
579.505,3014.6
579.639,3022.8
579.773,3013.0
579.907,3032.8
580.041,3026.3
580.175,3013.6
580.309,3048.9
580.442,3043.0
580.576,3036.6
580.71,3048.7
580.844,3057.9
580.978,3052.2
581.112,3075.5
581.246,3085.0
581.38,3075.2
581.513,3125.9
581.647,3181.9
581.781,3299.5
581.915,3519.0
582.049,3963.5
582.183,4486.8
582.316,4400.0
582.45,3703.9
582.584,3323.8
582.718,3175.1
582.852,3154.8
582.985,3160.4
583.119,3143.8
583.253,3117.0
583.387,3117.7
583.52,3124.5
583.654,3147.5
583.788,3151.3
583.922,3145.4
584.055,3141.2
584.189,3154.6
584.323,3149.8
584.456,3158.4
584.59,3152.5
584.724,3159.4
584.858,3164.8
584.991,3176.9
585.125,3206.9
585.259,3225.9
585.392,3247.8
585.526,3320.1
585.66,3432.5
585.793,3628.6
585.927,3777.3
586.061,3899.3
586.194,3873.7
586.328,3738.9
586.462,3658.3
586.595,3521.5
586.729,3407.8
586.862,3340.7
586.996,3303.2
587.13,3282.5
587.263,3277.9
587.397,3264.8
587.53,3259.4
587.664,3263.6
587.797,3256.0
587.931,3240.3
588.065,3254.7
588.198,3254.7
588.332,3252.5
588.465,3250.3
588.599,3248.8
588.732,3235.7
588.866,3223.8
588.999,3229.7
589.133,3234.1
589.266,3240.7
589.4,3233.9
589.533,3242.8
589.667,3248.6
589.8,3256.9
589.934,3250.6
590.067,3247.1
590.201,3247.1
590.334,3255.3
590.468,3290.7
590.601,3267.8
590.735,3260.9
590.868,3283.4
591.001,3276.4
591.135,3306.4
591.268,3292.3
591.402,3302.3
591.535,3286.1
591.669,3299.8
591.802,3271.0
591.935,3306.0
592.069,3296.9
592.202,3285.8
592.335,3295.6
592.469,3289.4
592.602,3275.1
592.736,3284.2
592.869,3281.8
593.002,3290.4
593.136,3288.2
593.269,3289.5
593.402,3309.0
593.536,3291.9
593.669,3318.9
593.802,3288.2
593.936,3301.8
594.069,3314.8
594.202,3319.0
594.336,3330.0
594.469,3339.0
594.602,3326.3
594.735,3317.1
594.869,3360.9
595.002,3349.2
595.135,3351.8
595.268,3359.1
595.402,3363.5
595.535,3356.7
595.668,3374.9
595.801,3367.4
595.935,3383.3
596.068,3389.8
596.201,3369.1
596.334,3376.1
596.468,3386.7
596.601,3385.7
596.734,3400.3
596.867,3415.6
597.0,3398.6
597.133,3407.7
597.267,3397.7
597.4,3416.6
597.533,3402.0
597.666,3420.5
597.799,3445.9
597.932,3414.4
598.066,3438.2
598.199,3457.0
598.332,3455.7
598.465,3464.2
598.598,3473.7
598.731,3479.8
598.864,3468.2
598.998,3484.3
599.131,3488.2
599.264,3462.9
599.397,3480.2
599.53,3471.9
599.663,3498.3
599.796,3471.1
599.929,3481.0
600.062,3478.3
600.195,3494.4
600.328,3485.2
600.461,3473.6
600.594,3497.1
600.727,3492.4
600.86,3491.0
600.994,3509.5
601.127,3498.2
601.26,3506.2
601.393,3477.8
601.526,3489.3
601.659,3499.5
601.792,3495.9
601.925,3495.5
602.058,3520.3
602.191,3494.4
602.324,3502.9
602.457,3532.5
602.589,3510.6
602.722,3534.1
602.855,3543.3
602.988,3553.1
603.121,3568.7
603.254,3559.0
603.387,3567.8
603.52,3569.5
603.653,3573.8
603.786,3593.7
603.919,3585.3
604.052,3580.0
604.185,3576.4
604.318,3565.3
604.451,3591.4
604.583,3575.6
604.716,3566.9
604.849,3565.0
604.982,3572.7
605.115,3556.6
605.248,3552.1
605.381,3546.8
605.514,3565.4
605.646,3559.5
605.779,3556.5
605.912,3549.6
606.045,3569.3
606.178,3569.5
606.311,3551.5
606.443,3568.9
606.576,3580.3
606.709,3580.3
606.842,3583.0
606.975,3597.3
607.107,3594.1
607.24,3594.8
607.373,3613.0
607.506,3606.4
607.639,3653.2
607.771,3645.8
607.904,3639.1
608.037,3642.4
608.17,3665.6
608.302,3669.0
608.435,3687.9
608.568,3704.5
608.701,3703.7
608.833,3695.3
608.966,3716.2
609.099,3734.3
609.232,3728.4
609.364,3720.4
609.497,3725.4
609.63,3735.3
609.762,3746.7
609.895,3757.8
610.028,3742.1
610.161,3754.5
610.293,3772.0
610.426,3765.8
610.559,3763.4
610.691,3772.4
610.824,3751.5
610.957,3769.8
611.089,3779.6
611.222,3807.5
611.355,3824.8
611.487,3810.0
611.62,3821.7
611.752,3826.3
611.885,3847.9
612.018,3861.9
612.15,3888.8
612.283,3895.7
612.416,3893.5
612.548,3926.7
612.681,3951.1
612.813,3939.1
612.946,3993.1
613.078,3987.0
613.211,3989.0
613.344,3999.4
613.476,3989.5
613.609,4045.4
613.741,4039.6
613.874,4062.0
614.006,4075.1
614.139,4058.1
614.272,4075.9
614.404,4101.9
614.537,4100.6
614.669,4110.7
614.802,4105.1
614.934,4106.6
615.067,4132.5
615.199,4154.2
615.332,4143.8
615.464,4148.6
615.597,4150.6
615.729,4144.7
615.862,4151.3
615.994,4155.5
616.127,4168.1
616.259,4191.5
616.392,4178.2
616.524,4185.4
616.657,4219.0
616.789,4222.2
616.922,4235.1
617.054,4263.0
617.186,4267.3
617.319,4275.2
617.451,4295.6
617.584,4292.1
617.716,4313.2
617.849,4327.6
617.981,4313.6
618.113,4348.5
618.246,4366.5
618.378,4383.1
618.511,4372.8
618.643,4404.4
618.775,4407.0
618.908,4414.7
619.04,4420.0
619.173,4389.3
619.305,4435.4
619.437,4414.5
619.57,4404.2
619.702,4423.4
619.834,4458.3
619.967,4451.2
620.099,4431.8
620.231,4469.6
620.364,4472.4
620.496,4466.6
620.628,4495.9
620.761,4495.7
620.893,4508.2
621.025,4523.6
621.158,4526.3
621.29,4551.6
621.422,4551.9
621.555,4566.3
621.687,4582.8
621.819,4559.2
621.952,4582.5
622.084,4571.2
622.216,4615.6
622.348,4643.8
622.481,4622.7
622.613,4635.7
622.745,4657.8
622.878,4715.9
623.01,4735.3
623.142,4725.4
623.274,4742.5
623.407,4754.0
623.539,4772.1
623.671,4770.7
623.803,4789.0
623.935,4807.4
624.068,4823.4
624.2,4813.0
624.332,4846.9
624.464,4833.6
624.597,4863.6
624.729,4874.0
624.861,4889.0
624.993,4902.9
625.125,4886.3
625.258,4900.5
625.39,4914.7
625.522,4931.7
625.654,4904.3
625.786,4943.7
625.918,4956.2
626.051,4966.1
626.183,4947.1
626.315,4958.3
626.447,4976.0
626.579,4982.5
626.711,5011.5
626.844,5004.4
626.976,5015.6
627.108,5026.1
627.24,5014.9
627.372,5032.7
627.504,5056.3
627.636,5063.0
627.768,5063.5
627.901,5055.2
628.033,5098.6
628.165,5090.7
628.297,5116.0
628.429,5130.7
628.561,5142.9
628.693,5141.7
628.825,5158.0
628.957,5198.9
629.089,5173.5
629.221,5200.0
629.354,5217.9
629.486,5231.9
629.618,5231.2
629.75,5267.9
629.882,5280.8
630.014,5286.3
630.146,5292.8
630.278,5321.5
630.41,5314.6
630.542,5319.9
630.674,5312.4
630.806,5324.3
630.938,5322.1
631.07,5376.8
631.202,5377.9
631.334,5411.4
631.466,5415.7
631.598,5429.6
631.73,5477.2
631.862,5491.6
631.994,5512.1
632.126,5511.9
632.258,5500.6
632.39,5464.7
632.522,5478.0
632.654,5507.7
632.786,5473.6
632.918,5460.7
633.05,5489.1
633.182,5516.4
633.314,5515.2
633.446,5522.6
633.578,5516.3
633.71,5498.6
633.842,5534.7
633.974,5501.2
634.106,5520.5
634.237,5518.5
634.369,5519.1
634.501,5516.0
634.633,5528.0
634.765,5538.4
634.897,5533.8
635.029,5584.7
635.161,5565.5
635.293,5549.1
635.425,5632.6
635.557,5602.7
635.689,5657.0
635.82,5680.2
635.952,5704.1
636.084,5746.9
636.216,5803.5
636.348,5822.5
636.48,5860.5
636.612,5908.6
636.744,5911.9
636.875,5852.3
637.007,5805.2
637.139,5816.9
637.271,5756.1
637.403,5780.6
637.535,5740.4
637.667,5762.9
637.798,5736.0
637.93,5770.1
638.062,5772.1
638.194,5769.5
638.326,5767.5
638.458,5780.1
638.589,5787.6
638.721,5805.2
638.853,5837.9
638.985,5795.1
639.117,5823.8
639.248,5816.4
639.38,5861.4
639.512,5821.9
639.644,5852.6
639.776,5858.1
639.907,5865.5
640.039,5906.1
640.171,5904.9
640.303,5894.4
640.435,5884.8
640.566,5908.0
640.698,5898.2
640.83,5912.1
640.962,5907.8
641.093,5914.5
641.225,5936.3
641.357,5926.4
641.489,5890.0
641.62,5948.5
641.752,5975.5
641.884,5967.6
642.016,5996.8
642.147,5987.6
642.279,5970.2
642.411,5978.5
642.543,5993.8
642.674,5983.9
642.806,5981.4
642.938,5965.9
643.069,5980.3
643.201,5947.3
643.333,5943.6
643.465,5948.2
643.596,5953.4
643.728,5929.1
643.86,5925.2
643.991,5914.2
644.123,5941.4
644.255,5955.6
644.386,5962.3
644.518,5941.0
644.65,5933.5
644.781,5933.8
644.913,5986.5
645.045,5954.4
645.176,5950.1
645.308,5964.4
645.44,5943.3
645.571,5967.2
645.703,5974.8
645.835,5988.5
645.966,5961.9
646.098,5972.6
646.23,5971.1
646.361,6019.1
646.493,6021.3
646.625,6026.7
646.756,6034.4
646.888,6067.1
647.019,6045.7
647.151,6060.5
647.283,6073.1
647.414,6060.4
647.546,6064.0
647.678,6077.4
647.809,6075.5
647.941,6089.5
648.072,6084.8
648.204,6036.0
648.336,6081.5
648.467,6075.8
648.599,6072.9
648.73,6078.4
648.862,6066.6
648.993,6087.9
649.125,6043.8
649.257,6051.0
649.388,6068.6
649.52,6062.8
649.651,6063.0
649.783,6080.1
649.914,6038.1
650.046,6057.7
650.178,6084.5
650.309,6056.0
650.441,6039.4
650.572,6075.4
650.704,6069.0
650.835,6046.5
650.967,6063.0
651.098,6073.2
651.23,6051.7
651.361,6067.2
651.493,6093.9
651.625,6084.4
651.756,6109.4
651.888,6104.4
652.019,6110.7
652.151,6113.2
652.282,6126.6
652.414,6115.7
652.545,6089.3
652.677,6129.9
652.808,6137.1
652.94,6125.0
653.071,6131.5
653.203,6146.4
653.334,6109.7
653.466,6122.6
653.597,6167.0
653.729,6143.6
653.86,6155.0
653.992,6130.6
654.123,6128.9
654.255,6157.8
654.386,6130.5
654.518,6138.3
654.649,6149.7
654.78,6174.5
654.912,6155.0
655.043,6157.5
655.175,6135.1
655.306,6136.1
655.438,6137.7
655.569,6159.8
655.701,6144.2
655.832,6199.2
655.964,6164.1
656.095,6157.7
656.226,6136.7
656.358,6177.8
656.489,6153.6
656.621,6157.0
656.752,6190.8
656.884,6202.3
657.015,6198.5
657.146,6237.8
657.278,6224.6
657.409,6199.2
657.541,6192.5
657.672,6200.0
657.804,6175.8
657.935,6219.7
658.066,6236.1
658.198,6249.2
658.329,6231.5
658.461,6220.6
658.592,6256.3
658.723,6196.7
658.855,6243.9
658.986,6248.3
659.118,6246.7
659.249,6278.9
659.38,6288.0
659.512,6260.1
659.643,6236.4
659.774,6242.6
659.906,6292.0
660.037,6277.4
660.169,6259.8
660.3,6242.3
660.431,6228.4
660.563,6202.2
660.694,6232.2
660.825,6236.8
660.957,6212.7
661.088,6227.0
661.22,6200.8
661.351,6188.3
661.482,6176.5
661.614,6153.6
661.745,6186.0
661.876,6217.6
662.008,6168.5
662.139,6170.0
662.27,6138.6
662.402,6149.5
662.533,6160.0
662.664,6213.1
662.796,6163.8
662.927,6164.9
663.058,6160.6
