nm,Intensity
526.532,830.1
526.669,830.0
526.805,830.0
526.942,829.475
527.079,829.425
527.216,830.05
527.352,829.525
527.489,829.325
527.625,829.35
527.762,829.2
527.899,829.925
528.035,830.275
528.172,830.025
528.309,829.975
528.445,829.525
528.582,829.15
528.718,830.0
528.855,829.625
528.992,829.95
529.128,829.85
529.265,830.05
529.401,829.5
529.538,829.225
529.674,829.675
529.811,828.625
529.947,829.65
530.084,829.475
530.22,829.65
530.357,829.75
530.493,830.05
530.63,829.35
530.766,829.175
530.903,830.25
531.039,830.4
531.176,830.05
531.312,829.4
531.449,829.45
531.585,828.95
531.721,829.575
531.858,829.625
531.994,835.95
532.131,859.25
532.267,852.65
532.403,833.5
532.54,829.875
532.676,829.775
532.812,829.85
532.949,829.85
533.085,829.6
533.221,829.275
533.358,829.725
533.494,829.425
533.63,831.7
533.767,848.95
533.903,914.75
534.039,998.525
534.176,1030.45
534.312,1035.03
534.448,1036.53
534.584,1038.6
534.721,1041.6
534.857,1044.7
534.993,1038.0
535.129,1038.22
535.266,1039.28
535.402,1040.78
535.538,1046.2
535.674,1049.8
535.81,1052.07
535.947,1055.93
536.083,1060.63
536.219,1067.1
536.355,1072.6
536.491,1068.43
536.627,1053.5
536.764,1053.5
536.9,1049.93
537.036,1047.75
537.172,1048.22
537.308,1049.95
537.444,1050.07
537.58,1050.05
537.716,1051.68
537.852,1056.78
537.988,1052.65
538.125,1058.93
538.261,1057.5
538.397,1057.0
538.533,1062.28
538.669,1060.9
538.805,1060.95
538.941,1063.2
539.077,1061.68
539.213,1062.63
539.349,1062.05
539.485,1064.53
539.621,1066.95
539.757,1066.18
539.893,1061.07
540.029,1063.07
540.165,1063.38
540.301,1062.32
540.437,1061.13
540.572,1060.38
540.708,1063.88
540.844,1060.5
540.98,1061.72
541.116,1062.72
541.252,1065.75
541.388,1064.5
541.524,1065.32
541.66,1065.4
541.795,1068.47
541.931,1065.28
542.067,1066.15
542.203,1067.93
542.339,1068.72
542.475,1070.63
542.611,1071.68
542.746,1071.85
542.882,1072.43
543.018,1076.88
543.154,1076.78
543.289,1079.1
543.425,1082.78
543.561,1084.1
543.697,1083.3
543.833,1086.47
543.968,1088.95
544.104,1089.63
544.24,1091.88
544.375,1094.93
544.511,1092.9
544.647,1096.6
544.783,1096.07
544.918,1097.95
545.054,1095.2
545.19,1095.65
545.325,1091.88
545.461,1093.82
545.597,1089.43
545.732,1088.25
545.868,1086.45
546.004,1083.32
546.139,1082.78
546.275,1081.9
546.41,1082.53
546.546,1081.03
546.682,1080.55
546.817,1080.88
546.953,1084.93
547.088,1082.88
547.224,1083.55
547.36,1086.0
547.495,1083.3
547.631,1083.88
547.766,1081.07
547.902,1084.97
548.037,1084.05
548.173,1080.7
548.308,1083.65
548.444,1083.95
548.579,1084.95
548.715,1085.8
548.85,1083.18
548.986,1085.57
549.121,1089.9
549.257,1089.22
549.392,1092.8
549.528,1089.6
549.663,1091.88
549.798,1093.47
549.934,1091.2
550.069,1094.45
550.205,1088.47
550.34,1093.82
550.475,1090.35
550.611,1089.2
550.746,1088.9
550.882,1091.13
551.017,1088.2
551.152,1088.18
551.288,1088.93
551.423,1090.53
551.558,1091.93
551.694,1093.95
551.829,1091.38
551.964,1092.55
552.1,1091.3
552.235,1093.05
552.37,1094.15
552.505,1093.65
552.641,1094.53
552.776,1095.88
552.911,1097.13
553.047,1094.9
553.182,1097.65
553.317,1096.55
553.452,1098.28
553.588,1098.25
553.723,1098.65
553.858,1099.78
553.993,1099.38
554.128,1096.97
554.264,1100.07
554.399,1098.82
554.534,1100.85
554.669,1098.57
554.804,1102.43
554.939,1095.88
555.075,1099.13
555.21,1101.85
555.345,1099.13
555.48,1100.93
555.615,1099.85
555.75,1095.38
555.885,1098.22
556.02,1097.28
556.155,1097.78
556.291,1102.5
556.426,1101.72
556.561,1098.38
556.696,1099.25
556.831,1103.35
556.966,1099.8
557.101,1098.57
557.236,1100.68
557.371,1099.9
557.506,1098.53
557.641,1099.9
557.776,1097.1
557.911,1102.93
558.046,1100.38
558.181,1098.25
558.316,1096.5
558.451,1095.2
558.586,1095.9
558.721,1098.72
558.856,1100.4
558.991,1100.2
559.126,1099.82
559.261,1100.05
559.396,1100.32
559.531,1103.3
559.665,1104.13
559.8,1103.38
559.935,1107.93
560.07,1108.63
560.205,1106.07
560.34,1105.22
560.475,1108.53
560.61,1110.3
560.745,1107.3
560.879,1110.45
561.014,1108.35
561.149,1109.1
561.284,1110.07
561.419,1107.22
561.553,1107.15
561.688,1109.0
561.823,1109.8
561.958,1106.0
562.093,1110.45
562.227,1112.68
562.362,1111.72
562.497,1107.43
562.632,1109.72
562.767,1111.63
562.901,1115.2
563.036,1118.43
563.171,1115.8
563.305,1118.32
563.44,1122.03
563.575,1123.1
563.71,1121.95
563.844,1120.32
563.979,1126.63
564.114,1124.93
564.248,1122.25
564.383,1126.63
564.518,1126.63
564.652,1130.8
564.787,1129.82
564.922,1128.0
565.056,1131.05
565.191,1130.3
565.325,1130.47
565.46,1133.43
565.595,1130.63
565.729,1132.22
565.864,1130.78
565.999,1133.22
566.133,1135.63
566.268,1133.38
566.402,1134.18
566.537,1130.53
566.671,1132.5
566.806,1133.63
566.94,1135.45
567.075,1136.38
567.21,1137.05
567.344,1138.4
567.479,1134.9
567.613,1134.95
567.748,1137.15
567.882,1137.2
568.017,1142.8
568.151,1139.53
568.285,1140.63
568.42,1142.95
568.554,1146.82
568.689,1146.55
568.823,1147.78
568.958,1146.4
569.092,1152.15
569.227,1148.88
569.361,1150.6
569.495,1155.57
569.63,1153.35
569.764,1158.22
569.899,1156.8
570.033,1159.57
570.167,1159.15
570.302,1158.15
570.436,1161.3
570.571,1160.25
570.705,1162.85
570.839,1160.03
570.974,1163.4
571.108,1164.65
571.242,1163.78
571.377,1166.35
571.511,1165.65
571.645,1168.18
571.78,1168.8
571.914,1166.8
572.048,1173.32
572.182,1174.93
572.317,1174.82
572.451,1175.13
572.585,1180.95
572.719,1182.93
572.854,1180.82
572.988,1182.88
573.122,1185.05
573.256,1181.57
573.391,1186.68
573.525,1185.6
573.659,1189.68
573.793,1185.5
573.927,1188.8
574.062,1187.2
574.196,1186.38
574.33,1185.38
574.464,1188.03
574.598,1183.32
574.733,1183.0
574.867,1185.15
575.001,1185.68
575.135,1183.25
575.269,1183.82
575.403,1183.93
575.537,1184.38
575.671,1187.32
575.806,1187.03
575.94,1185.55
576.074,1187.25
576.208,1190.57
576.342,1186.15
576.476,1186.2
576.61,1189.03
576.744,1186.55
576.878,1190.97
577.012,1191.55
577.146,1189.9
577.28,1192.2
577.414,1189.38
577.548,1190.45
577.682,1191.35
577.817,1189.9
577.951,1190.75
578.085,1189.1
578.219,1186.05
578.353,1190.55
578.486,1190.93
578.62,1188.6
578.754,1194.47
578.888,1194.15
579.022,1190.43
579.156,1192.85
579.29,1194.85
579.424,1195.25
579.558,1197.03
579.692,1194.65
579.826,1196.75
579.96,1196.75
580.094,1196.38
580.228,1199.5
580.362,1199.68
580.496,1200.32
580.629,1201.3
580.763,1200.22
580.897,1205.68
581.031,1201.1
581.165,1200.68
581.299,1208.45
581.433,1210.6
581.566,1207.35
581.7,1208.47
581.834,1211.35
581.968,1210.43
582.102,1210.0
582.236,1211.47
582.369,1209.15
582.503,1207.57
582.637,1200.3
582.771,1202.4
582.905,1205.2
583.038,1196.63
583.172,1201.6
583.306,1198.0
583.44,1196.28
583.573,1197.13
583.707,1200.13
583.841,1197.32
583.975,1197.22
584.108,1197.1
584.242,1199.57
584.376,1195.82
584.509,1198.7
584.643,1192.85
584.777,1195.72
584.911,1194.8
585.044,1193.9
585.178,1195.5
585.312,1197.03
585.445,1193.88
585.579,1198.15
585.713,1194.65
585.846,1199.93
585.98,1198.4
586.113,1203.53
586.247,1202.32
586.381,1199.78
586.514,1203.03
586.648,1201.93
586.782,1200.75
586.915,1205.85
587.049,1205.03
587.182,1204.57
587.316,1202.93
587.45,1207.63
587.583,1208.22
587.717,1202.1
587.85,1206.47
587.984,1203.97
588.117,1201.53
588.251,1205.13
588.384,1204.45
588.518,1202.85
588.651,1202.32
588.785,1200.03
588.919,1201.7
589.052,1199.28
589.186,1201.43
589.319,1200.9
589.453,1199.07
589.586,1203.97
589.72,1201.95
589.853,1198.45
589.986,1200.57
590.12,1203.68
590.253,1199.45
590.387,1200.2
590.52,1204.8
590.654,1202.2
590.787,1204.4
590.921,1207.25
591.054,1204.93
591.187,1204.32
591.321,1205.0
591.454,1206.18
591.588,1205.4
591.721,1206.7
591.854,1206.53
591.988,1203.93
592.121,1202.63
592.255,1202.0
592.388,1203.63
592.521,1206.03
592.655,1205.63
592.788,1199.97
592.921,1201.07
593.055,1203.15
593.188,1204.22
593.321,1201.0
593.455,1200.78
593.588,1201.72
593.721,1203.05
593.855,1202.7
593.988,1202.3
594.121,1200.85
594.255,1202.43
594.388,1206.47
594.521,1204.22
594.654,1207.75
594.788,1210.5
594.921,1208.9
595.054,1206.2
595.187,1205.13
595.321,1209.85
595.454,1208.03
595.587,1209.15
595.72,1213.35
595.854,1207.32
595.987,1206.57
596.12,1208.32
596.253,1207.13
596.387,1211.93
596.52,1211.32
596.653,1211.38
596.786,1209.55
596.919,1212.28
597.052,1214.7
597.186,1212.82
597.319,1213.57
597.452,1209.53
597.585,1212.07
597.718,1219.47
597.851,1216.03
597.985,1216.93
598.118,1219.05
598.251,1218.57
598.384,1218.82
598.517,1223.28
598.65,1224.45
598.783,1225.15
598.916,1221.47
599.049,1226.97
599.183,1221.95
599.316,1220.32
599.449,1223.43
599.582,1221.22
599.715,1224.0
599.848,1222.3
599.981,1226.8
600.114,1226.57
600.247,1223.43
600.38,1224.82
600.513,1223.53
600.646,1220.53
600.779,1223.28
600.912,1220.47
601.045,1221.65
601.178,1221.82
601.311,1221.7
601.444,1220.7
601.577,1220.28
601.71,1223.0
601.843,1219.38
601.976,1222.97
602.109,1225.25
602.242,1221.57
602.375,1219.55
602.508,1225.93
602.641,1223.35
602.774,1222.7
602.907,1225.6
603.04,1227.18
603.173,1223.55
603.306,1225.82
603.439,1226.13
603.572,1226.13
603.705,1232.03
603.838,1227.13
603.971,1224.53
604.103,1225.43
604.236,1226.55
604.369,1229.57
604.502,1223.95
604.635,1224.25
604.768,1223.4
604.901,1221.18
605.034,1221.25
605.167,1220.53
605.299,1223.45
605.432,1217.38
605.565,1214.4
605.698,1217.28
605.831,1215.97
605.964,1217.72
606.096,1217.32
606.229,1213.3
606.362,1215.3
606.495,1217.53
606.628,1212.45
606.761,1214.88
606.893,1219.22
607.026,1216.85
607.159,1216.93
607.292,1214.68
607.425,1216.9
607.557,1221.35
607.69,1219.85
607.823,1219.18
607.956,1219.95
608.088,1218.2
608.221,1221.78
608.354,1222.57
608.487,1222.72
608.619,1222.88
608.752,1223.9
608.885,1221.82
609.018,1223.82
609.15,1224.3
609.283,1223.6
609.416,1227.05
609.548,1221.03
609.681,1218.82
609.814,1223.38
609.947,1222.6
610.079,1224.95
610.212,1221.07
610.345,1218.95
610.477,1222.13
610.61,1219.07
610.743,1219.07
610.875,1218.4
611.008,1222.5
611.141,1219.53
611.273,1220.5
611.406,1218.35
611.539,1223.97
611.671,1220.57
611.804,1220.13
611.936,1221.18
612.069,1224.6
612.202,1221.68
612.334,1226.03
612.467,1224.25
612.6,1229.6
612.732,1226.53
612.865,1225.2
612.997,1233.7
613.13,1233.8
613.263,1232.05
613.395,1232.75
613.528,1232.57
613.66,1232.47
613.793,1234.7
613.925,1234.82
614.058,1230.75
614.19,1231.38
614.323,1236.65
614.456,1236.43
614.588,1235.3
614.721,1229.57
614.853,1232.25
614.986,1230.53
615.118,1235.8
615.251,1232.7
615.383,1232.68
615.516,1233.97
615.648,1231.63
615.781,1234.75
615.913,1233.82
616.046,1230.93
616.178,1233.82
616.311,1234.95
616.443,1231.78
616.576,1234.55
616.708,1236.18
616.841,1238.72
616.973,1239.65
617.106,1235.5
617.238,1240.38
617.37,1240.93
617.503,1235.55
617.635,1234.28
617.768,1241.13
617.9,1243.22
618.033,1245.6
618.165,1238.3
618.297,1243.1
618.43,1242.28
618.562,1246.2
618.695,1241.35
618.827,1242.18
618.96,1239.95
619.092,1241.53
619.224,1240.8
619.357,1245.82
619.489,1244.63
619.621,1239.78
619.754,1243.78
619.886,1242.45
620.019,1245.07
620.151,1237.43
620.283,1241.32
620.416,1237.53
620.548,1239.9
620.68,1244.05
620.813,1241.6
620.945,1240.95
621.077,1240.38
621.21,1241.15
621.342,1240.2
621.474,1241.95
621.607,1242.78
621.739,1242.3
621.871,1242.97
622.004,1241.9
622.136,1246.95
622.268,1243.3
622.401,1243.9
622.533,1242.3
622.665,1245.13
622.797,1248.53
622.93,1243.3
623.062,1246.85
623.194,1248.68
623.326,1245.78
623.459,1246.53
623.591,1244.13
623.723,1245.9
623.856,1247.65
623.988,1245.3
624.12,1244.07
624.252,1244.78
624.384,1244.82
624.517,1245.32
624.649,1252.2
624.781,1248.68
624.913,1244.45
625.046,1242.75
625.178,1247.13
625.31,1244.85
625.442,1250.03
625.574,1245.7
625.707,1246.82
625.839,1245.07
625.971,1247.82
626.103,1247.55
626.235,1247.55
626.368,1244.8
626.5,1245.8
626.632,1247.03
626.764,1246.03
626.896,1245.3
627.028,1250.2
627.161,1255.88
627.293,1257.45
627.425,1259.65
627.557,1260.4
627.689,1258.65
627.821,1256.82
627.953,1259.7
628.086,1253.72
628.218,1256.93
628.35,1255.82
628.482,1261.8
628.614,1257.97
628.746,1257.35
628.878,1261.3
629.01,1257.75
629.143,1261.55
629.275,1264.7
629.407,1263.35
629.539,1261.65
629.671,1260.32
629.803,1260.78
629.935,1259.5
630.067,1262.32
630.199,1260.32
630.331,1260.72
630.463,1261.2
630.596,1258.68
630.728,1262.13
630.86,1252.97
630.992,1257.38
631.124,1254.63
631.256,1250.43
631.388,1250.1
631.52,1247.88
631.652,1249.28
631.784,1250.13
631.916,1246.3
632.048,1248.18
632.18,1245.43
632.312,1247.43
632.444,1244.72
632.576,1245.57
632.708,1243.1
632.84,1241.47
632.972,1238.6
633.104,1242.3
633.236,1239.8
633.368,1240.05
633.5,1238.43
633.632,1232.72
633.764,1237.93
633.896,1234.6
634.028,1236.28
634.16,1241.0
634.292,1240.4
634.424,1236.72
634.556,1232.1
634.688,1234.05
634.82,1235.53
634.952,1230.63
635.084,1234.6
635.216,1233.07
635.348,1233.68
635.48,1238.95
635.612,1235.8
635.744,1233.38
635.876,1236.72
636.007,1236.88
636.139,1237.07
636.271,1238.38
636.403,1234.9
636.535,1233.78
636.667,1236.32
636.799,1233.35
636.931,1234.9
637.063,1234.6
637.195,1233.57
637.327,1231.05
637.459,1236.95
637.59,1233.0
637.722,1231.6
637.854,1233.8
637.986,1234.25
638.118,1237.15
638.25,1233.18
638.382,1230.45
638.514,1228.28
638.645,1229.22
638.777,1233.78
638.909,1231.65
639.041,1231.75
639.173,1230.6
639.305,1228.78
639.437,1230.53
639.568,1232.9
639.7,1230.07
639.832,1233.47
639.964,1231.2
640.096,1229.8
640.228,1232.03
640.36,1232.68
640.491,1229.65
640.623,1233.72
640.755,1230.82
640.887,1228.6
641.019,1233.7
641.15,1235.2
641.282,1231.13
641.414,1235.2
641.546,1229.55
641.678,1235.3
641.81,1231.35
641.941,1230.95
642.073,1228.1
642.205,1226.68
642.337,1230.32
642.468,1231.3
642.6,1229.7
642.732,1229.13
642.864,1226.45
642.996,1221.32
643.127,1226.85
643.259,1221.97
643.391,1222.85
643.523,1223.88
643.654,1221.5
643.786,1222.72
643.918,1217.3
644.05,1219.5
644.181,1217.7
644.313,1218.05
644.445,1217.68
644.577,1216.72
644.708,1217.05
644.84,1217.43
644.972,1216.25
645.104,1218.65
645.235,1219.05
645.367,1213.97
645.499,1215.32
645.631,1215.38
645.762,1215.53
645.894,1216.65
646.026,1215.25
646.157,1217.03
646.289,1220.3
646.421,1213.07
646.553,1218.82
646.684,1218.5
646.816,1215.85
646.948,1213.32
647.079,1217.55
647.211,1223.5
647.343,1220.03
647.474,1218.57
647.606,1220.93
647.738,1219.95
647.869,1221.13
648.001,1218.5
648.133,1215.43
648.265,1216.38
648.396,1217.55
648.528,1216.57
648.66,1218.35
648.791,1217.05
648.923,1219.03
649.054,1215.65
649.186,1216.93
649.318,1214.97
649.449,1221.6
649.581,1216.07
649.713,1218.6
649.844,1215.0
649.976,1216.28
650.108,1214.75
650.239,1215.45
650.371,1215.88
650.503,1217.3
650.634,1216.47
650.766,1214.07
650.897,1214.78
651.029,1215.25
651.161,1216.6
651.292,1220.85
651.424,1217.85
651.556,1217.03
651.687,1217.13
651.819,1216.85
651.95,1216.05
652.082,1218.82
652.214,1217.93
652.345,1214.78
652.477,1220.15
652.608,1217.82
652.74,1217.03
652.872,1223.5
653.003,1218.05
653.135,1221.97
653.266,1214.32
653.398,1217.93
653.529,1219.03
653.661,1216.47
653.793,1216.85
653.924,1220.7
654.056,1218.1
654.187,1218.05
654.319,1220.13
654.45,1216.07
654.582,1222.82
654.714,1218.3
654.845,1214.55
654.977,1218.88
655.108,1214.65
655.24,1216.03
655.371,1214.82
655.503,1217.85
655.634,1218.9
655.766,1220.43
655.897,1217.95
656.029,1215.57
656.161,1216.63
656.292,1215.0
656.424,1216.95
656.555,1218.6
656.687,1217.55
656.818,1220.22
656.95,1220.15
657.081,1217.95
657.213,1223.05
657.344,1225.05
657.476,1219.4
657.607,1219.35
657.739,1223.35
657.87,1222.53
658.002,1221.63
658.133,1219.4
658.265,1225.03
658.396,1221.68
658.528,1227.07
658.659,1225.5
658.791,1224.55
658.922,1226.97
659.054,1225.1
659.185,1228.45
659.317,1228.9
659.448,1229.07
659.58,1226.65
659.711,1227.07
659.843,1226.53
659.974,1227.32
660.106,1228.82
660.237,1227.65
660.368,1226.25
660.5,1226.55
660.631,1227.0
660.763,1225.32
660.894,1223.32
661.026,1222.45
661.157,1224.28
661.289,1219.0
661.42,1222.22
661.552,1220.9
661.683,1219.82
661.815,1221.93
661.946,1225.4
662.077,1223.63
662.209,1220.93
662.34,1218.78
662.472,1214.97
662.603,1216.93
662.735,1222.55
662.866,1218.2
662.997,1216.75
663.129,1218.43
