cm-1,A
4000.0,-0.0027
3999.0,-0.0027
3998.0,-0.0026
3997.0,-0.0026
3996.0,-0.0026
3995.0,-0.0026
3994.0,-0.0026
3993.0,-0.0026
3992.0,-0.0026
3991.0,-0.0027
3990.0,-0.0027
3989.0,-0.0028
3988.0,-0.0028
3987.0,-0.0028
3986.0,-0.0028
3985.0,-0.0028
3984.0,-0.0028
3983.0,-0.0027
3982.0,-0.0027
3981.0,-0.0026
3980.0,-0.0025
3979.0,-0.0025
3978.0,-0.0026
3977.0,-0.0026
3976.0,-0.0026
3975.0,-0.0027
3974.0,-0.0027
3973.0,-0.0026
3972.0,-0.0026
3971.0,-0.0026
3970.0,-0.0027
3969.0,-0.0027
3968.0,-0.0027
3967.0,-0.0027
3966.0,-0.0026
3965.0,-0.0026
3964.0,-0.0026
3963.0,-0.0026
3962.0,-0.0026
3961.0,-0.0027
3960.0,-0.0026
3959.0,-0.0026
3958.0,-0.0026
3957.0,-0.0026
3956.0,-0.0026
3955.0,-0.0026
3954.0,-0.0026
3953.0,-0.0025
3952.0,-0.0025
3951.0,-0.0025
3950.0,-0.0025
3949.0,-0.0024
3948.0,-0.0024
3947.0,-0.0023
3946.0,-0.0023
3945.0,-0.0023
3944.0,-0.0024
3943.0,-0.0024
3942.0,-0.0024
3941.0,-0.0024
3940.0,-0.0024
3939.0,-0.0024
3938.0,-0.0024
3937.0,-0.0024
3936.0,-0.0025
3935.0,-0.0025
3934.0,-0.0026
3933.0,-0.0026
3932.0,-0.0026
3931.0,-0.0026
3930.0,-0.0027
3929.0,-0.0027
3928.0,-0.0027
3927.0,-0.0027
3926.0,-0.0027
3925.0,-0.0027
3924.0,-0.0026
3923.0,-0.0025
3922.0,-0.0025
3921.0,-0.0025
3920.0,-0.0024
3919.0,-0.0024
3918.0,-0.0025
3917.0,-0.0025
3916.0,-0.0026
3915.0,-0.0026
3914.0,-0.0026
3913.0,-0.0026
3912.0,-0.0027
3911.0,-0.0028
3910.0,-0.0028
3909.0,-0.0028
3908.0,-0.0027
3907.0,-0.0026
3906.0,-0.0026
3905.0,-0.0026
3904.0,-0.0026
3903.0,-0.0027
3902.0,-0.0027
3901.0,-0.0027
3900.0,-0.0026
3899.0,-0.0026
3898.0,-0.0026
3897.0,-0.0026
3896.0,-0.0026
3895.0,-0.0026
3894.0,-0.0026
3893.0,-0.0027
3892.0,-0.0028
3891.0,-0.0029
3890.0,-0.0029
3889.0,-0.0028
3888.0,-0.0028
3887.0,-0.0028
3886.0,-0.0028
3885.0,-0.0027
3884.0,-0.0026
3883.0,-0.0026
3882.0,-0.0027
3881.0,-0.0028
3880.0,-0.0028
3879.0,-0.0026
3878.0,-0.0025
3877.0,-0.0025
3876.0,-0.0026
3875.0,-0.0028
3874.0,-0.0029
3873.0,-0.0029
3872.0,-0.003
3871.0,-0.003
3870.0,-0.003
3869.0,-0.0028
3868.0,-0.0027
3867.0,-0.0026
3866.0,-0.0026
3865.0,-0.0026
3864.0,-0.0026
3863.0,-0.0026
3862.0,-0.0026
3861.0,-0.0027
3860.0,-0.0028
3859.0,-0.0029
3858.0,-0.0028
3857.0,-0.0028
3856.0,-0.0027
3855.0,-0.0028
3854.0,-0.003
3853.0,-0.003
3852.0,-0.0029
3851.0,-0.0027
3850.0,-0.0026
3849.0,-0.0025
3848.0,-0.0025
3847.0,-0.0025
3846.0,-0.0026
3845.0,-0.0027
3844.0,-0.0028
3843.0,-0.0029
3842.0,-0.003
3841.0,-0.0031
3840.0,-0.0031
3839.0,-0.003
3838.0,-0.0029
3837.0,-0.0028
3836.0,-0.0027
3835.0,-0.0026
3834.0,-0.0025
3833.0,-0.0026
3832.0,-0.0026
3831.0,-0.0027
3830.0,-0.0026
3829.0,-0.0026
3828.0,-0.0027
3827.0,-0.0028
3826.0,-0.0028
3825.0,-0.0028
3824.0,-0.0028
3823.0,-0.0029
3822.0,-0.0031
3821.0,-0.0031
3820.0,-0.0031
3819.0,-0.003
3818.0,-0.0029
3817.0,-0.0029
3816.0,-0.0028
3815.0,-0.0027
3814.0,-0.0027
3813.0,-0.0027
3812.0,-0.0028
3811.0,-0.0028
3810.0,-0.0028
3809.0,-0.0029
3808.0,-0.0029
3807.0,-0.0029
3806.0,-0.0028
3805.0,-0.0027
3804.0,-0.0027
3803.0,-0.0027
3802.0,-0.0027
3801.0,-0.0027
3800.0,-0.0026
3799.0,-0.0027
3798.0,-0.0027
3797.0,-0.0028
3796.0,-0.0027
3795.0,-0.0026
3794.0,-0.0026
3793.0,-0.0026
3792.0,-0.0026
3791.0,-0.0026
3790.0,-0.0026
3789.0,-0.0026
3788.0,-0.0026
3787.0,-0.0026
3786.0,-0.0026
3785.0,-0.0026
3784.0,-0.0026
3783.0,-0.0026
3782.0,-0.0026
3781.0,-0.0026
3780.0,-0.0025
3779.0,-0.0025
3778.0,-0.0025
3777.0,-0.0025
3776.0,-0.0025
3775.0,-0.0026
3774.0,-0.0025
3773.0,-0.0024
3772.0,-0.0024
3771.0,-0.0025
3770.0,-0.0026
3769.0,-0.0026
3768.0,-0.0026
3767.0,-0.0026
3766.0,-0.0027
3765.0,-0.0027
3764.0,-0.0027
3763.0,-0.0027
3762.0,-0.0026
3761.0,-0.0026
3760.0,-0.0026
3759.0,-0.0026
3758.0,-0.0027
3757.0,-0.0028
3756.0,-0.0029
3755.0,-0.0029
3754.0,-0.0029
3753.0,-0.0029
3752.0,-0.0029
3751.0,-0.0029
3750.0,-0.003
3749.0,-0.003
3748.0,-0.003
3747.0,-0.0029
3746.0,-0.0029
3745.0,-0.0029
3744.0,-0.0028
3743.0,-0.0027
3742.0,-0.0027
3741.0,-0.0027
3740.0,-0.0026
3739.0,-0.0026
3738.0,-0.0025
3737.0,-0.0025
3736.0,-0.0026
3735.0,-0.0026
3734.0,-0.0025
3733.0,-0.0024
3732.0,-0.0023
3731.0,-0.0022
3730.0,-0.0021
3729.0,-0.0021
3728.0,-0.0021
3727.0,-0.0021
3726.0,-0.002
3725.0,-0.002
3724.0,-0.002
3723.0,-0.0021
3722.0,-0.0023
3721.0,-0.0024
3720.0,-0.0025
3719.0,-0.0026
3718.0,-0.0026
3717.0,-0.0026
3716.0,-0.0026
3715.0,-0.0027
3714.0,-0.0028
3713.0,-0.0028
3712.0,-0.0027
3711.0,-0.0025
3710.0,-0.0023
3709.0,-0.0023
3708.0,-0.0023
3707.0,-0.0023
3706.0,-0.0023
3705.0,-0.0023
3704.0,-0.0023
3703.0,-0.0023
3702.0,-0.0023
3701.0,-0.0022
3700.0,-0.0022
3699.0,-0.0022
3698.0,-0.0022
3697.0,-0.0023
3696.0,-0.0024
3695.0,-0.0024
3694.0,-0.0025
3693.0,-0.0026
3692.0,-0.0028
3691.0,-0.0028
3690.0,-0.0028
3689.0,-0.0028
3688.0,-0.0027
3687.0,-0.0026
3686.0,-0.0025
3685.0,-0.0025
3684.0,-0.0024
3683.0,-0.0025
3682.0,-0.0025
3681.0,-0.0027
3680.0,-0.0027
3679.0,-0.0027
3678.0,-0.0028
3677.0,-0.0028
3676.0,-0.0029
3675.0,-0.0028
3674.0,-0.0027
3673.0,-0.0026
3672.0,-0.0026
3671.0,-0.0026
3670.0,-0.0025
3669.0,-0.0024
3668.0,-0.0024
3667.0,-0.0024
3666.0,-0.0025
3665.0,-0.0025
3664.0,-0.0026
3663.0,-0.0026
3662.0,-0.0025
3661.0,-0.0025
3660.0,-0.0024
3659.0,-0.0023
3658.0,-0.0023
3657.0,-0.0024
3656.0,-0.0025
3655.0,-0.0026
3654.0,-0.0026
3653.0,-0.0025
3652.0,-0.0024
3651.0,-0.0023
3650.0,-0.0023
3649.0,-0.0023
3648.0,-0.0023
3647.0,-0.0024
3646.0,-0.0023
3645.0,-0.0023
3644.0,-0.0023
3643.0,-0.0024
3642.0,-0.0023
3641.0,-0.0023
3640.0,-0.0023
3639.0,-0.0023
3638.0,-0.0023
3637.0,-0.0024
3636.0,-0.0025
3635.0,-0.0026
3634.0,-0.0026
3633.0,-0.0025
3632.0,-0.0024
3631.0,-0.0024
3630.0,-0.0025
3629.0,-0.0025
3628.0,-0.0023
3627.0,-0.0021
3626.0,-0.0021
3625.0,-0.0021
3624.0,-0.0022
3623.0,-0.0023
3622.0,-0.0023
3621.0,-0.0022
3620.0,-0.0021
3619.0,-0.0021
3618.0,-0.0021
3617.0,-0.0022
3616.0,-0.0022
3615.0,-0.0022
3614.0,-0.0022
3613.0,-0.0021
3612.0,-0.0021
3611.0,-0.0021
3610.0,-0.0022
3609.0,-0.0022
3608.0,-0.0022
3607.0,-0.0022
3606.0,-0.0023
3605.0,-0.0024
3604.0,-0.0024
3603.0,-0.0024
3602.0,-0.0024
3601.0,-0.0023
3600.0,-0.0023
3599.0,-0.0022
3598.0,-0.0022
3597.0,-0.0021
3596.0,-0.0021
3595.0,-0.0021
3594.0,-0.0021
3593.0,-0.0021
3592.0,-0.0022
3591.0,-0.0022
3590.0,-0.0023
3589.0,-0.0024
3588.0,-0.0024
3587.0,-0.0023
3586.0,-0.0022
3585.0,-0.0022
3584.0,-0.0022
3583.0,-0.0023
3582.0,-0.0023
3581.0,-0.0024
3580.0,-0.0024
3579.0,-0.0024
3578.0,-0.0024
3577.0,-0.0023
3576.0,-0.0023
3575.0,-0.0022
3574.0,-0.0022
3573.0,-0.0021
3572.0,-0.0021
3571.0,-0.002
3570.0,-0.0019
3569.0,-0.0018
3568.0,-0.0019
3567.0,-0.002
3566.0,-0.0021
3565.0,-0.0022
3564.0,-0.0022
3563.0,-0.0022
3562.0,-0.0022
3561.0,-0.0022
3560.0,-0.0021
3559.0,-0.002
3558.0,-0.002
3557.0,-0.0021
3556.0,-0.0021
3555.0,-0.0022
3554.0,-0.0023
3553.0,-0.0023
3552.0,-0.0023
3551.0,-0.0022
3550.0,-0.0022
3549.0,-0.0022
3548.0,-0.0022
3547.0,-0.0022
3546.0,-0.0022
3545.0,-0.0022
3544.0,-0.0022
3543.0,-0.0021
3542.0,-0.002
3541.0,-0.002
3540.0,-0.0019
3539.0,-0.0019
3538.0,-0.0019
3537.0,-0.0019
3536.0,-0.0019
3535.0,-0.002
3534.0,-0.002
3533.0,-0.002
3532.0,-0.0021
3531.0,-0.0021
3530.0,-0.0022
3529.0,-0.0023
3528.0,-0.0023
3527.0,-0.0022
3526.0,-0.0021
3525.0,-0.0021
3524.0,-0.0021
3523.0,-0.0022
3522.0,-0.0021
3521.0,-0.0021
3520.0,-0.002
3519.0,-0.002
3518.0,-0.0021
3517.0,-0.0021
3516.0,-0.0021
3515.0,-0.002
3514.0,-0.002
3513.0,-0.002
3512.0,-0.0019
3511.0,-0.0018
3510.0,-0.0017
3509.0,-0.0016
3508.0,-0.0016
3507.0,-0.0016
3506.0,-0.0016
3505.0,-0.0016
3504.0,-0.0016
3503.0,-0.0017
3502.0,-0.0017
3501.0,-0.0017
3500.0,-0.0018
3499.0,-0.0018
3498.0,-0.0019
3497.0,-0.002
3496.0,-0.0021
3495.0,-0.002
3494.0,-0.0019
3493.0,-0.0018
3492.0,-0.0018
3491.0,-0.0019
3490.0,-0.002
3489.0,-0.0021
3488.0,-0.0022
3487.0,-0.0022
3486.0,-0.0022
3485.0,-0.0021
3484.0,-0.0021
3483.0,-0.002
3482.0,-0.002
3481.0,-0.002
3480.0,-0.0021
3479.0,-0.0021
3478.0,-0.0021
3477.0,-0.002
3476.0,-0.0019
3475.0,-0.0018
3474.0,-0.0017
3473.0,-0.0018
3472.0,-0.0018
3471.0,-0.0019
3470.0,-0.0019
3469.0,-0.0019
3468.0,-0.0019
3467.0,-0.0019
3466.0,-0.002
3465.0,-0.0021
3464.0,-0.0021
3463.0,-0.0022
3462.0,-0.0022
3461.0,-0.0023
3460.0,-0.0022
3459.0,-0.0022
3458.0,-0.0022
3457.0,-0.0021
3456.0,-0.0021
3455.0,-0.0021
3454.0,-0.0022
3453.0,-0.0022
3452.0,-0.0022
3451.0,-0.0022
3450.0,-0.0021
3449.0,-0.0021
3448.0,-0.002
3447.0,-0.0019
3446.0,-0.0018
3445.0,-0.0018
3444.0,-0.0018
3443.0,-0.0019
3442.0,-0.0019
3441.0,-0.0019
3440.0,-0.0019
3439.0,-0.0019
3438.0,-0.002
3437.0,-0.002
3436.0,-0.0021
3435.0,-0.0022
3434.0,-0.0022
3433.0,-0.0022
3432.0,-0.0022
3431.0,-0.0021
3430.0,-0.0021
3429.0,-0.0021
3428.0,-0.002
3427.0,-0.002
3426.0,-0.0019
3425.0,-0.002
3424.0,-0.002
3423.0,-0.0021
3422.0,-0.0022
3421.0,-0.0023
3420.0,-0.0023
3419.0,-0.0023
3418.0,-0.0022
3417.0,-0.0022
3416.0,-0.0021
3415.0,-0.0021
3414.0,-0.002
3413.0,-0.002
3412.0,-0.002
3411.0,-0.002
3410.0,-0.002
3409.0,-0.0019
3408.0,-0.0019
3407.0,-0.0019
3406.0,-0.0019
3405.0,-0.0019
3404.0,-0.0019
3403.0,-0.0019
3402.0,-0.002
3401.0,-0.002
3400.0,-0.0021
3399.0,-0.0022
3398.0,-0.0022
3397.0,-0.0022
3396.0,-0.0022
3395.0,-0.0021
3394.0,-0.002
3393.0,-0.002
3392.0,-0.002
3391.0,-0.002
3390.0,-0.002
3389.0,-0.002
3388.0,-0.002
3387.0,-0.0021
3386.0,-0.0021
3385.0,-0.0021
3384.0,-0.0021
3383.0,-0.0022
3382.0,-0.0022
3381.0,-0.0021
3380.0,-0.002
3379.0,-0.0019
3378.0,-0.0019
3377.0,-0.0019
3376.0,-0.002
3375.0,-0.0019
3374.0,-0.0019
3373.0,-0.0018
3372.0,-0.0018
3371.0,-0.0018
3370.0,-0.0019
3369.0,-0.002
3368.0,-0.0021
3367.0,-0.0021
3366.0,-0.0022
3365.0,-0.0022
3364.0,-0.0021
3363.0,-0.002
3362.0,-0.002
3361.0,-0.0021
3360.0,-0.0021
3359.0,-0.0022
3358.0,-0.0022
3357.0,-0.0021
3356.0,-0.002
3355.0,-0.0019
3354.0,-0.0018
3353.0,-0.0018
3352.0,-0.0019
3351.0,-0.0019
3350.0,-0.0019
3349.0,-0.0019
3348.0,-0.0019
3347.0,-0.0019
3346.0,-0.0019
3345.0,-0.0019
3344.0,-0.0019
3343.0,-0.002
3342.0,-0.002
3341.0,-0.002
3340.0,-0.0021
3339.0,-0.0021
3338.0,-0.0021
3337.0,-0.0021
3336.0,-0.0021
3335.0,-0.0021
3334.0,-0.0022
3333.0,-0.0022
3332.0,-0.0022
3331.0,-0.0022
3330.0,-0.0022
3329.0,-0.0021
3328.0,-0.0021
3327.0,-0.002
3326.0,-0.0019
3325.0,-0.0019
3324.0,-0.0018
3323.0,-0.0019
3322.0,-0.0019
3321.0,-0.002
3320.0,-0.0021
3319.0,-0.0021
3318.0,-0.0021
3317.0,-0.0021
3316.0,-0.0021
3315.0,-0.0021
3314.0,-0.0021
3313.0,-0.0022
3312.0,-0.0022
3311.0,-0.0022
3310.0,-0.0022
3309.0,-0.0022
3308.0,-0.0021
3307.0,-0.0021
3306.0,-0.0021
3305.0,-0.0021
3304.0,-0.0021
3303.0,-0.0021
3302.0,-0.0021
3301.0,-0.0021
3300.0,-0.0022
3299.0,-0.0022
3298.0,-0.0021
3297.0,-0.002
3296.0,-0.002
3295.0,-0.0021
3294.0,-0.0021
3293.0,-0.0021
3292.0,-0.0021
3291.0,-0.0021
3290.0,-0.002
3289.0,-0.002
3288.0,-0.002
3287.0,-0.002
3286.0,-0.002
3285.0,-0.002
3284.0,-0.002
3283.0,-0.002
3282.0,-0.0021
3281.0,-0.0021
3280.0,-0.0022
3279.0,-0.0022
3278.0,-0.0022
3277.0,-0.0021
3276.0,-0.0021
3275.0,-0.002
3274.0,-0.002
3273.0,-0.002
3272.0,-0.002
3271.0,-0.002
3270.0,-0.002
3269.0,-0.0021
3268.0,-0.0021
3267.0,-0.0022
3266.0,-0.0023
3265.0,-0.0023
3264.0,-0.0023
3263.0,-0.0023
3262.0,-0.0022
3261.0,-0.0021
3260.0,-0.002
3259.0,-0.0019
3258.0,-0.0019
3257.0,-0.0019
3256.0,-0.002
3255.0,-0.002
3254.0,-0.002
3253.0,-0.0019
3252.0,-0.0019
3251.0,-0.0019
3250.0,-0.002
3249.0,-0.002
3248.0,-0.0021
3247.0,-0.0021
3246.0,-0.0021
3245.0,-0.002
3244.0,-0.002
3243.0,-0.0021
3242.0,-0.0021
3241.0,-0.0021
3240.0,-0.002
3239.0,-0.002
3238.0,-0.0019
3237.0,-0.002
3236.0,-0.002
3235.0,-0.0021
3234.0,-0.0021
3233.0,-0.0021
3232.0,-0.0022
3231.0,-0.0022
3230.0,-0.0021
3229.0,-0.0021
3228.0,-0.002
3227.0,-0.002
3226.0,-0.002
3225.0,-0.0021
3224.0,-0.0022
3223.0,-0.0023
3222.0,-0.0023
3221.0,-0.0023
3220.0,-0.0023
3219.0,-0.0022
3218.0,-0.0022
3217.0,-0.0022
3216.0,-0.0023
3215.0,-0.0023
3214.0,-0.0023
3213.0,-0.0023
3212.0,-0.0022
3211.0,-0.0021
3210.0,-0.002
3209.0,-0.002
3208.0,-0.002
3207.0,-0.002
3206.0,-0.002
3205.0,-0.002
3204.0,-0.002
3203.0,-0.0021
3202.0,-0.0022
3201.0,-0.0022
3200.0,-0.0023
3199.0,-0.0023
3198.0,-0.0023
3197.0,-0.0023
3196.0,-0.0023
3195.0,-0.0023
3194.0,-0.0022
3193.0,-0.0022
3192.0,-0.0022
3191.0,-0.0022
3190.0,-0.0023
3189.0,-0.0023
3188.0,-0.0023
3187.0,-0.0023
3186.0,-0.0022
3185.0,-0.0022
3184.0,-0.0022
3183.0,-0.0021
3182.0,-0.0021
3181.0,-0.0022
3180.0,-0.0022
3179.0,-0.0022
3178.0,-0.0022
3177.0,-0.0022
3176.0,-0.0021
3175.0,-0.0021
3174.0,-0.0021
3173.0,-0.0021
3172.0,-0.0021
3171.0,-0.0021
3170.0,-0.0022
3169.0,-0.0023
3168.0,-0.0023
3167.0,-0.0024
3166.0,-0.0024
3165.0,-0.0024
3164.0,-0.0023
3163.0,-0.0023
3162.0,-0.0022
3161.0,-0.0021
3160.0,-0.0021
3159.0,-0.0021
3158.0,-0.0021
3157.0,-0.0022
3156.0,-0.0022
3155.0,-0.0023
3154.0,-0.0023
3153.0,-0.0023
3152.0,-0.0022
3151.0,-0.0022
3150.0,-0.0022
3149.0,-0.0022
3148.0,-0.0022
3147.0,-0.0022
3146.0,-0.0022
3145.0,-0.0022
3144.0,-0.0022
3143.0,-0.0022
3142.0,-0.0023
3141.0,-0.0023
3140.0,-0.0023
3139.0,-0.0023
3138.0,-0.0023
3137.0,-0.0023
3136.0,-0.0023
3135.0,-0.0023
3134.0,-0.0023
3133.0,-0.0023
3132.0,-0.0022
3131.0,-0.0022
3130.0,-0.0022
3129.0,-0.0022
3128.0,-0.0022
3127.0,-0.0023
3126.0,-0.0023
3125.0,-0.0023
3124.0,-0.0023
3123.0,-0.0023
3122.0,-0.0023
3121.0,-0.0023
3120.0,-0.0023
3119.0,-0.0023
3118.0,-0.0022
3117.0,-0.0022
3116.0,-0.0022
3115.0,-0.0023
3114.0,-0.0023
3113.0,-0.0023
3112.0,-0.0023
3111.0,-0.0023
3110.0,-0.0023
3109.0,-0.0023
3108.0,-0.0023
3107.0,-0.0023
3106.0,-0.0023
3105.0,-0.0023
3104.0,-0.0022
3103.0,-0.0022
3102.0,-0.0022
3101.0,-0.0022
3100.0,-0.0022
3099.0,-0.0022
3098.0,-0.0022
3097.0,-0.0022
3096.0,-0.0023
3095.0,-0.0023
3094.0,-0.0024
3093.0,-0.0024
3092.0,-0.0024
3091.0,-0.0024
3090.0,-0.0025
3089.0,-0.0025
3088.0,-0.0025
3087.0,-0.0024
3086.0,-0.0023
3085.0,-0.0023
3084.0,-0.0024
3083.0,-0.0024
3082.0,-0.0025
3081.0,-0.0025
3080.0,-0.0025
3079.0,-0.0024
3078.0,-0.0023
3077.0,-0.0023
3076.0,-0.0023
3075.0,-0.0023
3074.0,-0.0023
3073.0,-0.0023
3072.0,-0.0023
3071.0,-0.0023
3070.0,-0.0024
3069.0,-0.0024
3068.0,-0.0024
3067.0,-0.0023
3066.0,-0.0023
3065.0,-0.0024
3064.0,-0.0024
3063.0,-0.0024
3062.0,-0.0024
3061.0,-0.0023
3060.0,-0.0023
3059.0,-0.0023
3058.0,-0.0023
3057.0,-0.0023
3056.0,-0.0023
3055.0,-0.0024
3054.0,-0.0024
3053.0,-0.0024
3052.0,-0.0024
3051.0,-0.0024
3050.0,-0.0024
3049.0,-0.0023
3048.0,-0.0023
3047.0,-0.0023
3046.0,-0.0023
3045.0,-0.0024
3044.0,-0.0023
3043.0,-0.0023
3042.0,-0.0023
3041.0,-0.0023
3040.0,-0.0023
3039.0,-0.0024
3038.0,-0.0025
3037.0,-0.0025
3036.0,-0.0025
3035.0,-0.0025
3034.0,-0.0025
3033.0,-0.0024
3032.0,-0.0024
3031.0,-0.0024
3030.0,-0.0024
3029.0,-0.0024
3028.0,-0.0024
3027.0,-0.0024
3026.0,-0.0024
3025.0,-0.0023
3024.0,-0.0023
3023.0,-0.0023
3022.0,-0.0022
3021.0,-0.0022
3020.0,-0.0021
3019.0,-0.0021
3018.0,-0.0021
3017.0,-0.0021
3016.0,-0.002
3015.0,-0.0019
3014.0,-0.0018
3013.0,-0.0016
3012.0,-0.0015
3011.0,-0.0013
3010.0,-0.0012
3009.0,-0.0011
3008.0,-0.0011
3007.0,-0.001
3006.0,-0.0009
3005.0,-0.0008
3004.0,-0.0007
3003.0,-0.0007
3002.0,-0.0006
3001.0,-0.0006
3000.0,-0.0005
2999.0,-0.0003
2998.0,-0.0002
2997.0,-0.0
2996.0,0.0001
2995.0,0.0002
2994.0,0.0002
2993.0,0.0001
2992.0,-0.0001
2991.0,-0.0002
2990.0,-0.0004
2989.0,-0.0005
2988.0,-0.0006
2987.0,-0.0007
2986.0,-0.0008
2985.0,-0.0008
2984.0,-0.0009
2983.0,-0.0009
2982.0,-0.0009
2981.0,-0.001
2980.0,-0.0011
2979.0,-0.0012
2978.0,-0.0013
2977.0,-0.0014
2976.0,-0.0014
2975.0,-0.0015
2974.0,-0.0015
2973.0,-0.0015
2972.0,-0.0014
2971.0,-0.0014
2970.0,-0.0013
2969.0,-0.0013
2968.0,-0.0013
2967.0,-0.0012
2966.0,-0.0012
2965.0,-0.0012
2964.0,-0.0012
2963.0,-0.0012
2962.0,-0.0012
2961.0,-0.0011
2960.0,-0.0011
2959.0,-0.0011
2958.0,-0.001
2957.0,-0.001
2956.0,-0.001
2955.0,-0.0009
2954.0,-0.0008
2953.0,-0.0007
2952.0,-0.0006
2951.0,-0.0005
2950.0,-0.0004
2949.0,-0.0003
2948.0,-0.0002
2947.0,-0.0001
2946.0,-0.0001
2945.0,-0.0001
2944.0,-0.0002
2943.0,-0.0002
2942.0,-0.0003
2941.0,-0.0005
2940.0,-0.0006
2939.0,-0.0007
2938.0,-0.0007
2937.0,-0.0007
2936.0,-0.0007
2935.0,-0.0008
2934.0,-0.0008
2933.0,-0.0008
2932.0,-0.0009
2931.0,-0.0009
2930.0,-0.001
2929.0,-0.001
2928.0,-0.001
2927.0,-0.0011
2926.0,-0.0011
2925.0,-0.0011
2924.0,-0.0012
2923.0,-0.0012
2922.0,-0.0012
2921.0,-0.0013
2920.0,-0.0013
2919.0,-0.0013
2918.0,-0.0014
2917.0,-0.0014
2916.0,-0.0015
2915.0,-0.0015
2914.0,-0.0015
2913.0,-0.0015
2912.0,-0.0015
2911.0,-0.0015
2910.0,-0.0015
2909.0,-0.0015
2908.0,-0.0015
2907.0,-0.0015
2906.0,-0.0016
2905.0,-0.0016
2904.0,-0.0017
2903.0,-0.0017
2902.0,-0.0017
2901.0,-0.0017
2900.0,-0.0017
2899.0,-0.0016
2898.0,-0.0017
2897.0,-0.0017
2896.0,-0.0017
2895.0,-0.0016
2894.0,-0.0016
2893.0,-0.0016
2892.0,-0.0016
2891.0,-0.0016
2890.0,-0.0016
2889.0,-0.0016
2888.0,-0.0016
2887.0,-0.0016
2886.0,-0.0016
2885.0,-0.0017
2884.0,-0.0017
2883.0,-0.0016
2882.0,-0.0016
2881.0,-0.0017
2880.0,-0.0017
2879.0,-0.0018
2878.0,-0.0017
2877.0,-0.0017
2876.0,-0.0016
2875.0,-0.0017
2874.0,-0.0017
2873.0,-0.0018
2872.0,-0.0018
2871.0,-0.0018
2870.0,-0.0018
2869.0,-0.0017
2868.0,-0.0017
2867.0,-0.0017
2866.0,-0.0017
2865.0,-0.0017
2864.0,-0.0018
2863.0,-0.0019
2862.0,-0.0019
2861.0,-0.002
2860.0,-0.002
2859.0,-0.002
2858.0,-0.002
2857.0,-0.0019
2856.0,-0.0019
2855.0,-0.0019
2854.0,-0.0019
2853.0,-0.0018
2852.0,-0.0018
2851.0,-0.0019
2850.0,-0.0019
2849.0,-0.0019
2848.0,-0.002
2847.0,-0.0021
2846.0,-0.0021
2845.0,-0.0022
2844.0,-0.0022
2843.0,-0.0022
2842.0,-0.0021
2841.0,-0.0021
2840.0,-0.002
2839.0,-0.002
2838.0,-0.0021
2837.0,-0.0021
2836.0,-0.0021
2835.0,-0.0021
2834.0,-0.0021
2833.0,-0.0021
2832.0,-0.0021
2831.0,-0.0021
2830.0,-0.0021
2829.0,-0.0021
2828.0,-0.0021
2827.0,-0.002
2826.0,-0.002
2825.0,-0.002
2824.0,-0.002
2823.0,-0.0021
2822.0,-0.0021
2821.0,-0.0021
2820.0,-0.0021
2819.0,-0.0021
2818.0,-0.0021
2817.0,-0.0021
2816.0,-0.0022
2815.0,-0.0023
2814.0,-0.0023
2813.0,-0.0023
2812.0,-0.0022
2811.0,-0.0022
2810.0,-0.0022
2809.0,-0.0022
2808.0,-0.0022
2807.0,-0.0022
2806.0,-0.0022
2805.0,-0.0022
2804.0,-0.0022
2803.0,-0.0022
2802.0,-0.0022
2801.0,-0.0022
2800.0,-0.0022
2799.0,-0.0022
2798.0,-0.0023
2797.0,-0.0023
2796.0,-0.0023
2795.0,-0.0023
2794.0,-0.0023
2793.0,-0.0023
2792.0,-0.0023
2791.0,-0.0023
2790.0,-0.0023
2789.0,-0.0023
2788.0,-0.0023
2787.0,-0.0024
2786.0,-0.0024
2785.0,-0.0025
2784.0,-0.0025
2783.0,-0.0025
2782.0,-0.0024
2781.0,-0.0024
2780.0,-0.0023
2779.0,-0.0023
2778.0,-0.0023
2777.0,-0.0023
2776.0,-0.0023
2775.0,-0.0023
2774.0,-0.0023
2773.0,-0.0023
2772.0,-0.0023
2771.0,-0.0023
2770.0,-0.0023
2769.0,-0.0023
2768.0,-0.0024
2767.0,-0.0024
2766.0,-0.0025
2765.0,-0.0025
2764.0,-0.0025
2763.0,-0.0025
2762.0,-0.0025
2761.0,-0.0024
2760.0,-0.0024
2759.0,-0.0023
2758.0,-0.0023
2757.0,-0.0023
2756.0,-0.0023
2755.0,-0.0024
2754.0,-0.0024
2753.0,-0.0024
2752.0,-0.0024
2751.0,-0.0023
2750.0,-0.0022
2749.0,-0.0022
2748.0,-0.0023
2747.0,-0.0023
2746.0,-0.0024
2745.0,-0.0025
2744.0,-0.0025
2743.0,-0.0024
2742.0,-0.0023
2741.0,-0.0023
2740.0,-0.0024
2739.0,-0.0024
2738.0,-0.0024
2737.0,-0.0023
2736.0,-0.0023
2735.0,-0.0023
2734.0,-0.0024
2733.0,-0.0024
2732.0,-0.0024
2731.0,-0.0024
2730.0,-0.0024
2729.0,-0.0023
2728.0,-0.0023
2727.0,-0.0023
2726.0,-0.0024
2725.0,-0.0024
2724.0,-0.0025
2723.0,-0.0025
2722.0,-0.0026
2721.0,-0.0026
2720.0,-0.0026
2719.0,-0.0026
2718.0,-0.0025
2717.0,-0.0025
2716.0,-0.0025
2715.0,-0.0025
2714.0,-0.0025
2713.0,-0.0025
2712.0,-0.0025
2711.0,-0.0025
2710.0,-0.0025
2709.0,-0.0025
2708.0,-0.0025
2707.0,-0.0025
2706.0,-0.0024
2705.0,-0.0023
2704.0,-0.0022
2703.0,-0.0022
2702.0,-0.0023
2701.0,-0.0023
2700.0,-0.0024
2699.0,-0.0024
2698.0,-0.0024
2697.0,-0.0024
2696.0,-0.0024
2695.0,-0.0024
2694.0,-0.0023
2693.0,-0.0023
2692.0,-0.0023
2691.0,-0.0024
2690.0,-0.0025
2689.0,-0.0025
2688.0,-0.0025
2687.0,-0.0025
2686.0,-0.0025
2685.0,-0.0025
2684.0,-0.0025
2683.0,-0.0025
2682.0,-0.0025
2681.0,-0.0025
2680.0,-0.0025
2679.0,-0.0025
2678.0,-0.0025
2677.0,-0.0026
2676.0,-0.0025
2675.0,-0.0025
2674.0,-0.0025
2673.0,-0.0025
2672.0,-0.0025
2671.0,-0.0024
2670.0,-0.0024
2669.0,-0.0024
2668.0,-0.0023
2667.0,-0.0024
2666.0,-0.0024
2665.0,-0.0024
2664.0,-0.0024
2663.0,-0.0024
2662.0,-0.0024
2661.0,-0.0025
2660.0,-0.0025
2659.0,-0.0025
2658.0,-0.0025
2657.0,-0.0025
2656.0,-0.0025
2655.0,-0.0025
2654.0,-0.0025
2653.0,-0.0025
2652.0,-0.0025
2651.0,-0.0025
2650.0,-0.0025
2649.0,-0.0024
2648.0,-0.0024
2647.0,-0.0025
2646.0,-0.0025
2645.0,-0.0025
2644.0,-0.0025
2643.0,-0.0025
2642.0,-0.0025
2641.0,-0.0025
2640.0,-0.0025
2639.0,-0.0025
2638.0,-0.0025
2637.0,-0.0025
2636.0,-0.0025
2635.0,-0.0026
2634.0,-0.0026
2633.0,-0.0025
2632.0,-0.0025
2631.0,-0.0025
2630.0,-0.0025
2629.0,-0.0026
2628.0,-0.0027
2627.0,-0.0027
2626.0,-0.0028
2625.0,-0.0027
2624.0,-0.0027
2623.0,-0.0026
2622.0,-0.0025
2621.0,-0.0025
2620.0,-0.0025
2619.0,-0.0025
2618.0,-0.0025
2617.0,-0.0025
2616.0,-0.0025
2615.0,-0.0025
2614.0,-0.0025
2613.0,-0.0026
2612.0,-0.0026
2611.0,-0.0027
2610.0,-0.0027
2609.0,-0.0027
2608.0,-0.0026
2607.0,-0.0026
2606.0,-0.0025
2605.0,-0.0025
2604.0,-0.0025
2603.0,-0.0025
2602.0,-0.0025
2601.0,-0.0025
2600.0,-0.0025
2599.0,-0.0025
2598.0,-0.0025
2597.0,-0.0025
2596.0,-0.0025
2595.0,-0.0025
2594.0,-0.0025
2593.0,-0.0025
2592.0,-0.0025
2591.0,-0.0024
2590.0,-0.0024
2589.0,-0.0024
2588.0,-0.0025
2587.0,-0.0025
2586.0,-0.0025
2585.0,-0.0025
2584.0,-0.0025
2583.0,-0.0026
2582.0,-0.0026
2581.0,-0.0026
2580.0,-0.0025
2579.0,-0.0025
2578.0,-0.0026
2577.0,-0.0026
2576.0,-0.0027
2575.0,-0.0027
2574.0,-0.0027
2573.0,-0.0027
2572.0,-0.0026
2571.0,-0.0026
2570.0,-0.0026
2569.0,-0.0025
2568.0,-0.0025
2567.0,-0.0025
2566.0,-0.0026
2565.0,-0.0026
2564.0,-0.0026
2563.0,-0.0026
2562.0,-0.0027
2561.0,-0.0027
2560.0,-0.0027
2559.0,-0.0027
2558.0,-0.0027
2557.0,-0.0027
2556.0,-0.0027
2555.0,-0.0026
2554.0,-0.0026
2553.0,-0.0026
2552.0,-0.0026
2551.0,-0.0026
2550.0,-0.0026
2549.0,-0.0026
2548.0,-0.0025
2547.0,-0.0026
2546.0,-0.0026
2545.0,-0.0026
2544.0,-0.0027
2543.0,-0.0027
2542.0,-0.0027
2541.0,-0.0026
2540.0,-0.0026
2539.0,-0.0026
2538.0,-0.0026
2537.0,-0.0027
2536.0,-0.0027
2535.0,-0.0027
2534.0,-0.0027
2533.0,-0.0026
2532.0,-0.0026
2531.0,-0.0026
2530.0,-0.0026
2529.0,-0.0027
2528.0,-0.0027
2527.0,-0.0027
2526.0,-0.0027
2525.0,-0.0027
2524.0,-0.0027
2523.0,-0.0027
2522.0,-0.0027
2521.0,-0.0027
2520.0,-0.0027
2519.0,-0.0027
2518.0,-0.0027
2517.0,-0.0028
2516.0,-0.0028
2515.0,-0.0028
2514.0,-0.0029
2513.0,-0.0029
2512.0,-0.0029
2511.0,-0.0029
2510.0,-0.0028
2509.0,-0.0028
2508.0,-0.0027
2507.0,-0.0026
2506.0,-0.0026
2505.0,-0.0026
2504.0,-0.0026
2503.0,-0.0027
2502.0,-0.0026
2501.0,-0.0026
2500.0,-0.0026
2499.0,-0.0026
2498.0,-0.0026
2497.0,-0.0027
2496.0,-0.0027
2495.0,-0.0027
2494.0,-0.0028
2493.0,-0.0028
2492.0,-0.0028
2491.0,-0.0028
2490.0,-0.0028
2489.0,-0.0027
2488.0,-0.0028
2487.0,-0.0027
2486.0,-0.0027
2485.0,-0.0027
2484.0,-0.0027
2483.0,-0.0027
2482.0,-0.0028
2481.0,-0.0028
2480.0,-0.0028
2479.0,-0.0028
2478.0,-0.0028
2477.0,-0.0027
2476.0,-0.0027
2475.0,-0.0027
2474.0,-0.0028
2473.0,-0.0028
2472.0,-0.0029
2471.0,-0.0029
2470.0,-0.0029
2469.0,-0.0029
2468.0,-0.0028
2467.0,-0.0028
2466.0,-0.0028
2465.0,-0.0028
2464.0,-0.0028
2463.0,-0.0028
2462.0,-0.0028
2461.0,-0.0028
2460.0,-0.0027
2459.0,-0.0027
2458.0,-0.0026
2457.0,-0.0027
2456.0,-0.0027
2455.0,-0.0028
2454.0,-0.0028
2453.0,-0.0029
2452.0,-0.0029
2451.0,-0.0028
2450.0,-0.0028
2449.0,-0.0027
2448.0,-0.0027
2447.0,-0.0027
2446.0,-0.0028
2445.0,-0.0028
2444.0,-0.0028
2443.0,-0.0028
2442.0,-0.0028
2441.0,-0.0028
2440.0,-0.0028
2439.0,-0.0028
2438.0,-0.0028
2437.0,-0.0028
2436.0,-0.0028
2435.0,-0.0028
2434.0,-0.0028
2433.0,-0.0028
2432.0,-0.0028
2431.0,-0.0028
2430.0,-0.0028
2429.0,-0.0028
2428.0,-0.0028
2427.0,-0.0027
2426.0,-0.0027
2425.0,-0.0027
2424.0,-0.0026
2423.0,-0.0026
2422.0,-0.0027
2421.0,-0.0027
2420.0,-0.0027
2419.0,-0.0028
2418.0,-0.0028
2417.0,-0.0028
2416.0,-0.0027
2415.0,-0.0028
2414.0,-0.0028
2413.0,-0.0028
2412.0,-0.0029
2411.0,-0.0029
2410.0,-0.0029
2409.0,-0.0029
2408.0,-0.0029
2407.0,-0.0028
2406.0,-0.0028
2405.0,-0.0027
2404.0,-0.0027
2403.0,-0.0027
2402.0,-0.0028
2401.0,-0.0028
2400.0,-0.0028
2399.0,-0.0028
2398.0,-0.0028
2397.0,-0.0028
2396.0,-0.0029
2395.0,-0.0029
2394.0,-0.0029
2393.0,-0.0028
2392.0,-0.0028
2391.0,-0.0028
2390.0,-0.0028
2389.0,-0.0027
2388.0,-0.0027
2387.0,-0.0026
2386.0,-0.0027
2385.0,-0.0027
2384.0,-0.0028
2383.0,-0.0028
2382.0,-0.0029
2381.0,-0.0029
2380.0,-0.0028
2379.0,-0.0027
2378.0,-0.0026
2377.0,-0.0025
2376.0,-0.0025
2375.0,-0.0026
2374.0,-0.0028
2373.0,-0.0031
2372.0,-0.0033
2371.0,-0.0032
2370.0,-0.0028
2369.0,-0.0021
2368.0,-0.0013
2367.0,-0.001
2366.0,-0.0016
2365.0,-0.0027
2364.0,-0.0037
2363.0,-0.0039
2362.0,-0.0034
2361.0,-0.0024
2360.0,-0.0017
2359.0,-0.0016
2358.0,-0.0019
2357.0,-0.0022
2356.0,-0.0023
2355.0,-0.0021
2354.0,-0.0019
2353.0,-0.0019
2352.0,-0.002
2351.0,-0.0019
2350.0,-0.0018
2349.0,-0.0015
2348.0,-0.0013
2347.0,-0.001
2346.0,-0.0007
2345.0,-0.0005
2344.0,-0.0006
2343.0,-0.0011
2342.0,-0.0018
2341.0,-0.0023
2340.0,-0.0026
2339.0,-0.003
2338.0,-0.0031
2337.0,-0.0028
2336.0,-0.002
2335.0,-0.0011
2334.0,-0.0005
2333.0,-0.0003
2332.0,-0.0005
2331.0,-0.0009
2330.0,-0.0013
2329.0,-0.0015
2328.0,-0.0016
2327.0,-0.0018
2326.0,-0.002
2325.0,-0.0022
2324.0,-0.0022
2323.0,-0.002
2322.0,-0.0018
2321.0,-0.0019
2320.0,-0.0019
2319.0,-0.0019
2318.0,-0.0019
2317.0,-0.0019
2316.0,-0.002
2315.0,-0.0021
2314.0,-0.0022
2313.0,-0.0021
2312.0,-0.002
2311.0,-0.002
2310.0,-0.0021
2309.0,-0.0023
2308.0,-0.0024
2307.0,-0.0025
2306.0,-0.0026
2305.0,-0.0026
2304.0,-0.0026
2303.0,-0.0026
2302.0,-0.0026
2301.0,-0.0026
2300.0,-0.0026
2299.0,-0.0026
2298.0,-0.0026
2297.0,-0.0027
2296.0,-0.0027
2295.0,-0.0027
2294.0,-0.0028
2293.0,-0.0028
2292.0,-0.0028
2291.0,-0.0029
2290.0,-0.0029
2289.0,-0.003
2288.0,-0.003
2287.0,-0.0031
2286.0,-0.0031
2285.0,-0.0031
2284.0,-0.0031
2283.0,-0.003
2282.0,-0.0029
2281.0,-0.0029
2280.0,-0.0029
2279.0,-0.0029
2278.0,-0.0029
2277.0,-0.003
2276.0,-0.003
2275.0,-0.003
2274.0,-0.003
2273.0,-0.003
2272.0,-0.0031
2271.0,-0.0031
2270.0,-0.003
2269.0,-0.003
2268.0,-0.003
2267.0,-0.003
2266.0,-0.0031
2265.0,-0.0031
2264.0,-0.0031
2263.0,-0.0031
2262.0,-0.0031
2261.0,-0.0031
2260.0,-0.0031
2259.0,-0.0031
2258.0,-0.0031
2257.0,-0.0031
2256.0,-0.0031
2255.0,-0.0032
2254.0,-0.0032
2253.0,-0.0032
2252.0,-0.0032
2251.0,-0.0032
2250.0,-0.0033
2249.0,-0.0033
2248.0,-0.0033
2247.0,-0.0032
2246.0,-0.0032
2245.0,-0.0033
2244.0,-0.0033
2243.0,-0.0033
2242.0,-0.0033
2241.0,-0.0033
2240.0,-0.0033
2239.0,-0.0033
2238.0,-0.0033
2237.0,-0.0033
2236.0,-0.0033
2235.0,-0.0033
2234.0,-0.0033
2233.0,-0.0033
2232.0,-0.0033
2231.0,-0.0033
2230.0,-0.0033
2229.0,-0.0034
2228.0,-0.0034
2227.0,-0.0034
2226.0,-0.0033
2225.0,-0.0033
2224.0,-0.0033
2223.0,-0.0033
2222.0,-0.0034
2221.0,-0.0034
2220.0,-0.0035
2219.0,-0.0035
2218.0,-0.0035
2217.0,-0.0035
2216.0,-0.0035
2215.0,-0.0035
2214.0,-0.0035
2213.0,-0.0035
2212.0,-0.0036
2211.0,-0.0035
2210.0,-0.0035
2209.0,-0.0035
2208.0,-0.0035
2207.0,-0.0034
2206.0,-0.0034
2205.0,-0.0034
2204.0,-0.0035
2203.0,-0.0035
2202.0,-0.0035
2201.0,-0.0035
2200.0,-0.0035
2199.0,-0.0035
2198.0,-0.0036
2197.0,-0.0036
2196.0,-0.0036
2195.0,-0.0036
2194.0,-0.0035
2193.0,-0.0035
2192.0,-0.0035
2191.0,-0.0035
2190.0,-0.0035
2189.0,-0.0035
2188.0,-0.0035
2187.0,-0.0035
2186.0,-0.0035
2185.0,-0.0035
2184.0,-0.0035
2183.0,-0.0036
2182.0,-0.0036
2181.0,-0.0036
2180.0,-0.0036
2179.0,-0.0035
2178.0,-0.0036
2177.0,-0.0036
2176.0,-0.0035
2175.0,-0.0035
2174.0,-0.0035
2173.0,-0.0035
2172.0,-0.0035
2171.0,-0.0035
2170.0,-0.0036
2169.0,-0.0036
2168.0,-0.0036
2167.0,-0.0036
2166.0,-0.0036
2165.0,-0.0036
2164.0,-0.0037
2163.0,-0.0037
2162.0,-0.0037
2161.0,-0.0037
2160.0,-0.0037
2159.0,-0.0036
2158.0,-0.0036
2157.0,-0.0035
2156.0,-0.0036
2155.0,-0.0036
2154.0,-0.0036
2153.0,-0.0036
2152.0,-0.0036
2151.0,-0.0036
2150.0,-0.0036
2149.0,-0.0036
2148.0,-0.0036
2147.0,-0.0036
2146.0,-0.0036
2145.0,-0.0036
2144.0,-0.0036
2143.0,-0.0036
2142.0,-0.0036
2141.0,-0.0036
2140.0,-0.0036
2139.0,-0.0036
2138.0,-0.0036
2137.0,-0.0036
2136.0,-0.0036
2135.0,-0.0036
2134.0,-0.0037
2133.0,-0.0036
2132.0,-0.0036
2131.0,-0.0036
2130.0,-0.0036
2129.0,-0.0036
2128.0,-0.0036
2127.0,-0.0036
2126.0,-0.0036
2125.0,-0.0036
2124.0,-0.0036
2123.0,-0.0036
2122.0,-0.0036
2121.0,-0.0036
2120.0,-0.0036
2119.0,-0.0036
2118.0,-0.0036
2117.0,-0.0036
2116.0,-0.0036
2115.0,-0.0036
2114.0,-0.0037
2113.0,-0.0036
2112.0,-0.0036
2111.0,-0.0036
2110.0,-0.0036
2109.0,-0.0036
2108.0,-0.0036
2107.0,-0.0036
2106.0,-0.0037
2105.0,-0.0037
2104.0,-0.0037
2103.0,-0.0037
2102.0,-0.0037
2101.0,-0.0037
2100.0,-0.0037
2099.0,-0.0037
2098.0,-0.0036
2097.0,-0.0036
2096.0,-0.0036
2095.0,-0.0036
2094.0,-0.0035
2093.0,-0.0035
2092.0,-0.0035
2091.0,-0.0035
2090.0,-0.0036
2089.0,-0.0036
2088.0,-0.0036
2087.0,-0.0036
2086.0,-0.0036
2085.0,-0.0037
2084.0,-0.0037
2083.0,-0.0037
2082.0,-0.0036
2081.0,-0.0036
2080.0,-0.0036
2079.0,-0.0036
2078.0,-0.0036
2077.0,-0.0037
2076.0,-0.0037
2075.0,-0.0037
2074.0,-0.0037
2073.0,-0.0037
2072.0,-0.0037
2071.0,-0.0037
2070.0,-0.0037
2069.0,-0.0037
2068.0,-0.0037
2067.0,-0.0037
2066.0,-0.0037
2065.0,-0.0037
2064.0,-0.0038
2063.0,-0.0038
2062.0,-0.0038
2061.0,-0.0038
2060.0,-0.0038
2059.0,-0.0039
2058.0,-0.0039
2057.0,-0.0039
2056.0,-0.0039
2055.0,-0.0039
2054.0,-0.0039
2053.0,-0.0039
2052.0,-0.0039
2051.0,-0.0039
2050.0,-0.0039
2049.0,-0.0039
2048.0,-0.0039
2047.0,-0.0039
2046.0,-0.0038
2045.0,-0.0038
2044.0,-0.0038
2043.0,-0.0039
2042.0,-0.0039
2041.0,-0.0039
2040.0,-0.0039
2039.0,-0.004
2038.0,-0.004
2037.0,-0.0041
2036.0,-0.0041
2035.0,-0.0041
2034.0,-0.0041
2033.0,-0.0042
2032.0,-0.0042
2031.0,-0.0042
2030.0,-0.0042
2029.0,-0.0041
2028.0,-0.0041
2027.0,-0.0041
2026.0,-0.0041
2025.0,-0.0042
2024.0,-0.0042
2023.0,-0.0042
2022.0,-0.0042
2021.0,-0.0042
2020.0,-0.0042
2019.0,-0.0042
2018.0,-0.0042
2017.0,-0.0042
2016.0,-0.0042
2015.0,-0.0042
2014.0,-0.0042
2013.0,-0.0041
2012.0,-0.0041
2011.0,-0.0041
2010.0,-0.0041
2009.0,-0.004
2008.0,-0.0041
2007.0,-0.0041
2006.0,-0.0041
2005.0,-0.0042
2004.0,-0.0042
2003.0,-0.0042
2002.0,-0.0042
2001.0,-0.0042
2000.0,-0.0041
1999.0,-0.0041
1998.0,-0.0042
1997.0,-0.0042
1996.0,-0.0042
1995.0,-0.0042
1994.0,-0.0042
1993.0,-0.0041
1992.0,-0.0041
1991.0,-0.0041
1990.0,-0.0041
1989.0,-0.0042
1988.0,-0.0042
1987.0,-0.0042
1986.0,-0.0042
1985.0,-0.0042
1984.0,-0.0042
1983.0,-0.0042
1982.0,-0.0042
1981.0,-0.0042
1980.0,-0.0041
1979.0,-0.0041
1978.0,-0.0041
1977.0,-0.0042
1976.0,-0.0042
1975.0,-0.0042
1974.0,-0.0042
1973.0,-0.0042
1972.0,-0.0042
1971.0,-0.0042
1970.0,-0.0042
1969.0,-0.0042
1968.0,-0.0042
1967.0,-0.0042
1966.0,-0.0042
1965.0,-0.0043
1964.0,-0.0043
1963.0,-0.0042
1962.0,-0.0042
1961.0,-0.0042
1960.0,-0.0041
1959.0,-0.0041
1958.0,-0.0041
1957.0,-0.0042
1956.0,-0.0042
1955.0,-0.0043
1954.0,-0.0043
1953.0,-0.0044
1952.0,-0.0044
1951.0,-0.0044
1950.0,-0.0044
1949.0,-0.0044
1948.0,-0.0044
1947.0,-0.0043
1946.0,-0.0043
1945.0,-0.0044
1944.0,-0.0044
1943.0,-0.0044
1942.0,-0.0045
1941.0,-0.0045
1940.0,-0.0045
1939.0,-0.0045
1938.0,-0.0044
1937.0,-0.0044
1936.0,-0.0044
1935.0,-0.0045
1934.0,-0.0045
1933.0,-0.0045
1932.0,-0.0045
1931.0,-0.0045
1930.0,-0.0045
1929.0,-0.0045
1928.0,-0.0045
1927.0,-0.0045
1926.0,-0.0045
1925.0,-0.0045
1924.0,-0.0045
1923.0,-0.0045
1922.0,-0.0045
1921.0,-0.0045
1920.0,-0.0045
1919.0,-0.0045
1918.0,-0.0046
1917.0,-0.0046
1916.0,-0.0045
1915.0,-0.0045
1914.0,-0.0044
1913.0,-0.0044
1912.0,-0.0044
1911.0,-0.0045
1910.0,-0.0045
1909.0,-0.0046
1908.0,-0.0046
1907.0,-0.0046
1906.0,-0.0046
1905.0,-0.0045
1904.0,-0.0045
1903.0,-0.0045
1902.0,-0.0045
1901.0,-0.0045
1900.0,-0.0045
1899.0,-0.0045
1898.0,-0.0045
1897.0,-0.0045
1896.0,-0.0044
1895.0,-0.0044
1894.0,-0.0045
1893.0,-0.0045
1892.0,-0.0045
1891.0,-0.0044
1890.0,-0.0044
1889.0,-0.0044
1888.0,-0.0045
1887.0,-0.0045
1886.0,-0.0046
1885.0,-0.0046
1884.0,-0.0046
1883.0,-0.0045
1882.0,-0.0045
1881.0,-0.0045
1880.0,-0.0045
1879.0,-0.0046
1878.0,-0.0046
1877.0,-0.0046
1876.0,-0.0046
1875.0,-0.0046
1874.0,-0.0046
1873.0,-0.0047
1872.0,-0.0046
1871.0,-0.0046
1870.0,-0.0046
1869.0,-0.0045
1868.0,-0.0045
1867.0,-0.0045
1866.0,-0.0045
1865.0,-0.0045
1864.0,-0.0045
1863.0,-0.0046
1862.0,-0.0046
1861.0,-0.0046
1860.0,-0.0046
1859.0,-0.0046
1858.0,-0.0045
1857.0,-0.0045
1856.0,-0.0044
1855.0,-0.0044
1854.0,-0.0044
1853.0,-0.0044
1852.0,-0.0043
1851.0,-0.0043
1850.0,-0.0043
1849.0,-0.0043
1848.0,-0.0043
1847.0,-0.0042
1846.0,-0.0042
1845.0,-0.0042
1844.0,-0.0042
1843.0,-0.0041
1842.0,-0.0042
1841.0,-0.0041
1840.0,-0.0041
1839.0,-0.0041
1838.0,-0.004
1837.0,-0.004
1836.0,-0.004
1835.0,-0.0039
1834.0,-0.0039
1833.0,-0.0038
1832.0,-0.0037
1831.0,-0.0036
1830.0,-0.0036
1829.0,-0.0036
1828.0,-0.0036
1827.0,-0.0035
1826.0,-0.0034
1825.0,-0.0034
1824.0,-0.0034
1823.0,-0.0034
1822.0,-0.0034
1821.0,-0.0033
1820.0,-0.0033
1819.0,-0.0032
1818.0,-0.0032
1817.0,-0.0032
1816.0,-0.0032
1815.0,-0.0031
1814.0,-0.003
1813.0,-0.0029
1812.0,-0.0028
1811.0,-0.0027
1810.0,-0.0027
1809.0,-0.0027
1808.0,-0.0026
1807.0,-0.0025
1806.0,-0.0025
1805.0,-0.0024
1804.0,-0.0023
1803.0,-0.0022
1802.0,-0.0021
1801.0,-0.002
1800.0,-0.0018
1799.0,-0.0017
1798.0,-0.0015
1797.0,-0.0014
1796.0,-0.0012
1795.0,-0.001
1794.0,-0.0008
1793.0,-0.0005
1792.0,0.0
1791.0,0.0005
1790.0,0.0009
1789.0,0.0013
1788.0,0.0018
1787.0,0.0024
1786.0,0.003
1785.0,0.0039
1784.0,0.0048
1783.0,0.0057
1782.0,0.0067
1781.0,0.0079
1780.0,0.0091
1779.0,0.0102
1778.0,0.0112
1777.0,0.0122
1776.0,0.0131
1775.0,0.0141
1774.0,0.0152
1773.0,0.0167
1772.0,0.0185
1771.0,0.0201
1770.0,0.0216
1769.0,0.0233
1768.0,0.0255
1767.0,0.0277
1766.0,0.0298
1765.0,0.0319
1764.0,0.0342
1763.0,0.0369
1762.0,0.0399
1761.0,0.0426
1760.0,0.0443
1759.0,0.0453
1758.0,0.0459
1757.0,0.0462
1756.0,0.0464
1755.0,0.0463
1754.0,0.0462
1753.0,0.0461
1752.0,0.0461
1751.0,0.046
1750.0,0.046
1749.0,0.0458
1748.0,0.0453
1747.0,0.0445
1746.0,0.0435
1745.0,0.0422
1744.0,0.0408
1743.0,0.0393
1742.0,0.0377
1741.0,0.0359
1740.0,0.0338
1739.0,0.0318
1738.0,0.0302
1737.0,0.029
1736.0,0.0276
1735.0,0.0256
1734.0,0.0233
1733.0,0.0218
1732.0,0.0207
1731.0,0.0197
1730.0,0.0188
1729.0,0.0179
1728.0,0.0171
1727.0,0.0164
1726.0,0.0158
1725.0,0.0151
1724.0,0.0145
1723.0,0.0139
1722.0,0.0135
1721.0,0.0131
1720.0,0.0127
1719.0,0.0121
1718.0,0.0116
1717.0,0.0112
1716.0,0.0108
1715.0,0.0104
1714.0,0.01
1713.0,0.0097
1712.0,0.0093
1711.0,0.0089
1710.0,0.0085
1709.0,0.0081
1708.0,0.0077
1707.0,0.0074
1706.0,0.007
1705.0,0.0066
1704.0,0.0063
1703.0,0.0061
1702.0,0.0059
1701.0,0.0057
1700.0,0.0054
1699.0,0.0051
1698.0,0.005
1697.0,0.0049
1696.0,0.0047
1695.0,0.0044
1694.0,0.0042
1693.0,0.0041
1692.0,0.0039
1691.0,0.0038
1690.0,0.0036
1689.0,0.0035
1688.0,0.0033
1687.0,0.0031
1686.0,0.003
1685.0,0.0028
1684.0,0.0026
1683.0,0.0026
1682.0,0.0026
1681.0,0.0025
1680.0,0.0024
1679.0,0.0023
1678.0,0.0022
1677.0,0.0021
1676.0,0.0019
1675.0,0.0018
1674.0,0.0017
1673.0,0.0016
1672.0,0.0015
1671.0,0.0015
1670.0,0.0014
1669.0,0.0014
1668.0,0.0014
1667.0,0.0013
1666.0,0.0012
1665.0,0.0011
1664.0,0.0011
1663.0,0.0011
1662.0,0.001
1661.0,0.0009
1660.0,0.0008
1659.0,0.0006
1658.0,0.0005
1657.0,0.0004
1656.0,0.0004
1655.0,0.0005
1654.0,0.0004
1653.0,0.0003
1652.0,0.0002
1651.0,0.0001
1650.0,0.0001
1649.0,0.0001
1648.0,0.0001
1647.0,0.0
1646.0,0.0001
1645.0,0.0
1644.0,-0.0
1643.0,-0.0001
1642.0,-0.0001
1641.0,-0.0002
1640.0,-0.0002
1639.0,-0.0003
1638.0,-0.0003
1637.0,-0.0003
1636.0,-0.0003
1635.0,-0.0003
1634.0,-0.0003
1633.0,-0.0004
1632.0,-0.0005
1631.0,-0.0006
1630.0,-0.0006
1629.0,-0.0005
1628.0,-0.0005
1627.0,-0.0005
1626.0,-0.0006
1625.0,-0.0006
1624.0,-0.0006
1623.0,-0.0006
1622.0,-0.0006
1621.0,-0.0006
1620.0,-0.0007
1619.0,-0.0007
1618.0,-0.0008
1617.0,-0.0009
1616.0,-0.0009
1615.0,-0.001
1614.0,-0.001
1613.0,-0.001
1612.0,-0.0011
1611.0,-0.0012
1610.0,-0.0012
1609.0,-0.0013
1608.0,-0.0013
1607.0,-0.0013
1606.0,-0.0014
1605.0,-0.0014
1604.0,-0.0015
1603.0,-0.0015
1602.0,-0.0015
1601.0,-0.0015
1600.0,-0.0015
1599.0,-0.0016
1598.0,-0.0017
1597.0,-0.0018
1596.0,-0.0018
1595.0,-0.0019
1594.0,-0.0019
1593.0,-0.002
1592.0,-0.002
1591.0,-0.002
1590.0,-0.002
1589.0,-0.002
1588.0,-0.002
1587.0,-0.002
1586.0,-0.002
1585.0,-0.0021
1584.0,-0.0022
1583.0,-0.0022
1582.0,-0.0023
1581.0,-0.0024
1580.0,-0.0025
1579.0,-0.0025
1578.0,-0.0025
1577.0,-0.0024
1576.0,-0.0024
1575.0,-0.0024
1574.0,-0.0024
1573.0,-0.0025
1572.0,-0.0025
1571.0,-0.0026
1570.0,-0.0026
1569.0,-0.0027
1568.0,-0.0027
1567.0,-0.0027
1566.0,-0.0027
1565.0,-0.0027
1564.0,-0.0027
1563.0,-0.0028
1562.0,-0.0028
1561.0,-0.0028
1560.0,-0.0028
1559.0,-0.0027
1558.0,-0.0027
1557.0,-0.0027
1556.0,-0.0028
1555.0,-0.0028
1554.0,-0.0029
1553.0,-0.003
1552.0,-0.0029
1551.0,-0.0028
1550.0,-0.0028
1549.0,-0.0028
1548.0,-0.0028
1547.0,-0.0029
1546.0,-0.0029
1545.0,-0.003
1544.0,-0.003
1543.0,-0.003
1542.0,-0.003
1541.0,-0.0031
1540.0,-0.0031
1539.0,-0.0031
1538.0,-0.0031
1537.0,-0.0031
1536.0,-0.0031
1535.0,-0.003
1534.0,-0.003
1533.0,-0.003
1532.0,-0.003
1531.0,-0.003
1530.0,-0.0031
1529.0,-0.0031
1528.0,-0.0031
1527.0,-0.0031
1526.0,-0.0031
1525.0,-0.0031
1524.0,-0.003
1523.0,-0.003
1522.0,-0.0031
1521.0,-0.0031
1520.0,-0.0032
1519.0,-0.0032
1518.0,-0.0031
1517.0,-0.0031
1516.0,-0.0031
1515.0,-0.0031
1514.0,-0.0031
1513.0,-0.0032
1512.0,-0.0032
1511.0,-0.0032
1510.0,-0.0031
1509.0,-0.0031
1508.0,-0.0031
1507.0,-0.0032
1506.0,-0.0032
1505.0,-0.0032
1504.0,-0.0031
1503.0,-0.0031
1502.0,-0.0031
1501.0,-0.0031
1500.0,-0.0031
1499.0,-0.0031
1498.0,-0.0031
1497.0,-0.0031
1496.0,-0.0031
1495.0,-0.0032
1494.0,-0.0033
1493.0,-0.0033
1492.0,-0.0034
1491.0,-0.0034
1490.0,-0.0033
1489.0,-0.0032
1488.0,-0.0031
1487.0,-0.0031
1486.0,-0.0031
1485.0,-0.0031
1484.0,-0.003
1483.0,-0.003
1482.0,-0.0029
1481.0,-0.0028
1480.0,-0.0028
1479.0,-0.0027
1478.0,-0.0026
1477.0,-0.0024
1476.0,-0.0023
1475.0,-0.0021
1474.0,-0.0019
1473.0,-0.0014
1472.0,-0.0008
1471.0,-0.0002
1470.0,0.0003
1469.0,0.0009
1468.0,0.0016
1467.0,0.0024
1466.0,0.0036
1465.0,0.0052
1464.0,0.0067
1463.0,0.008
1462.0,0.009
1461.0,0.0101
1460.0,0.0111
1459.0,0.0123
1458.0,0.0137
1457.0,0.0151
1456.0,0.0159
1455.0,0.0162
1454.0,0.0162
1453.0,0.0162
1452.0,0.0161
1451.0,0.0158
1450.0,0.0155
1449.0,0.0151
1448.0,0.0146
1447.0,0.0139
1446.0,0.0132
1445.0,0.0124
1444.0,0.0114
1443.0,0.0102
1442.0,0.009
1441.0,0.0078
1440.0,0.0066
1439.0,0.0056
1438.0,0.0045
1437.0,0.0033
1436.0,0.0023
1435.0,0.0016
1434.0,0.0011
1433.0,0.0007
1432.0,0.0003
1431.0,-0.0001
1430.0,-0.0003
1429.0,-0.0006
1428.0,-0.0008
1427.0,-0.0009
1426.0,-0.001
1425.0,-0.0012
1424.0,-0.0014
1423.0,-0.0015
1422.0,-0.0016
1421.0,-0.0016
1420.0,-0.0017
1419.0,-0.0018
1418.0,-0.0018
1417.0,-0.0019
1416.0,-0.002
1415.0,-0.002
1414.0,-0.002
1413.0,-0.0021
1412.0,-0.0021
1411.0,-0.0021
1410.0,-0.0021
1409.0,-0.002
1408.0,-0.002
1407.0,-0.0019
1406.0,-0.0018
1405.0,-0.0018
1404.0,-0.0017
1403.0,-0.0015
1402.0,-0.0013
1401.0,-0.001
1400.0,-0.0007
1399.0,-0.0003
1398.0,0.0002
1397.0,0.0007
1396.0,0.0014
1395.0,0.0023
1394.0,0.0034
1393.0,0.0044
1392.0,0.0054
1391.0,0.0065
1390.0,0.0076
1389.0,0.0089
1388.0,0.0103
1387.0,0.0116
1386.0,0.0126
1385.0,0.0131
1384.0,0.0134
1383.0,0.0134
1382.0,0.0132
1381.0,0.0127
1380.0,0.0119
1379.0,0.0109
1378.0,0.0099
1377.0,0.0092
1376.0,0.0087
1375.0,0.0087
1374.0,0.0092
1373.0,0.01
1372.0,0.0109
1371.0,0.0117
1370.0,0.0124
1369.0,0.013
1368.0,0.0133
1367.0,0.0136
1366.0,0.0138
1365.0,0.0141
1364.0,0.0145
1363.0,0.015
1362.0,0.0156
1361.0,0.016
1360.0,0.0162
1359.0,0.0162
1358.0,0.0161
1357.0,0.0158
1356.0,0.0153
1355.0,0.0147
1354.0,0.014
1353.0,0.0132
1352.0,0.0124
1351.0,0.0116
1350.0,0.0108
1349.0,0.01
1348.0,0.0093
1347.0,0.0086
1346.0,0.008
1345.0,0.0075
1344.0,0.0069
1343.0,0.0065
1342.0,0.006
1341.0,0.0057
1340.0,0.0053
1339.0,0.005
1338.0,0.0047
1337.0,0.0044
1336.0,0.0041
1335.0,0.0038
1334.0,0.0036
1333.0,0.0034
1332.0,0.0032
1331.0,0.0031
1330.0,0.003
1329.0,0.0029
1328.0,0.0028
1327.0,0.0028
1326.0,0.0028
1325.0,0.0027
1324.0,0.0027
1323.0,0.0027
1322.0,0.0027
1321.0,0.0027
1320.0,0.0027
1319.0,0.0027
1318.0,0.0027
1317.0,0.0027
1316.0,0.0027
1315.0,0.0027
1314.0,0.0027
1313.0,0.0028
1312.0,0.0029
1311.0,0.0031
1310.0,0.0033
1309.0,0.0035
1308.0,0.0037
1307.0,0.0039
1306.0,0.0039
1305.0,0.004
1304.0,0.0039
1303.0,0.0039
1302.0,0.0039
1301.0,0.0038
1300.0,0.0038
1299.0,0.0038
1298.0,0.0038
1297.0,0.0038
1296.0,0.0037
1295.0,0.0037
1294.0,0.0036
1293.0,0.0035
1292.0,0.0032
1291.0,0.0029
1290.0,0.0027
1289.0,0.0025
1288.0,0.0025
1287.0,0.0026
1286.0,0.0029
1285.0,0.0032
1284.0,0.0036
1283.0,0.004
1282.0,0.0045
1281.0,0.005
1280.0,0.0056
1279.0,0.0061
1278.0,0.0066
1277.0,0.0071
1276.0,0.0075
1275.0,0.008
1274.0,0.0083
1273.0,0.0087
1272.0,0.009
1271.0,0.0092
1270.0,0.0093
1269.0,0.0094
1268.0,0.0094
1267.0,0.0094
1266.0,0.0094
1265.0,0.0093
1264.0,0.0091
1263.0,0.009
1262.0,0.0088
1261.0,0.0086
1260.0,0.0085
1259.0,0.0083
1258.0,0.0082
1257.0,0.008
1256.0,0.0079
1255.0,0.0077
1254.0,0.0075
1253.0,0.0074
1252.0,0.0073
1251.0,0.0073
1250.0,0.0073
1249.0,0.0073
1248.0,0.0073
1247.0,0.0073
1246.0,0.0074
1245.0,0.0075
1244.0,0.0077
1243.0,0.0078
1242.0,0.008
1241.0,0.0082
1240.0,0.0084
1239.0,0.0086
1238.0,0.0089
1237.0,0.0092
1236.0,0.0096
1235.0,0.0101
1234.0,0.0106
1233.0,0.0112
1232.0,0.0119
1231.0,0.0126
1230.0,0.0135
1229.0,0.0144
1228.0,0.0155
1227.0,0.0168
1226.0,0.0182
1225.0,0.0197
1224.0,0.0213
1223.0,0.023
1222.0,0.0248
1221.0,0.0265
1220.0,0.0283
1219.0,0.0302
1218.0,0.032
1217.0,0.0338
1216.0,0.0356
1215.0,0.0371
1214.0,0.0382
1213.0,0.039
1212.0,0.0394
1211.0,0.0395
1210.0,0.0392
1209.0,0.0387
1208.0,0.0382
1207.0,0.0377
1206.0,0.0372
1205.0,0.0369
1204.0,0.0369
1203.0,0.037
1202.0,0.0373
1201.0,0.0378
1200.0,0.0385
1199.0,0.0392
1198.0,0.0401
1197.0,0.0412
1196.0,0.0424
1195.0,0.0438
1194.0,0.0453
1193.0,0.0471
1192.0,0.049
1191.0,0.0511
1190.0,0.0534
1189.0,0.0559
1188.0,0.0586
1187.0,0.0615
1186.0,0.0644
1185.0,0.0673
1184.0,0.0701
1183.0,0.0727
1182.0,0.0748
1181.0,0.0764
1180.0,0.0772
1179.0,0.0769
1178.0,0.0755
1177.0,0.073
1176.0,0.0696
1175.0,0.0654
1174.0,0.0608
1173.0,0.0561
1172.0,0.0515
1171.0,0.047
1170.0,0.0427
1169.0,0.0388
1168.0,0.0353
1167.0,0.0321
1166.0,0.0293
1165.0,0.0269
1164.0,0.0247
1163.0,0.0228
1162.0,0.0211
1161.0,0.0196
1160.0,0.0183
1159.0,0.0172
1158.0,0.0163
1157.0,0.0154
1156.0,0.0147
1155.0,0.0141
1154.0,0.0138
1153.0,0.0136
1152.0,0.0137
1151.0,0.0139
1150.0,0.0145
1149.0,0.0152
1148.0,0.0164
1147.0,0.0178
1146.0,0.0196
1145.0,0.0217
1144.0,0.0241
1143.0,0.0268
1142.0,0.0296
1141.0,0.0326
1140.0,0.0358
1139.0,0.0391
1138.0,0.0424
1137.0,0.0455
1136.0,0.0485
1135.0,0.0512
1134.0,0.0536
1133.0,0.0555
1132.0,0.057
1131.0,0.0582
1130.0,0.059
1129.0,0.0593
1128.0,0.0593
1127.0,0.0586
1126.0,0.0575
1125.0,0.0559
1124.0,0.054
1123.0,0.052
1122.0,0.0499
1121.0,0.048
1120.0,0.0462
1119.0,0.0445
1118.0,0.0431
1117.0,0.0421
1116.0,0.0416
1115.0,0.0414
1114.0,0.0416
1113.0,0.0423
1112.0,0.0434
1111.0,0.0449
1110.0,0.0467
1109.0,0.0487
1108.0,0.051
1107.0,0.0533
1106.0,0.0556
1105.0,0.0579
1104.0,0.0602
1103.0,0.0624
1102.0,0.0647
1101.0,0.067
1100.0,0.0694
1099.0,0.0717
1098.0,0.074
1097.0,0.0762
1096.0,0.0785
1095.0,0.0807
1094.0,0.0828
1093.0,0.085
1092.0,0.0871
1091.0,0.0891
1090.0,0.0911
1089.0,0.093
1088.0,0.0949
1087.0,0.0967
1086.0,0.0984
1085.0,0.0998
1084.0,0.1011
1083.0,0.1021
1082.0,0.1027
1081.0,0.1031
1080.0,0.1033
1079.0,0.103
1078.0,0.1024
1077.0,0.1015
1076.0,0.1003
1075.0,0.0989
1074.0,0.0971
1073.0,0.0952
1072.0,0.093
1071.0,0.0907
1070.0,0.0881
1069.0,0.0854
1068.0,0.0826
1067.0,0.0797
1066.0,0.0768
1065.0,0.0742
1064.0,0.0718
1063.0,0.0696
1062.0,0.0676
1061.0,0.0659
1060.0,0.0645
1059.0,0.0634
1058.0,0.0627
1057.0,0.0624
1056.0,0.0623
1055.0,0.0624
1054.0,0.0627
1053.0,0.0633
1052.0,0.0639
1051.0,0.0647
1050.0,0.0655
1049.0,0.0665
1048.0,0.0676
1047.0,0.0688
1046.0,0.0699
1045.0,0.0709
1044.0,0.0715
1043.0,0.0717
1042.0,0.0716
1041.0,0.0714
1040.0,0.071
1039.0,0.0704
1038.0,0.0694
1037.0,0.0682
1036.0,0.0667
1035.0,0.0651
1034.0,0.0634
1033.0,0.0618
1032.0,0.0603
1031.0,0.0589
1030.0,0.0576
1029.0,0.0565
1028.0,0.0555
1027.0,0.0546
1026.0,0.0536
1025.0,0.0528
1024.0,0.0519
1023.0,0.051
1022.0,0.0501
1021.0,0.0491
1020.0,0.0481
1019.0,0.0471
1018.0,0.046
1017.0,0.0449
1016.0,0.0439
1015.0,0.0429
1014.0,0.042
1013.0,0.041
1012.0,0.0401
1011.0,0.0393
1010.0,0.0385
1009.0,0.0378
1008.0,0.0371
1007.0,0.0365
1006.0,0.0359
1005.0,0.0353
1004.0,0.0347
1003.0,0.0341
1002.0,0.0335
1001.0,0.033
1000.0,0.0326
999.0,0.0321
998.0,0.0316
997.0,0.0312
996.0,0.0308
995.0,0.0304
994.0,0.03
993.0,0.0297
992.0,0.0294
991.0,0.0291
990.0,0.0286
989.0,0.0282
988.0,0.0279
987.0,0.0276
986.0,0.0273
985.0,0.027
984.0,0.0266
983.0,0.0263
982.0,0.0259
981.0,0.0256
980.0,0.0253
979.0,0.025
978.0,0.0247
977.0,0.0245
976.0,0.0243
975.0,0.0241
974.0,0.0238
973.0,0.0235
972.0,0.0232
971.0,0.023
970.0,0.0228
969.0,0.0226
968.0,0.0225
967.0,0.0223
966.0,0.0221
965.0,0.022
964.0,0.0219
963.0,0.0219
962.0,0.022
961.0,0.0222
960.0,0.0224
959.0,0.0227
958.0,0.023
957.0,0.0231
956.0,0.0232
955.0,0.0232
954.0,0.0232
953.0,0.023
952.0,0.0228
951.0,0.0224
950.0,0.022
949.0,0.0217
948.0,0.0215
947.0,0.0213
946.0,0.0212
945.0,0.021
944.0,0.0208
943.0,0.0207
942.0,0.0205
941.0,0.0203
940.0,0.02
939.0,0.0197
938.0,0.0195
937.0,0.0194
936.0,0.0194
935.0,0.0194
934.0,0.0194
933.0,0.0195
932.0,0.0195
931.0,0.0195
930.0,0.0195
929.0,0.0194
928.0,0.0195
927.0,0.0195
926.0,0.0196
925.0,0.0198
924.0,0.0199
923.0,0.0201
922.0,0.0202
921.0,0.0202
920.0,0.0202
919.0,0.0202
918.0,0.0201
917.0,0.02
916.0,0.0198
915.0,0.0196
914.0,0.0194
913.0,0.0193
912.0,0.0191
911.0,0.019
910.0,0.0188
909.0,0.0187
908.0,0.0185
907.0,0.0184
906.0,0.0183
905.0,0.0183
904.0,0.0182
903.0,0.0181
902.0,0.0181
901.0,0.018
900.0,0.018
899.0,0.018
898.0,0.018
897.0,0.018
896.0,0.0178
895.0,0.0177
894.0,0.0175
893.0,0.0173
892.0,0.0171
891.0,0.0169
890.0,0.0167
889.0,0.0165
888.0,0.0165
887.0,0.0164
886.0,0.0163
885.0,0.0162
884.0,0.0161
883.0,0.0162
882.0,0.0166
881.0,0.0173
880.0,0.0181
879.0,0.0192
878.0,0.0204
877.0,0.0218
876.0,0.0234
875.0,0.0252
874.0,0.027
873.0,0.0285
872.0,0.0297
871.0,0.0303
870.0,0.0306
869.0,0.0305
868.0,0.0302
867.0,0.0298
866.0,0.0293
865.0,0.0287
864.0,0.0282
863.0,0.0277
862.0,0.0271
861.0,0.0264
860.0,0.0257
859.0,0.0247
858.0,0.0238
857.0,0.0228
856.0,0.0219
855.0,0.0211
854.0,0.0203
853.0,0.0198
852.0,0.0194
851.0,0.0191
850.0,0.019
849.0,0.0189
848.0,0.0187
847.0,0.0185
846.0,0.0182
845.0,0.0178
844.0,0.0174
843.0,0.0171
842.0,0.0168
841.0,0.0165
840.0,0.0163
839.0,0.016
838.0,0.0157
837.0,0.0155
836.0,0.0153
835.0,0.015
834.0,0.0148
833.0,0.0146
832.0,0.0145
831.0,0.0144
830.0,0.0142
829.0,0.014
828.0,0.0138
827.0,0.0139
826.0,0.0139
825.0,0.0139
824.0,0.0138
823.0,0.0136
822.0,0.0134
821.0,0.0133
820.0,0.0131
819.0,0.0129
818.0,0.0128
817.0,0.0127
816.0,0.0127
815.0,0.0127
814.0,0.0126
813.0,0.0125
812.0,0.0124
811.0,0.0123
810.0,0.0122
809.0,0.012
808.0,0.012
807.0,0.0119
806.0,0.012
805.0,0.012
804.0,0.012
803.0,0.012
802.0,0.012
801.0,0.012
800.0,0.012
799.0,0.012
798.0,0.012
797.0,0.0118
796.0,0.0117
795.0,0.0116
794.0,0.0116
793.0,0.0117
792.0,0.0118
791.0,0.0119
790.0,0.012
789.0,0.012
788.0,0.0121
787.0,0.0122
786.0,0.0123
785.0,0.0125
784.0,0.0126
783.0,0.0128
782.0,0.013
781.0,0.0132
780.0,0.0134
779.0,0.0136
778.0,0.0138
777.0,0.0141
776.0,0.0144
775.0,0.0146
774.0,0.0149
773.0,0.0154
772.0,0.0159
771.0,0.0164
770.0,0.0169
769.0,0.0174
768.0,0.018
767.0,0.0186
766.0,0.0194
765.0,0.0202
764.0,0.0212
763.0,0.0225
762.0,0.0241
761.0,0.0259
760.0,0.0278
759.0,0.0297
758.0,0.0312
757.0,0.0325
756.0,0.0334
755.0,0.0338
754.0,0.0337
753.0,0.0331
752.0,0.0322
751.0,0.0313
750.0,0.0305
749.0,0.0297
748.0,0.0291
747.0,0.0284
746.0,0.0277
745.0,0.0271
744.0,0.0266
743.0,0.0263
742.0,0.0262
741.0,0.0264
740.0,0.0266
739.0,0.0268
738.0,0.0267
737.0,0.0264
736.0,0.0259
735.0,0.0252
734.0,0.0244
733.0,0.0233
732.0,0.0222
731.0,0.021
730.0,0.02
729.0,0.0193
728.0,0.0188
727.0,0.0185
726.0,0.0184
725.0,0.0186
724.0,0.0189
723.0,0.0193
722.0,0.02
721.0,0.0208
720.0,0.0217
719.0,0.0225
718.0,0.0233
717.0,0.024
716.0,0.0247
715.0,0.0254
714.0,0.0261
713.0,0.027
712.0,0.0278
711.0,0.0284
710.0,0.0286
709.0,0.0286
708.0,0.0285
707.0,0.0286
706.0,0.0287
705.0,0.0288
704.0,0.0288
703.0,0.0288
702.0,0.0291
701.0,0.0293
700.0,0.0292
699.0,0.0285
698.0,0.0278
697.0,0.0273
696.0,0.0274
695.0,0.0279
694.0,0.0284
693.0,0.0291
692.0,0.0298
691.0,0.0304
690.0,0.0307
689.0,0.0308
688.0,0.0309
687.0,0.031
686.0,0.0312
685.0,0.0316
684.0,0.0322
683.0,0.0327
682.0,0.0329
681.0,0.0327
680.0,0.0322
679.0,0.032
678.0,0.032
677.0,0.032
676.0,0.0313
675.0,0.03
674.0,0.0286
673.0,0.0279
672.0,0.0278
671.0,0.028
670.0,0.0286
669.0,0.0297
668.0,0.0299
667.0,0.0286
666.0,0.0274
665.0,0.0268
664.0,0.0268
663.0,0.0273
662.0,0.0278
661.0,0.0279
660.0,0.0274
659.0,0.0266
658.0,0.0259
657.0,0.0254
656.0,0.025
655.0,0.0245
654.0,0.0239
653.0,0.0235
652.0,0.0236
651.0,0.0241
650.0,0.0245
649.0,0.0246
648.0,0.0245
647.0,0.0243
646.0,0.0243
645.0,0.0245
644.0,0.0244
643.0,0.0241
642.0,0.0235
641.0,0.0231
640.0,0.0228
639.0,0.0227
638.0,0.0227
637.0,0.0227
636.0,0.0228
635.0,0.0227
634.0,0.0224
633.0,0.0223
632.0,0.0223
631.0,0.0224
630.0,0.0228
629.0,0.0232
628.0,0.0234
627.0,0.0232
626.0,0.023
625.0,0.0228
624.0,0.0227
623.0,0.0223
622.0,0.0217
621.0,0.0214
620.0,0.0213
619.0,0.0212
618.0,0.021
617.0,0.0207
616.0,0.0204
615.0,0.0201
614.0,0.0199
613.0,0.0199
612.0,0.0201
611.0,0.0203
610.0,0.0207
609.0,0.0213
608.0,0.0219
607.0,0.0223
606.0,0.0224
605.0,0.0223
604.0,0.022
603.0,0.0216
602.0,0.0214
601.0,0.0214
600.0,0.0217
