nm,Intensity
791.588,5867.4
791.862,5834.1
792.136,5817.9
792.411,5725.8
792.685,5652.9
792.959,5625.4
793.233,5597.9
793.507,5569.4
793.781,5536.9
794.056,5564.8
794.33,5532.2
794.604,5517.3
794.878,5516.7
795.152,5504.0
795.426,5489.2
795.701,5499.5
795.975,5460.4
796.249,5411.6
796.523,5392.5
796.797,5378.1
797.071,5345.5
797.345,5355.3
797.619,5339.7
797.894,5315.5
798.168,5314.1
798.442,5306.6
798.716,5326.7
798.99,5312.1
799.264,5296.2
799.538,5269.5
799.812,5276.1
800.086,5284.2
800.36,5260.0
800.634,5302.4
800.908,5283.3
801.182,5261.0
801.456,5264.7
801.73,5223.3
802.004,5248.5
802.278,5219.6
802.552,5224.8
802.826,5229.5
803.1,5190.6
803.374,5207.3
803.648,5209.1
803.922,5210.1
804.196,5189.2
804.47,5216.0
804.744,5229.3
805.018,5223.1
805.292,5195.5
805.566,5209.1
805.84,5204.5
806.114,5194.6
806.388,5216.1
806.662,5193.9
806.936,5174.9
807.209,5178.7
807.483,5194.2
807.757,5211.1
808.031,5181.1
808.305,5195.6
808.579,5194.2
808.853,5209.6
809.127,5202.4
809.4,5203.3
809.674,5243.6
809.948,5248.0
810.222,5327.5
810.496,5363.4
810.77,5295.9
811.043,5249.4
811.317,5214.5
811.591,5196.1
811.865,5197.3
812.139,5206.9
812.412,5186.2
812.686,5194.7
812.96,5222.3
813.234,5232.5
813.507,5230.5
813.781,5225.4
814.055,5254.6
814.329,5183.3
814.602,5193.4
814.876,5188.4
815.15,5133.7
815.424,5164.7
815.697,5153.9
815.971,5137.9
816.245,5143.3
816.518,5159.5
816.792,5167.5
817.066,5161.6
817.34,5140.9
817.613,5121.8
817.887,5145.6
818.161,5151.5
818.434,5148.9
818.708,5174.2
818.981,5181.7
819.255,5127.9
819.529,5132.6
819.802,5113.9
820.076,5098.8
820.35,5131.9
820.623,5125.3
820.897,5090.3
821.17,5103.9
821.444,5107.5
821.718,5123.8
821.991,5106.2
822.265,5071.7
822.538,5043.4
822.812,5077.5
823.085,5086.2
823.359,5069.6
823.632,5078.9
823.906,5082.6
824.18,5089.2
824.453,5088.6
824.727,5049.4
825.0,5051.1
825.274,5067.2
825.547,5062.7
825.821,5041.6
826.094,5037.6
826.367,5026.2
826.641,5006.9
826.914,5017.8
827.188,5013.0
827.461,5007.3
827.735,5017.0
828.008,5014.4
828.282,4987.4
828.555,4987.1
828.828,4977.3
829.102,4988.5
829.375,5001.6
829.649,5011.4
829.922,4986.1
830.195,4975.4
830.469,4956.1
830.742,4963.3
831.016,4975.1
831.289,4956.5
831.562,4936.9
831.836,4945.9
832.109,4963.5
832.382,4939.7
832.656,4947.8
832.929,4981.9
833.202,4962.7
833.476,4950.5
833.749,4963.5
834.022,4940.6
834.295,4935.0
834.569,4949.6
834.842,4939.7
835.115,4944.9
835.388,4937.8
835.662,4945.5
835.935,4942.9
836.208,4940.5
836.481,4950.1
836.755,4946.7
837.028,4934.9
837.301,4987.8
837.574,5037.0
837.848,5082.0
838.121,5125.7
838.394,5076.1
838.667,5033.4
838.94,5006.6
839.213,4993.6
839.487,4980.3
839.76,4967.7
840.033,4996.0
840.306,5014.7
840.579,5034.4
840.852,4997.2
841.125,4966.6
841.399,4930.9
841.672,4937.5
841.945,4890.9
842.218,4903.6
842.491,4934.4
842.764,4877.8
843.037,4894.2
843.31,4918.3
843.583,4910.8
843.856,4928.0
844.129,4909.0
844.402,4879.5
844.675,4876.2
844.948,4864.6
845.221,4916.8
845.495,4925.3
845.768,4900.7
846.041,4891.7
846.314,4878.1
846.586,4868.0
846.859,4876.4
847.132,4876.0
847.405,4898.9
847.678,4904.7
847.951,4894.9
848.224,4889.5
848.497,4863.8
848.77,4872.2
849.043,4905.3
849.316,4924.7
849.589,4918.1
849.862,4915.9
850.135,4915.9
850.408,4893.3
850.681,4893.3
850.953,4864.8
851.226,4901.0
851.499,4910.9
851.772,4878.0
852.045,4895.3
852.318,4884.9
852.591,4891.3
852.863,4875.2
853.136,4881.6
853.409,4882.3
853.682,4853.0
853.955,4859.9
854.227,4871.4
854.5,4861.0
854.773,4845.9
855.046,4844.4
855.318,4843.0
855.591,4868.6
855.864,4862.4
856.137,4838.8
856.409,4803.2
856.682,4829.9
856.955,4850.8
857.228,4848.5
857.5,4832.5
857.773,4798.1
858.046,4795.5
858.318,4801.8
858.591,4795.0
858.864,4818.1
859.137,4818.3
859.409,4821.7
859.682,4777.7
859.954,4772.7
860.227,4816.9
860.5,4812.0
860.772,4773.3
861.045,4809.1
861.318,4783.6
861.59,4806.9
861.863,4827.8
862.135,4820.1
862.408,4824.1
862.681,4845.2
862.953,4856.7
863.226,4842.4
863.498,4834.2
863.771,4840.4
864.043,4818.3
864.316,4833.8
864.588,4792.0
864.861,4754.8
865.133,4769.2
865.406,4796.6
865.678,4763.3
865.951,4729.9
866.223,4735.2
866.496,4742.7
866.768,4721.6
867.041,4730.1
867.313,4777.4
867.586,4757.1
867.858,4753.7
868.131,4724.0
868.403,4736.5
868.675,4703.3
868.948,4734.5
869.22,4728.9
869.493,4712.5
869.765,4693.8
870.037,4696.3
870.31,4724.8
870.582,4724.3
870.854,4703.0
871.127,4680.7
871.399,4669.4
871.672,4674.5
871.944,4700.0
872.216,4702.0
872.488,4667.5
872.761,4668.6
873.033,4675.2
873.305,4676.8
873.578,4719.3
873.85,4720.5
874.122,4681.7
874.394,4666.1
874.667,4653.2
874.939,4662.7
875.211,4670.3
875.483,4720.6
875.756,4724.8
876.028,4719.2
876.3,4697.8
876.572,4704.3
876.845,4719.1
877.117,4670.1
877.389,4665.9
877.661,4667.8
877.933,4661.5
878.205,4637.5
878.478,4637.7
878.75,4616.0
879.022,4607.1
879.294,4590.6
879.566,4611.3
879.838,4611.3
880.11,4621.0
880.382,4604.3
880.654,4579.8
880.927,4562.0
881.199,4571.6
881.471,4552.8
881.743,4562.6
882.015,4542.8
882.287,4547.9
882.559,4534.3
882.831,4551.9
883.103,4541.5
883.375,4554.9
883.647,4569.1
883.919,4569.7
884.191,4598.1
884.463,4590.9
884.735,4587.1
885.007,4596.8
885.279,4600.2
885.551,4625.4
885.823,4616.8
886.095,4608.0
886.367,4599.1
886.639,4598.5
886.91,4591.8
887.182,4569.4
887.454,4545.7
887.726,4526.3
887.998,4523.0
888.27,4493.1
888.542,4480.7
888.814,4493.9
889.085,4477.7
889.357,4477.4
889.629,4481.2
889.901,4488.0
890.173,4483.9
890.445,4479.4
890.716,4475.7
890.988,4461.5
891.26,4480.5
891.532,4463.8
891.804,4493.4
892.075,4483.3
892.347,4466.1
892.619,4464.1
892.891,4442.5
893.162,4467.5
893.434,4461.5
893.706,4460.0
893.978,4429.4
894.249,4418.3
894.521,4421.9
894.793,4417.2
895.064,4442.7
895.336,4431.2
895.608,4428.5
895.879,4432.5
896.151,4398.8
896.423,4402.0
896.694,4401.8
896.966,4420.0
897.237,4398.5
897.509,4416.5
897.781,4407.2
898.052,4413.7
898.324,4383.0
898.595,4393.9
898.867,4383.8
899.139,4373.3
899.41,4374.3
899.682,4353.1
899.953,4356.6
900.225,4365.2
900.496,4376.9
900.768,4364.7
901.039,4345.2
901.311,4345.8
901.582,4345.9
901.854,4350.2
902.125,4375.4
902.397,4353.9
902.668,4343.1
902.94,4341.3
903.211,4354.7
903.482,4338.4
903.754,4309.7
904.025,4325.7
904.297,4320.5
904.568,4312.3
904.839,4313.0
905.111,4302.7
905.382,4314.0
905.654,4313.9
905.925,4311.4
906.196,4293.0
906.468,4303.7
906.739,4291.1
907.01,4308.0
907.282,4287.5
907.553,4276.7
907.824,4290.8
908.096,4276.1
908.367,4279.8
908.638,4277.7
908.909,4270.1
909.181,4265.6
909.452,4258.6
909.723,4263.1
909.994,4259.3
910.266,4253.8
910.537,4263.8
910.808,4252.3
911.079,4243.2
911.35,4221.5
911.622,4234.2
911.893,4238.9
912.164,4233.7
912.435,4225.8
912.706,4232.2
912.977,4216.4
913.249,4221.4
913.52,4224.4
913.791,4218.2
914.062,4220.4
914.333,4209.0
914.604,4208.6
914.875,4201.4
915.146,4203.0
915.417,4176.6
915.688,4192.2
915.959,4190.7
916.231,4186.7
916.502,4191.2
916.773,4187.7
917.044,4181.5
917.315,4177.6
917.586,4180.7
917.857,4171.0
918.128,4164.5
918.399,4164.9
918.67,4163.6
918.941,4165.4
919.211,4177.4
919.482,4162.1
919.753,4160.4
920.024,4157.6
920.295,4147.2
920.566,4139.1
920.837,4134.3
921.108,4132.2
921.379,4138.8
921.65,4134.9
921.921,4133.1
922.191,4121.6
922.462,4127.0
922.733,4117.9
923.004,4127.4
923.275,4116.9
923.546,4115.9
923.816,4121.8
924.087,4133.9
924.358,4123.2
924.629,4117.0
924.9,4109.8
925.17,4100.5
925.441,4087.9
925.712,4085.4
925.983,4085.6
926.253,4087.1
926.524,4081.3
926.795,4090.5
927.065,4102.5
927.336,4082.2
927.607,4096.1
927.877,4083.6
928.148,4075.1
928.419,4075.9
928.689,4069.5
928.96,4055.5
929.231,4051.9
929.501,4060.6
929.772,4060.3
930.043,4057.8
930.313,4049.2
930.584,4054.9
930.854,4048.5
931.125,4039.5
931.396,4052.6
931.666,4037.3
931.937,4053.5
932.207,4050.1
932.478,4045.5
932.748,4047.6
933.019,4036.7
933.289,4038.3
933.56,4036.8
933.83,4018.7
934.101,4020.6
934.371,4019.1
934.642,4019.2
934.912,4024.3
935.183,4020.4
935.453,4016.8
935.723,4016.2
935.994,4016.3
936.264,4012.5
936.535,4008.3
936.805,4004.6
937.075,3999.4
937.346,4002.0
937.616,3997.8
937.886,3998.0
938.157,4002.5
938.427,3999.2
938.697,4001.2
938.968,3985.8
939.238,3988.6
939.508,3990.5
939.779,3985.7
940.049,3987.9
940.319,3989.7
940.59,3988.7
940.86,3990.3
941.13,3991.8
941.4,3979.9
941.671,3974.5
941.941,3978.3
942.211,3980.3
942.481,3980.8
942.751,3966.2
943.022,3966.0
943.292,3956.2
943.562,3966.6
943.832,3970.7
944.102,3959.8
944.372,3958.6
944.642,3956.2
944.913,3958.4
945.183,3971.0
945.453,3965.5
945.723,3958.7
945.993,3956.6
946.263,3955.4
946.533,3957.8
946.803,3951.9
947.073,3945.4
947.343,3939.9
947.613,3942.5
947.883,3934.0
948.153,3940.4
948.423,3937.9
948.693,3936.2
948.963,3933.4
949.233,3932.6
949.503,3931.5
949.773,3938.9
950.043,3931.4
950.313,3922.4
950.583,3922.2
950.853,3929.0
951.123,3925.9
951.393,3925.8
951.663,3928.4
951.933,3923.2
952.202,3922.1
952.472,3922.4
952.742,3917.4
953.012,3921.6
953.282,3923.2
953.552,3915.0
953.822,3915.1
954.091,3913.9
954.361,3912.0
954.631,3906.2
954.901,3908.7
955.17,3911.9
955.44,3911.9
955.71,3903.0
955.98,3901.8
956.25,3899.8
956.519,3900.1
956.789,3900.2
957.059,3899.5
957.328,3902.7
957.598,3899.8
957.868,3895.6
958.137,3901.8
958.407,3890.9
958.677,3890.8
958.946,3888.8
959.216,3888.9
959.486,3893.5
959.755,3886.0
960.025,3890.2
960.294,3884.5
960.564,3884.9
960.834,3876.7
961.103,3877.3
961.373,3882.4
961.642,3888.3
961.912,3882.2
962.181,3877.4
962.451,3881.9
962.72,3874.6
962.99,3877.6
963.259,3877.4
963.529,3880.8
963.798,3871.8
964.068,3875.2
964.337,3875.5
964.607,3868.2
964.876,3870.5
965.146,3869.2
965.415,3863.4
965.684,3865.5
965.954,3860.9
966.223,3858.3
966.493,3863.5
966.762,3859.4
967.031,3864.5
967.301,3859.1
967.57,3859.3
967.839,3862.3
968.109,3864.6
968.378,3861.8
968.647,3858.2
968.917,3855.8
969.186,3854.8
969.455,3852.4
969.724,3851.8
969.994,3853.4
970.263,3845.1
970.532,3845.4
970.801,3849.1
971.071,3852.3
971.34,3847.2
971.609,3845.6
971.878,3847.6
972.147,3850.5
972.417,3846.5
972.686,3839.8
972.955,3837.3
973.224,3838.5
973.493,3843.8
973.762,3839.3
974.031,3837.4
974.3,3835.8
974.57,3834.6
974.839,3837.9
975.108,3835.8
975.377,3839.0
975.646,3839.7
975.915,3833.8
976.184,3834.0
976.453,3832.4
976.722,3833.0
976.991,3827.7
977.26,3830.0
977.529,3830.4
977.798,3825.8
978.067,3828.1
978.336,3827.1
978.605,3828.8
978.874,3823.2
979.143,3823.4
979.412,3827.4
979.68,3825.2
979.949,3824.5
980.218,3820.1
980.487,3828.7
980.756,3823.0
981.025,3822.9
981.294,3821.5
981.563,3821.2
981.831,3822.9
982.1,3821.5
982.369,3827.1
982.638,3823.5
982.907,3820.0
983.175,3816.2
983.444,3819.0
983.713,3816.7
983.982,3819.4
984.25,3816.7
984.519,3819.1
984.788,3814.9
985.057,3814.6
985.325,3816.7
985.594,3812.1
985.863,3812.4
986.131,3813.0
986.4,3811.8
986.669,3812.8
986.937,3812.7
987.206,3813.1
987.475,3809.4
987.743,3816.4
988.012,3812.7
988.28,3810.6
988.549,3813.9
988.817,3809.1
989.086,3809.6
989.355,3810.7
989.623,3812.0
989.892,3805.9
990.16,3809.8
990.429,3807.9
990.697,3806.6
990.966,3804.2
991.234,3807.0
991.503,3806.8
991.771,3806.8
992.04,3809.2
992.308,3807.1
992.576,3805.0
992.845,3806.9
993.113,3804.4
993.382,3804.1
993.65,3800.4
993.918,3802.8
994.187,3802.7
994.455,3798.8
994.723,3803.3
994.992,3800.7
995.26,3802.7
995.528,3800.6
995.797,3798.1
996.065,3799.6
996.333,3803.4
996.602,3800.6
996.87,3803.9
997.138,3802.9
997.406,3800.0
997.675,3802.0
997.943,3802.9
998.211,3801.2
998.479,3800.7
998.747,3799.0
999.016,3799.8
999.284,3797.7
999.552,3796.3
999.82,3800.8
1000.09,3800.0
1000.36,3795.0
1000.62,3794.7
1000.89,3795.8
1001.16,3795.4
1001.43,3793.3
1001.7,3795.0
1001.97,3790.3
1002.23,3792.7
1002.5,3792.1
1002.77,3787.8
1003.04,3788.9
1003.31,3792.7
1003.57,3789.8
1003.84,3791.4
1004.11,3790.7
1004.38,3791.9
1004.65,3788.2
1004.91,3790.4
1005.18,3791.0
1005.45,3791.2
1005.72,3788.6
1005.98,3787.7
1006.25,3789.1
1006.52,3789.4
1006.79,3788.0
1007.06,3790.5
1007.32,3786.7
1007.59,3788.6
1007.86,3785.5
1008.13,3787.8
1008.4,3788.9
1008.66,3791.8
1008.93,3792.8
1009.2,3794.7
1009.47,3795.1
1009.73,3793.8
1010.0,3796.2
1010.27,3800.1
1010.54,3797.4
1010.81,3800.7
1011.07,3798.3
1011.34,3798.2
1011.61,3801.3
1011.88,3797.3
1012.14,3800.9
1012.41,3799.5
1012.68,3801.0
1012.95,3804.9
1013.21,3806.2
1013.48,3806.9
1013.75,3806.7
1014.02,3809.8
1014.29,3810.8
1014.55,3809.7
1014.82,3805.1
1015.09,3807.2
1015.36,3808.2
1015.62,3809.9
1015.89,3809.7
1016.16,3803.1
1016.43,3805.2
1016.69,3801.1
1016.96,3800.2
1017.23,3801.2
1017.5,3801.4
1017.76,3798.0
1018.03,3798.1
1018.3,3798.0
1018.57,3796.1
1018.83,3794.9
1019.1,3789.9
1019.37,3792.5
1019.63,3791.4
1019.9,3788.9
1020.17,3789.0
1020.44,3785.6
1020.7,3787.6
1020.97,3788.0
1021.24,3788.7
1021.51,3785.0
1021.77,3783.5
1022.04,3784.5
1022.31,3783.1
1022.58,3781.5
1022.84,3781.9
1023.11,3782.5
1023.38,3785.1
1023.64,3778.2
1023.91,3782.1
1024.18,3778.0
1024.45,3777.1
1024.71,3778.2
1024.98,3774.3
1025.25,3775.0
1025.51,3773.9
1025.78,3772.4
1026.05,3774.9
1026.32,3772.8
1026.58,3772.4
1026.85,3772.4
1027.12,3773.2
1027.38,3772.3
1027.65,3771.6
1027.92,3772.7
1028.19,3770.4
1028.45,3771.2
1028.72,3773.2
1028.99,3770.1
1029.25,3770.5
1029.52,3766.8
1029.79,3769.4
1030.05,3769.2
1030.32,3771.0
1030.59,3769.6
1030.85,3769.2
1031.12,3770.8
1031.39,3770.1
1031.66,3768.2
1031.92,3769.0
1032.19,3768.7
1032.46,3768.4
1032.72,3768.8
1032.99,3767.7
1033.26,3769.1
1033.52,3767.4
1033.79,3769.0
1034.06,3766.9
1034.32,3767.5
1034.59,3766.5
1034.86,3768.2
1035.12,3767.9
1035.39,3767.5
1035.66,3769.3
1035.92,3767.0
1036.19,3765.8
1036.46,3766.7
1036.72,3767.0
1036.99,3768.1
1037.26,3767.0
1037.52,3768.4
1037.79,3767.5
1038.06,3766.2
1038.32,3765.1
1038.59,3766.9
1038.86,3765.0
1039.12,3766.8
1039.39,3766.2
1039.66,3767.2
1039.92,3768.3
1040.19,3766.1
1040.46,3763.0
1040.72,3767.2
1040.99,3763.2
1041.26,3766.9
1041.52,3765.9
1041.79,3765.3
1042.06,3765.5
1042.32,3766.3
1042.59,3763.6
1042.86,3764.0
1043.12,3764.6
1043.39,3765.5
1043.65,3764.2
1043.92,3764.8
1044.19,3763.7
1044.45,3764.7
1044.72,3765.3
1044.99,3764.5
1045.25,3764.1
1045.52,3762.7
1045.79,3764.1
1046.05,3765.0
1046.32,3762.6
1046.58,3763.1
1046.85,3764.2
1047.12,3765.3
1047.38,3766.1
1047.65,3764.2
1047.92,3763.2
1048.18,3762.5
1048.45,3763.8
1048.71,3764.2
1048.98,3765.4
1049.25,3765.5
1049.51,3763.1
1049.78,3762.7
1050.04,3760.7
1050.31,3763.8
1050.58,3764.9
1050.84,3763.6
1051.11,3762.8
1051.37,3763.3
1051.64,3763.5
1051.91,3765.1
1052.17,3763.7
1052.44,3761.7
1052.7,3763.4
1052.97,3763.6
1053.24,3762.7
1053.5,3762.7
1053.77,3763.0
1054.03,3762.8
1054.3,3762.3
1054.57,3762.8
1054.83,3763.7
1055.1,3764.8
1055.36,3763.5
1055.63,3763.1
1055.9,3762.2
1056.16,3762.6
1056.43,3763.6
1056.69,3761.8
1056.96,3761.7
1057.23,3763.1
1057.49,3765.0
1057.76,3763.8
1058.02,3765.3
1058.29,3763.2
1058.55,3761.9
1058.82,3761.0
1059.09,3763.0
1059.35,3761.7
1059.62,3762.1
1059.88,3763.7
1060.15,3762.0
1060.41,3763.3
1060.68,3763.6
1060.95,3762.2
1061.21,3761.4
1061.48,3763.1
1061.74,3762.2
1062.01,3762.1
1062.27,3762.0
1062.54,3762.6
1062.8,3761.3
1063.07,3761.4
1063.34,3762.6
1063.6,3764.0
1063.87,3760.8
1064.13,3761.3
1064.4,3761.5
1064.66,3762.6
1064.93,3761.6
1065.19,3761.9
1065.46,3763.1
1065.73,3761.5
1065.99,3762.9
1066.26,3760.1
1066.52,3763.1
1066.79,3762.0
1067.05,3762.5
1067.32,3762.5
1067.58,3762.0
1067.85,3761.1
1068.11,3759.8
