nm,Intensity
526.5,828.7
526.637,828.8
526.774,829.2
526.91,829.9
527.047,828.9
527.184,830.0
527.32,830.2
527.457,829.0
527.594,830.3
527.73,828.9
527.867,829.9
528.004,829.6
528.14,827.8
528.277,829.2
528.414,830.3
528.55,827.9
528.687,830.0
528.823,829.3
528.96,827.9
529.096,829.5
529.233,827.9
529.37,829.3
529.506,828.9
529.643,829.9
529.779,827.4
529.916,829.6
530.052,828.9
530.189,830.1
530.325,830.0
530.462,829.0
530.598,830.0
530.735,830.4
530.871,828.7
531.008,828.9
531.144,829.4
531.28,829.3
531.417,829.6
531.553,829.1
531.69,830.5
531.826,829.5
531.962,834.2
532.099,870.9
532.235,892.6
532.372,844.9
532.508,831.1
532.644,829.8
532.781,829.6
532.917,829.0
533.053,828.8
533.19,829.3
533.326,830.6
533.462,828.9
533.599,829.5
533.735,832.1
533.871,847.0
534.007,868.2
534.144,874.6
534.28,874.6
534.416,868.3
534.552,868.2
534.689,873.5
534.825,876.0
534.961,880.6
535.097,885.6
535.234,881.7
535.37,877.3
535.506,866.3
535.642,858.3
535.778,854.0
535.914,851.1
536.051,848.2
536.187,845.9
536.323,846.4
536.459,846.5
536.595,847.5
536.731,854.1
536.867,855.1
537.003,860.3
537.14,870.1
537.276,864.1
537.412,857.5
537.548,851.8
537.684,846.9
537.82,847.8
537.956,846.1
538.092,845.8
538.228,845.2
538.364,845.4
538.5,845.6
538.636,845.3
538.772,847.3
538.908,847.7
539.044,849.9
539.18,852.4
539.316,854.4
539.452,855.9
539.588,851.0
539.724,849.3
539.86,846.1
539.996,845.4
540.132,844.4
540.268,842.5
540.403,839.8
540.539,840.7
540.675,840.6
540.811,838.9
540.947,841.6
541.083,841.4
541.219,845.0
541.355,846.9
541.49,847.5
541.626,846.0
541.762,841.5
541.898,841.7
542.034,840.2
542.17,841.5
542.305,839.1
542.441,838.6
542.577,840.9
542.713,838.5
542.848,842.2
542.984,840.9
543.12,843.2
543.256,845.1
543.391,849.8
543.527,862.7
543.663,893.9
543.799,891.6
543.934,864.3
544.07,855.5
544.206,846.2
544.341,843.8
544.477,844.9
544.613,841.2
544.748,845.5
544.884,843.6
545.02,845.0
545.155,849.9
545.291,857.6
545.427,860.1
545.562,855.0
545.698,847.0
545.833,843.0
545.969,842.2
546.105,841.1
546.24,839.6
546.376,839.1
546.511,837.6
546.647,838.7
546.782,838.9
546.918,839.4
547.053,840.1
547.189,842.1
547.325,846.7
547.46,849.5
547.596,854.0
547.731,850.5
547.867,845.6
548.002,842.8
548.137,839.2
548.273,839.9
548.408,838.0
548.544,836.6
548.679,838.5
548.815,838.4
548.95,837.6
549.086,837.2
549.221,836.9
549.356,834.9
549.492,836.8
549.627,837.7
549.763,835.6
549.898,836.6
550.033,836.7
550.169,836.1
550.304,837.5
550.439,837.0
550.575,836.1
550.71,836.9
550.845,836.3
550.981,837.5
551.116,837.1
551.251,836.0
551.387,836.9
551.522,836.2
551.657,838.3
551.793,837.2
551.928,836.7
552.063,836.1
552.198,835.1
552.334,837.3
552.469,835.3
552.604,835.9
552.739,835.2
552.874,836.3
553.01,838.0
553.145,836.0
553.28,835.4
553.415,836.6
553.55,836.7
553.686,836.6
553.821,837.2
553.956,837.6
554.091,836.3
554.226,837.7
554.361,838.3
554.497,836.8
554.632,839.3
554.767,840.1
554.902,839.9
555.037,837.6
555.172,840.2
555.307,841.3
555.442,842.5
555.577,846.1
555.712,851.7
555.848,862.9
555.983,911.1
556.118,970.7
556.253,935.6
556.388,879.5
556.523,862.4
556.658,860.1
556.793,868.3
556.928,879.4
557.063,898.5
557.198,894.3
557.333,868.8
557.468,856.6
557.603,852.0
557.738,847.6
557.873,847.3
558.008,844.3
558.142,841.8
558.277,842.8
558.412,842.2
558.547,842.3
558.682,843.1
558.817,848.1
558.952,850.2
559.087,848.1
559.222,845.6
559.357,840.8
559.492,840.7
559.626,840.9
559.761,840.8
559.896,843.2
560.031,848.3
560.166,854.7
560.301,855.9
560.435,851.0
560.57,846.1
560.705,847.1
560.84,851.2
560.975,856.8
561.109,878.6
561.244,914.3
561.379,894.5
561.514,859.5
561.649,848.4
561.783,848.1
561.918,856.6
562.053,861.9
562.188,854.6
562.322,850.7
562.457,847.1
562.592,848.5
562.726,845.1
562.861,846.8
562.996,851.8
563.131,859.5
563.265,863.8
563.4,862.9
563.535,858.6
563.669,855.2
563.804,846.1
563.939,846.4
564.073,845.0
564.208,844.7
564.342,843.9
564.477,842.2
564.612,843.8
564.746,844.3
564.881,844.9
565.015,844.2
565.15,843.1
565.285,849.5
565.419,847.7
565.554,845.9
565.688,844.7
565.823,845.1
565.957,844.7
566.092,846.5
566.227,844.2
566.361,845.6
566.496,849.7
566.63,855.0
566.765,873.0
566.899,898.7
567.034,900.8
567.168,895.3
567.303,905.3
567.437,927.7
567.572,911.3
567.706,874.2
567.84,855.1
567.975,847.9
568.109,848.7
568.244,849.1
568.378,848.1
568.513,847.5
568.647,849.6
568.781,854.0
568.916,859.4
569.05,871.8
569.185,872.8
569.319,860.5
569.453,853.8
569.588,851.4
569.722,848.3
569.857,849.5
569.991,848.0
570.125,856.9
570.26,865.6
570.394,861.2
570.528,851.6
570.663,847.5
570.797,848.6
570.931,848.9
571.065,848.8
571.2,849.2
571.334,850.8
571.468,852.9
571.603,860.8
571.737,859.8
571.871,864.2
572.005,861.1
572.14,854.9
572.274,859.6
572.408,873.2
572.542,887.4
572.677,924.4
572.811,920.5
572.945,886.5
573.079,865.1
573.213,862.0
573.348,856.1
573.482,864.3
573.616,877.5
573.75,886.0
573.884,873.9
574.018,863.3
574.153,858.0
574.287,861.4
574.421,852.8
574.555,847.4
574.689,844.3
574.823,843.8
574.957,842.4
575.092,842.4
575.226,843.3
575.36,843.4
575.494,842.8
575.628,841.5
575.762,844.1
575.896,846.1
576.03,858.7
576.164,881.4
576.298,885.6
576.432,877.2
576.566,879.2
576.7,899.6
576.834,927.7
576.968,955.9
577.103,954.3
577.237,908.9
577.371,874.8
577.505,856.2
577.639,850.7
577.773,847.6
577.907,843.2
578.04,843.0
578.174,840.9
578.308,841.4
578.442,837.8
578.576,840.3
578.71,841.3
578.844,842.8
578.978,841.6
579.112,839.4
579.246,839.6
579.38,840.6
579.514,840.1
579.648,838.4
579.782,838.7
579.916,839.9
580.049,838.2
580.183,841.2
580.317,838.0
580.451,837.9
580.585,838.7
580.719,837.8
580.853,838.3
580.986,839.7
581.12,839.8
581.254,838.2
581.388,839.1
581.522,839.6
581.656,839.3
581.789,838.6
581.923,838.6
582.057,838.5
582.191,837.6
582.325,838.6
582.458,839.2
582.592,839.9
582.726,839.3
582.86,841.1
582.993,839.1
583.127,839.9
583.261,839.5
583.395,840.9
583.528,839.0
583.662,839.5
583.796,840.2
583.93,840.6
584.063,839.6
584.197,837.2
584.331,839.2
584.464,840.7
584.598,839.6
584.732,840.0
584.865,839.8
584.999,840.5
585.133,840.6
585.266,839.1
585.4,839.0
585.534,840.3
585.667,838.7
585.801,837.0
585.935,837.3
586.068,837.3
586.202,839.1
586.336,837.3
586.469,838.1
586.603,837.2
586.736,838.5
586.87,840.2
587.004,836.9
587.137,837.6
587.271,838.9
587.404,838.4
587.538,841.1
587.671,839.0
587.805,837.5
587.938,838.0
588.072,838.2
588.206,836.2
588.339,837.4
588.473,839.6
588.606,836.3
588.74,839.2
588.873,839.6
589.007,837.6
589.14,837.8
589.274,836.1
589.407,837.6
589.541,836.9
589.674,837.3
589.808,839.2
589.941,838.9
590.074,838.8
590.208,837.2
590.341,837.6
590.475,838.5
590.608,837.9
590.742,837.0
590.875,839.6
591.009,837.9
591.142,838.0
591.275,838.2
591.409,838.7
591.542,837.5
591.676,840.8
591.809,839.2
591.942,838.2
592.076,837.2
592.209,838.4
592.342,838.7
592.476,838.3
592.609,836.1
592.743,837.8
592.876,837.2
593.009,837.8
593.143,837.2
593.276,838.1
593.409,839.8
593.543,838.4
593.676,836.8
593.809,836.4
593.942,838.4
594.076,838.1
594.209,837.0
594.342,837.0
594.476,837.2
594.609,837.9
594.742,837.3
594.875,838.3
595.009,838.0
595.142,838.0
595.275,835.7
595.408,838.5
595.542,838.2
595.675,838.7
595.808,840.0
595.941,838.5
596.075,836.3
596.208,838.1
596.341,837.1
596.474,838.4
596.607,837.3
596.741,838.3
596.874,837.3
597.007,840.7
597.14,838.1
597.273,837.2
597.406,836.1
597.54,840.3
597.673,839.2
597.806,838.0
597.939,838.1
598.072,837.0
598.205,838.1
598.338,838.3
598.472,838.0
598.605,838.1
598.738,838.6
598.871,837.4
599.004,838.0
599.137,837.0
599.27,836.9
599.403,839.0
599.536,837.6
599.67,839.0
599.803,837.2
599.936,837.1
600.069,838.4
600.202,837.5
600.335,839.7
600.468,838.3
600.601,836.5
600.734,838.1
600.867,838.1
601.0,836.6
601.133,837.6
601.266,838.0
601.399,836.0
601.532,837.0
601.665,837.6
601.798,838.5
601.931,836.6
602.064,837.6
602.197,838.9
602.33,837.6
602.463,837.7
602.596,837.4
602.729,837.8
602.862,838.7
602.995,839.1
603.128,838.3
603.261,838.4
603.394,838.8
603.527,836.6
603.66,836.3
603.793,839.2
603.925,837.6
604.058,838.6
604.191,839.7
604.324,836.8
604.457,839.7
604.59,836.8
604.723,838.5
604.856,839.5
604.989,838.4
605.122,838.2
605.254,838.4
605.387,837.3
605.52,837.4
605.653,838.1
605.786,840.6
605.919,839.3
606.052,837.0
606.184,837.3
606.317,840.2
606.45,839.5
606.583,836.9
606.716,838.3
606.849,838.6
606.981,838.6
607.114,839.5
607.247,841.6
607.38,839.7
607.513,838.5
607.645,840.5
607.778,840.5
607.911,839.8
608.044,839.7
608.177,838.0
608.309,839.3
608.442,840.0
608.575,838.3
608.708,838.7
608.84,838.0
608.973,837.5
609.106,839.1
609.239,838.5
609.371,839.9
609.504,840.0
609.637,837.9
609.769,839.8
609.902,839.2
610.035,836.7
610.168,838.3
610.3,838.5
610.433,837.5
610.566,839.3
610.698,838.9
610.831,838.8
610.964,839.1
611.096,839.5
611.229,840.1
611.362,838.9
611.494,839.6
611.627,838.7
611.76,837.5
611.892,837.9
612.025,840.5
612.158,839.3
612.29,838.0
612.423,837.7
612.556,839.9
612.688,837.2
612.821,839.6
612.953,838.2
613.086,839.9
613.219,837.5
613.351,838.6
613.484,838.6
613.616,837.4
613.749,839.6
613.882,837.6
614.014,838.6
614.147,837.6
614.279,838.9
614.412,838.4
614.544,840.8
614.677,838.9
614.809,837.8
614.942,839.1
615.075,840.1
615.207,841.3
615.34,840.6
615.472,840.9
615.605,840.8
615.737,840.6
615.87,840.9
616.002,838.7
616.135,838.7
616.267,839.8
616.4,840.4
616.532,839.3
616.665,840.4
616.797,840.4
616.93,843.8
617.062,841.2
617.195,843.0
617.327,841.3
617.46,841.3
617.592,840.6
617.725,842.3
617.857,841.5
617.989,844.0
618.122,841.4
618.254,842.3
618.387,843.2
618.519,841.0
618.652,842.4
618.784,843.8
618.917,842.6
619.049,844.1
619.181,841.9
619.314,845.0
619.446,844.8
619.579,848.4
619.711,847.6
619.843,851.0
619.976,848.1
620.108,847.3
620.241,847.4
620.373,847.7
620.505,846.0
620.638,847.7
620.77,848.7
620.902,844.9
621.035,848.7
621.167,848.1
621.299,850.2
621.432,851.6
621.564,851.3
621.696,856.0
621.829,858.6
621.961,866.3
622.093,871.2
622.226,877.2
622.358,889.5
622.49,886.0
622.623,873.3
622.755,868.9
622.887,865.0
623.02,860.2
623.152,858.6
623.284,855.8
623.416,854.4
623.549,851.1
623.681,851.2
623.813,846.3
623.946,846.9
624.078,846.9
624.21,846.6
624.342,846.9
624.475,846.3
624.607,844.9
624.739,846.5
624.871,844.5
625.004,847.0
625.136,847.2
625.268,849.4
625.4,850.1
625.533,851.3
625.665,850.7
625.797,853.6
625.929,854.0
626.061,860.5
626.194,864.6
626.326,874.2
626.458,891.7
626.59,918.8
626.722,979.8
626.855,1057.7
626.987,1097.3
627.119,1060.0
627.251,997.9
627.383,961.8
627.516,945.9
627.648,958.9
627.78,1013.3
627.912,1132.7
628.044,1221.3
628.176,1229.1
628.308,1241.2
628.441,1296.0
628.573,1359.0
628.705,1386.1
628.837,1362.3
628.969,1287.7
629.101,1237.4
629.233,1205.6
629.366,1213.5
629.498,1234.5
629.63,1233.9
629.762,1186.2
629.894,1141.2
630.026,1128.0
630.158,1135.6
630.29,1143.3
630.422,1126.6
630.554,1087.8
630.687,1040.8
630.819,1002.6
630.951,982.6
631.083,1001.7
631.215,1054.7
631.347,1136.9
631.479,1170.8
631.611,1191.1
631.743,1233.4
631.875,1209.6
632.007,1162.8
632.139,1087.3
632.271,1011.8
632.403,955.1
632.535,921.7
632.667,893.2
632.799,880.8
632.931,873.2
633.063,865.3
633.195,864.4
633.328,858.8
633.46,856.5
633.592,852.6
633.724,851.8
633.856,850.7
633.988,847.9
634.12,847.5
634.252,844.7
634.384,846.0
634.516,845.3
634.647,843.9
634.779,841.8
634.911,843.4
635.043,843.4
635.175,843.5
635.307,843.7
635.439,840.9
635.571,842.1
635.703,842.4
635.835,840.6
635.967,841.6
636.099,840.1
636.231,839.1
636.363,839.9
636.495,843.2
636.627,838.7
636.759,840.5
636.891,840.1
637.023,839.7
637.155,839.9
637.286,839.1
637.418,838.5
637.55,841.6
637.682,838.0
637.814,839.9
637.946,840.6
638.078,838.4
638.21,838.8
638.342,839.8
638.474,839.1
638.605,841.0
638.737,843.3
638.869,843.2
639.001,839.1
639.133,839.4
639.265,839.8
639.397,841.5
639.529,843.4
639.66,839.6
639.792,839.8
639.924,841.1
640.056,842.0
640.188,839.4
640.32,840.9
640.452,840.4
640.583,838.9
640.715,842.7
640.847,841.9
640.979,841.5
641.111,841.3
641.243,841.7
641.374,842.6
641.506,841.6
641.638,840.5
641.77,839.5
641.902,841.7
642.033,839.8
642.165,839.1
642.297,840.9
642.429,839.7
642.561,838.0
642.692,838.9
642.824,838.4
642.956,837.3
643.088,837.8
643.22,837.2
643.351,837.3
643.483,836.6
643.615,837.3
643.747,838.5
643.878,836.9
644.01,837.2
644.142,838.6
644.274,838.8
644.405,834.9
644.537,837.2
644.669,836.2
644.801,836.7
644.932,837.0
645.064,836.5
645.196,836.5
645.328,836.9
645.459,837.2
645.591,835.5
645.723,835.8
645.854,835.9
645.986,836.2
646.118,836.7
646.25,834.7
646.381,836.2
646.513,835.4
646.645,836.0
646.776,835.8
646.908,836.1
647.04,834.8
647.172,836.0
647.303,835.7
647.435,836.5
647.567,835.9
647.698,837.0
647.83,836.0
647.962,837.1
648.093,835.5
648.225,834.9
648.357,836.2
648.488,836.8
648.62,836.1
648.752,835.1
648.883,836.2
649.015,835.7
649.147,836.5
649.278,835.2
649.41,835.6
649.542,835.6
649.673,834.2
649.805,834.7
649.937,835.1
650.068,836.9
650.2,834.9
650.331,836.4
650.463,836.0
650.595,835.0
650.726,835.6
650.858,835.8
650.99,837.8
651.121,834.9
651.253,835.9
651.384,836.4
651.516,834.5
651.648,836.0
651.779,834.8
651.911,835.8
652.042,835.3
652.174,835.6
652.306,833.8
652.437,834.2
652.569,835.6
652.7,835.1
652.832,834.7
652.963,834.2
653.095,834.6
653.227,835.1
653.358,835.8
653.49,833.9
653.621,834.4
653.753,835.2
653.884,834.0
654.016,834.4
654.148,836.3
654.279,835.0
654.411,835.2
654.542,835.4
654.674,834.9
654.805,833.9
654.937,833.8
655.068,834.9
655.2,834.9
655.331,834.5
655.463,833.8
655.595,836.0
655.726,833.3
655.858,836.2
655.989,834.1
656.121,833.3
656.252,834.4
656.384,833.7
656.515,834.2
656.647,833.5
656.778,835.2
656.91,835.2
657.041,834.0
657.173,834.7
657.304,833.2
657.436,832.6
657.567,833.4
657.699,834.5
657.83,832.0
657.962,833.4
658.093,833.2
658.225,835.1
658.356,833.9
658.488,835.6
658.619,834.6
658.751,834.5
658.882,833.9
659.013,834.1
659.145,834.6
659.276,834.0
659.408,833.3
659.539,834.2
659.671,834.3
659.802,835.0
659.934,833.7
660.065,833.6
660.197,834.1
660.328,835.3
660.459,833.0
660.591,832.6
660.722,834.3
660.854,834.1
660.985,833.8
661.117,832.4
661.248,834.5
661.38,834.0
661.511,834.4
661.642,834.1
661.774,834.6
661.905,833.1
662.037,833.2
662.168,833.5
662.299,832.1
662.431,834.3
662.562,834.2
662.694,833.7
662.825,835.1
662.957,833.9
663.088,832.8
