nm,Intensity
526.495,827.1
526.632,828.9
526.768,830.8
526.905,829.0
527.042,828.3
527.179,829.9
527.315,827.6
527.452,830.0
527.589,829.4
527.725,829.2
527.862,829.6
527.999,829.2
528.136,829.0
528.272,828.8
528.409,828.8
528.546,829.0
528.682,829.1
528.819,829.2
528.955,829.2
529.092,829.5
529.229,829.5
529.365,829.0
529.502,829.0
529.639,830.3
529.775,828.7
529.912,829.8
530.048,828.4
530.185,829.3
530.321,829.0
530.458,829.0
530.594,828.9
530.731,829.2
530.867,829.3
531.004,829.4
531.14,828.4
531.277,828.7
531.413,828.4
531.55,829.3
531.686,830.0
531.823,830.2
531.959,832.9
532.096,855.1
532.232,865.9
532.369,838.1
532.505,829.0
532.641,831.0
532.778,830.3
532.914,829.1
533.051,828.7
533.187,828.3
533.323,829.5
533.46,829.1
533.596,832.4
533.732,833.0
533.869,851.9
534.005,874.3
534.141,877.7
534.278,878.2
534.414,875.8
534.55,874.0
534.687,880.8
534.823,887.2
534.959,889.9
535.095,898.4
535.232,898.3
535.368,888.2
535.504,869.4
535.64,861.9
535.777,855.6
535.913,853.2
536.049,849.6
536.185,851.0
536.321,846.7
536.457,848.6
536.594,850.2
536.73,853.6
536.866,859.9
537.002,869.7
537.138,874.7
537.274,867.7
537.41,861.1
537.547,853.6
537.683,850.9
537.819,846.8
537.955,847.8
538.091,846.9
538.227,845.3
538.363,846.3
538.499,845.2
538.635,848.8
538.771,846.0
538.907,847.8
539.043,851.1
539.179,854.4
539.315,857.8
539.451,859.4
539.587,854.4
539.723,851.8
539.859,846.8
539.995,843.6
540.131,843.0
540.267,841.1
540.403,840.0
540.539,840.3
540.675,840.0
540.811,840.6
540.947,841.5
541.083,842.3
541.219,846.5
541.354,847.8
541.49,847.2
541.626,845.3
541.762,840.6
541.898,841.8
542.034,840.3
542.17,837.3
542.305,837.7
542.441,838.2
542.577,837.4
542.713,839.4
542.849,839.7
542.984,838.8
543.12,840.8
543.256,843.6
543.392,854.0
543.528,874.6
543.663,912.9
543.799,913.8
543.935,875.8
544.071,857.8
544.206,847.5
544.342,846.1
544.478,840.0
544.613,843.7
544.749,842.9
544.885,844.6
545.02,845.0
545.156,853.4
545.292,863.6
545.427,865.6
545.563,859.1
545.699,850.1
545.834,843.4
545.97,841.2
546.106,839.6
546.241,837.7
546.377,837.6
546.512,838.7
546.648,838.0
546.784,838.5
546.919,837.5
547.055,841.9
547.19,841.2
547.326,848.0
547.461,853.7
547.597,856.8
547.732,852.4
547.868,846.3
548.003,843.0
548.139,839.4
548.274,839.2
548.41,839.1
548.545,838.0
548.681,835.7
548.816,836.2
548.952,837.4
549.087,835.0
549.223,835.3
549.358,833.8
549.494,835.2
549.629,834.5
549.764,834.3
549.9,834.4
550.035,833.9
550.171,835.0
550.306,834.6
550.441,834.0
550.577,833.6
550.712,834.7
550.847,834.3
550.983,835.6
551.118,835.2
551.253,834.6
551.389,834.6
551.524,836.4
551.659,834.4
551.795,834.3
551.93,835.4
552.065,833.4
552.201,834.8
552.336,835.1
552.471,835.8
552.606,835.0
552.742,834.5
552.877,833.5
553.012,833.2
553.147,835.6
553.283,834.0
553.418,834.7
553.553,835.8
553.688,834.7
553.823,834.6
553.959,836.5
554.094,835.6
554.229,835.7
554.364,837.0
554.499,834.9
554.634,836.2
554.769,839.6
554.905,839.7
555.04,838.8
555.175,838.6
555.31,840.6
555.445,844.3
555.58,845.5
555.715,855.3
555.85,874.0
555.985,941.2
556.121,1022.2
556.256,964.6
556.391,885.6
556.526,868.2
556.661,866.9
556.796,873.8
556.931,892.3
557.066,917.2
557.201,917.5
557.336,879.6
557.471,862.1
557.606,853.1
557.741,849.5
557.876,846.1
558.011,843.6
558.146,842.6
558.281,842.6
558.416,842.9
558.551,840.8
558.685,845.1
558.82,849.6
558.955,849.9
559.09,848.4
559.225,841.8
559.36,841.6
559.495,842.6
559.63,841.4
559.765,842.1
559.9,844.7
560.034,849.7
560.169,858.8
560.304,860.3
560.439,852.9
560.574,847.3
560.709,845.7
560.843,851.6
560.978,859.7
561.113,893.6
561.248,933.9
561.383,907.4
561.517,867.9
561.652,851.6
561.787,849.3
561.922,857.3
562.057,869.9
562.191,858.9
562.326,850.3
562.461,848.2
562.596,847.4
562.73,845.3
562.865,845.7
563.0,854.6
563.134,862.5
563.269,870.7
563.404,870.3
563.539,864.7
563.673,854.6
563.808,849.0
563.943,845.8
564.077,843.9
564.212,842.2
564.346,840.7
564.481,839.5
564.616,844.2
564.75,842.7
564.885,842.1
565.02,841.3
565.154,846.5
565.289,848.8
565.423,849.6
565.558,847.3
565.693,846.9
565.827,844.0
565.962,842.1
566.096,843.2
566.231,843.3
566.365,846.3
566.5,850.1
566.634,861.4
566.769,880.9
566.903,913.3
567.038,917.0
567.172,908.8
567.307,924.6
567.441,953.2
567.576,927.4
567.71,879.0
567.845,855.2
567.979,848.7
568.114,844.0
568.248,845.8
568.383,846.8
568.517,849.6
568.652,846.9
568.786,854.8
568.92,864.2
569.055,876.6
569.189,883.6
569.324,865.1
569.458,854.7
569.592,850.6
569.727,848.0
569.861,848.7
569.996,850.4
570.13,856.9
570.264,870.4
570.399,863.0
570.533,851.4
570.667,847.4
570.802,845.6
570.936,846.2
571.07,848.0
571.205,850.2
571.339,849.5
571.473,855.2
571.607,859.6
571.742,862.2
571.876,865.5
572.01,864.3
572.144,858.6
572.279,862.7
572.413,876.8
572.547,905.4
572.681,954.3
572.816,940.7
572.95,891.0
573.084,870.0
573.218,862.6
573.353,861.5
573.487,869.7
573.621,887.4
573.755,893.1
573.889,878.9
574.023,865.2
574.158,863.4
574.292,862.3
574.426,855.4
574.56,847.1
574.694,842.9
574.828,842.9
574.963,839.9
575.097,841.8
575.231,841.3
575.365,841.2
575.499,843.0
575.633,842.7
575.767,843.4
575.901,845.6
576.035,863.9
576.169,893.8
576.303,900.7
576.438,889.7
576.572,894.9
576.706,918.5
576.84,955.1
576.974,992.8
577.108,987.7
577.242,928.4
577.376,882.8
577.51,860.8
577.644,852.4
577.778,848.2
577.912,845.6
578.046,841.7
578.18,843.0
578.314,841.7
578.448,839.5
578.582,840.2
578.716,841.0
578.85,837.0
578.984,839.4
579.117,836.1
579.251,838.8
579.385,839.4
579.519,838.9
579.653,840.6
579.787,837.8
579.921,837.9
580.055,837.7
580.189,838.1
580.323,837.9
580.456,838.3
580.59,837.0
580.724,836.1
580.858,835.5
580.992,837.3
581.126,836.7
581.26,837.8
581.393,839.1
581.527,839.5
581.661,838.2
581.795,838.7
581.929,836.7
582.063,838.2
582.196,837.3
582.33,838.2
582.464,838.8
582.598,838.6
582.731,838.2
582.865,838.5
582.999,837.8
583.133,838.9
583.267,838.7
583.4,838.4
583.534,840.5
583.668,838.3
583.801,839.2
583.935,837.5
584.069,839.2
584.203,839.8
584.336,838.8
584.47,841.6
584.604,838.7
584.737,840.6
584.871,840.3
585.005,838.3
585.138,839.4
585.272,839.3
585.406,839.9
585.539,837.9
585.673,838.6
585.807,839.8
585.94,837.4
586.074,836.7
586.208,837.4
586.341,838.8
586.475,838.5
586.608,838.0
586.742,836.5
586.876,839.1
587.009,836.5
587.143,837.5
587.276,839.1
587.41,836.4
587.543,839.9
587.677,838.5
587.811,837.5
587.944,838.1
588.078,837.8
588.211,837.3
588.345,837.5
588.478,838.0
588.612,837.9
588.745,837.0
588.879,837.2
589.012,837.6
589.146,836.6
589.279,837.6
589.413,837.9
589.546,838.3
589.68,836.7
589.813,837.8
589.947,837.6
590.08,838.8
590.214,836.6
590.347,836.9
590.48,838.3
590.614,838.5
590.747,836.2
590.881,838.0
591.014,838.0
591.148,836.9
591.281,837.1
591.414,837.0
591.548,837.3
591.681,836.4
591.815,837.8
591.948,837.0
592.081,837.7
592.215,837.2
592.348,837.5
592.481,836.6
592.615,837.1
592.748,839.1
592.881,837.4
593.015,836.9
593.148,838.0
593.281,837.5
593.415,837.7
593.548,838.3
593.681,837.0
593.815,836.9
593.948,837.1
594.081,836.9
594.215,836.9
594.348,837.1
594.481,836.7
594.614,835.7
594.748,836.2
594.881,836.7
595.014,837.4
595.147,836.8
595.281,838.3
595.414,836.2
595.547,838.8
595.68,836.3
595.814,837.0
595.947,837.1
596.08,837.8
596.213,837.9
596.347,836.5
596.48,837.5
596.613,839.3
596.746,837.2
596.879,837.2
597.012,837.8
597.146,835.6
597.279,837.0
597.412,839.6
597.545,837.0
597.678,837.4
597.811,838.3
597.945,836.9
598.078,840.6
598.211,838.3
598.344,838.0
598.477,837.3
598.61,837.4
598.743,839.4
598.876,838.6
599.009,837.5
599.143,838.2
599.276,838.7
599.409,836.5
599.542,836.4
599.675,838.2
599.808,838.0
599.941,837.7
600.074,838.4
600.207,840.1
600.34,836.5
600.473,838.8
600.606,836.9
600.739,837.3
600.872,838.8
601.005,837.5
601.138,837.5
601.271,837.2
601.404,837.9
601.537,838.8
601.67,836.8
601.803,838.9
601.936,839.2
602.069,837.0
602.202,836.3
602.335,838.1
602.468,838.3
602.601,837.7
602.734,837.6
602.867,836.2
603.0,837.1
603.133,839.3
603.266,839.5
603.399,837.1
603.532,838.2
603.665,837.2
603.798,838.6
603.931,837.4
604.064,837.9
604.196,840.0
604.329,840.8
604.462,838.7
604.595,838.5
604.728,840.2
604.861,838.0
604.994,840.0
605.127,839.4
605.259,839.1
605.392,838.5
605.525,839.8
605.658,841.0
605.791,839.2
605.924,839.3
606.057,839.1
606.189,838.5
606.322,839.1
606.455,840.5
606.588,839.9
606.721,839.7
606.853,839.9
606.986,840.9
607.119,840.5
607.252,839.7
607.385,841.0
607.517,840.7
607.65,838.5
607.783,840.2
607.916,839.7
608.049,838.5
608.181,837.5
608.314,840.5
608.447,838.3
608.58,839.8
608.712,838.5
608.845,840.4
608.978,837.4
609.111,838.9
609.243,838.6
609.376,839.7
609.509,841.0
609.641,841.1
609.774,840.2
609.907,839.4
610.039,838.7
610.172,837.7
610.305,838.4
610.438,838.7
610.57,839.3
610.703,837.2
610.836,838.9
610.968,838.6
611.101,841.2
611.234,839.2
611.366,840.6
611.499,838.9
611.631,840.8
611.764,839.2
611.897,840.8
612.029,839.7
612.162,840.8
612.295,838.7
612.427,840.2
612.56,838.2
612.692,840.1
612.825,839.6
612.958,839.8
613.09,838.1
613.223,838.6
613.355,839.6
613.488,840.3
613.621,838.5
613.753,838.3
613.886,840.2
614.018,840.7
614.151,839.5
614.283,841.5
614.416,838.3
614.548,842.6
614.681,842.9
614.814,840.7
614.946,841.6
615.079,841.6
615.211,841.4
615.344,840.7
615.476,840.5
615.609,840.6
615.741,840.6
615.874,843.2
616.006,841.1
616.139,841.5
616.271,840.2
616.404,840.9
616.536,841.3
616.669,840.8
616.801,841.7
616.933,843.0
617.066,843.8
617.198,842.3
617.331,844.6
617.463,844.1
617.596,843.6
617.728,843.8
617.861,843.3
617.993,846.8
618.125,845.5
618.258,844.5
618.39,843.8
618.523,842.7
618.655,843.6
618.788,843.9
618.92,844.0
619.052,843.6
619.185,847.1
619.317,849.1
619.45,849.6
619.582,849.8
619.714,850.3
619.847,851.7
619.979,851.1
620.111,851.5
620.244,849.6
620.376,851.3
620.509,850.3
620.641,850.1
620.773,850.2
620.906,852.7
621.038,852.1
621.17,851.5
621.303,853.4
621.435,856.7
621.567,857.3
621.7,859.2
621.832,866.4
621.964,870.6
622.096,875.9
622.229,888.6
622.361,901.8
622.493,892.8
622.626,884.1
622.758,873.3
622.89,868.9
623.022,865.6
623.155,860.2
623.287,858.6
623.419,857.5
623.552,855.3
623.684,854.1
623.816,854.2
623.948,851.6
624.081,852.1
624.213,847.4
624.345,848.1
624.477,847.8
624.61,846.5
624.742,848.3
624.874,849.2
625.006,848.9
625.138,851.1
625.271,851.4
625.403,854.9
625.535,853.8
625.667,855.6
625.799,858.5
625.932,863.3
626.064,864.0
626.196,873.1
626.328,882.6
626.46,902.7
626.593,937.6
626.725,1016.6
626.857,1110.0
626.989,1140.6
627.121,1101.8
627.253,1036.5
627.386,978.9
627.518,965.1
627.65,984.4
627.782,1062.1
627.914,1195.7
628.046,1300.0
628.178,1318.2
628.311,1323.3
628.443,1388.6
628.575,1477.4
628.707,1504.9
628.839,1457.2
628.971,1384.2
629.103,1312.5
629.235,1277.9
629.367,1297.5
629.5,1324.8
629.632,1310.3
629.764,1250.4
629.896,1204.6
630.028,1188.5
630.16,1200.6
630.292,1212.2
630.424,1190.5
630.556,1137.4
630.688,1076.3
630.82,1024.9
630.952,1010.0
631.084,1032.6
631.216,1112.4
631.349,1195.5
631.481,1242.3
631.613,1265.0
631.745,1293.5
631.877,1279.6
632.009,1209.8
632.141,1128.4
632.273,1049.0
632.405,973.5
632.537,933.2
632.669,905.4
632.801,893.2
632.933,879.0
633.065,871.1
633.197,865.8
633.329,863.8
633.461,858.9
633.593,854.7
633.725,855.1
633.857,854.1
633.989,852.3
634.121,848.5
634.253,848.5
634.385,847.9
634.517,845.6
634.649,846.8
634.781,845.5
634.912,843.7
635.044,846.8
635.176,843.6
635.308,845.0
635.44,845.8
635.572,845.0
635.704,842.9
635.836,841.1
635.968,842.6
636.1,841.3
636.232,843.7
636.364,842.6
636.496,840.5
636.628,841.7
636.76,839.4
636.891,843.7
637.023,840.9
637.155,841.0
637.287,840.5
637.419,843.9
637.551,840.8
637.683,840.3
637.815,839.5
637.947,843.3
638.078,841.7
638.21,842.8
638.342,839.9
638.474,841.0
638.606,842.8
638.738,841.3
638.87,842.1
639.002,842.4
639.133,844.5
639.265,841.7
639.397,842.1
639.529,840.4
639.661,841.4
639.793,842.7
639.924,842.6
640.056,841.1
640.188,841.1
640.32,840.3
640.452,843.1
640.584,842.9
640.715,842.8
640.847,843.1
640.979,842.0
641.111,842.8
641.243,843.3
641.374,841.8
641.506,842.5
641.638,842.0
641.77,842.6
641.902,841.4
642.033,842.7
642.165,840.4
642.297,840.0
642.429,840.6
642.561,840.2
642.692,840.9
642.824,838.6
642.956,839.3
643.088,838.0
643.219,837.0
643.351,837.9
643.483,839.1
643.615,837.4
643.746,836.8
643.878,838.3
644.01,837.9
644.142,838.2
644.273,837.8
644.405,837.1
644.537,837.4
644.669,837.6
644.8,838.9
644.932,836.8
645.064,836.2
645.195,838.1
645.327,836.6
645.459,837.0
645.591,838.6
645.722,835.6
645.854,837.5
645.986,835.7
646.117,837.5
646.249,838.9
646.381,838.4
646.512,836.4
646.644,835.6
646.776,837.7
646.908,839.0
647.039,835.9
647.171,837.5
647.303,836.9
647.434,839.2
647.566,837.7
647.698,837.8
647.829,837.5
647.961,837.7
648.093,837.5
648.224,835.7
648.356,837.2
648.488,837.8
648.619,836.3
648.751,837.0
648.883,835.3
649.014,835.2
649.146,835.9
649.277,836.4
649.409,837.8
649.541,835.0
649.672,834.9
649.804,835.8
649.936,835.5
650.067,837.7
650.199,835.3
650.33,836.2
650.462,836.1
650.594,834.2
650.725,835.4
650.857,836.8
650.988,834.9
651.12,836.3
651.252,836.3
651.383,836.1
651.515,835.4
651.646,836.0
651.778,836.1
651.91,836.5
652.041,838.1
652.173,835.8
652.304,835.6
652.436,836.3
652.568,835.7
652.699,835.0
652.831,836.8
652.962,835.1
653.094,835.3
653.225,835.4
653.357,836.1
653.489,835.9
653.62,835.6
653.752,835.3
653.883,835.3
654.015,834.7
654.146,836.8
654.278,835.9
654.409,835.9
654.541,835.7
654.672,835.6
654.804,835.0
654.935,834.5
655.067,836.0
655.199,835.7
655.33,835.4
655.462,837.0
655.593,835.0
655.725,835.3
655.856,833.7
655.988,837.2
656.119,834.5
656.251,835.4
656.382,835.6
656.514,833.7
656.645,834.5
656.777,836.7
656.908,835.6
657.04,834.4
657.171,834.7
657.303,832.7
657.434,835.7
657.566,832.9
657.697,835.6
657.829,835.2
657.96,836.0
658.092,836.0
658.223,833.3
658.355,834.5
658.486,836.1
658.617,835.5
658.749,835.8
658.88,835.0
659.012,835.9
659.143,834.2
659.275,834.6
659.406,834.6
659.538,834.5
659.669,834.6
659.801,834.9
659.932,837.3
660.064,833.8
660.195,837.1
660.326,834.8
660.458,834.4
660.589,834.3
660.721,834.3
660.852,836.6
660.984,834.9
661.115,836.4
661.246,835.0
661.378,833.5
661.509,836.2
661.641,834.7
661.772,835.2
661.904,836.3
662.035,836.0
662.166,836.1
662.298,834.7
662.429,835.8
662.561,835.8
662.692,835.9
662.823,834.2
662.955,833.7
663.086,836.3
