nm,Intensity
526.5,828.9
526.637,828.5
526.774,829.5
526.91,829.0
527.047,828.9
527.184,829.7
527.32,829.8
527.457,829.3
527.594,828.0
527.73,828.5
527.867,829.4
528.004,829.2
528.14,829.5
528.277,828.9
528.414,827.8
528.55,830.6
528.687,828.3
528.823,829.0
528.96,828.3
529.096,828.7
529.233,829.0
529.37,829.5
529.506,829.0
529.643,829.2
529.779,829.8
529.916,829.0
530.052,828.1
530.189,829.3
530.325,829.8
530.462,829.0
530.598,829.3
530.735,826.3
530.871,829.5
531.008,829.6
531.144,828.9
531.28,829.0
531.417,829.0
531.553,828.8
531.69,830.4
531.826,828.0
531.962,835.2
532.099,883.2
532.235,904.8
532.372,847.4
532.508,830.3
532.644,829.5
532.781,828.5
532.917,830.2
533.053,828.4
533.19,829.2
533.326,828.3
533.462,828.6
533.599,830.3
533.735,831.9
533.871,846.0
534.007,859.9
534.144,866.2
534.28,866.6
534.416,861.1
534.552,864.0
534.689,866.4
534.825,868.6
534.961,873.4
535.097,878.9
535.234,876.6
535.37,870.7
535.506,860.1
535.642,851.9
535.778,848.8
535.914,846.8
536.051,843.2
536.187,842.9
536.323,841.6
536.459,842.0
536.595,843.6
536.731,846.4
536.867,850.2
537.003,855.3
537.14,858.6
537.276,856.9
537.412,851.6
537.548,847.6
537.684,842.8
537.82,843.2
537.956,840.9
538.092,840.5
538.228,842.0
538.364,840.3
538.5,840.8
538.636,839.5
538.772,840.9
538.908,842.5
539.044,844.0
539.18,845.1
539.316,849.6
539.452,848.2
539.588,847.3
539.724,844.6
539.86,840.1
539.996,839.1
540.132,837.5
540.268,839.0
540.403,836.3
540.539,836.6
540.675,835.9
540.811,836.7
540.947,836.4
541.083,838.0
541.219,841.1
541.355,844.6
541.49,844.2
541.626,841.1
541.762,837.7
541.898,838.8
542.034,835.5
542.17,837.1
542.305,836.8
542.441,833.9
542.577,835.6
542.713,835.1
542.848,835.6
542.984,835.8
543.12,837.6
543.256,840.0
543.391,844.0
543.527,862.3
543.663,887.5
543.799,885.2
543.934,861.7
544.07,849.9
544.206,843.6
544.341,839.5
544.477,841.2
544.613,838.8
544.748,837.9
544.884,838.0
545.02,839.1
545.155,844.9
545.291,852.7
545.427,857.6
545.562,852.6
545.698,844.9
545.833,840.2
545.969,838.0
546.105,836.7
546.24,834.9
546.376,836.3
546.511,835.1
546.647,834.5
546.782,836.2
546.918,835.1
547.053,835.7
547.189,839.4
547.325,840.1
547.46,846.3
547.596,848.2
547.731,847.0
547.867,841.3
548.002,839.8
548.137,836.9
548.273,835.7
548.408,835.0
548.544,834.2
548.679,834.3
548.815,832.3
548.95,834.7
549.086,832.7
549.221,834.3
549.356,832.9
549.492,834.3
549.627,831.9
549.763,832.4
549.898,831.3
550.033,832.3
550.169,833.0
550.304,832.4
550.439,832.8
550.575,833.5
550.71,833.1
550.845,832.6
550.981,831.9
551.116,832.3
551.251,832.9
551.387,832.7
551.522,834.5
551.657,831.6
551.793,830.7
551.928,834.3
552.063,832.7
552.198,833.3
552.334,831.9
552.469,830.9
552.604,833.8
552.739,831.2
552.874,832.5
553.01,833.7
553.145,831.6
553.28,833.6
553.415,830.8
553.55,831.5
553.686,833.4
553.821,832.3
553.956,834.4
554.091,832.2
554.226,834.4
554.361,833.4
554.497,831.8
554.632,834.3
554.767,835.4
554.902,836.6
555.037,835.8
555.172,836.8
555.307,836.2
555.442,838.1
555.577,842.1
555.712,846.6
555.848,861.5
555.983,908.1
556.118,973.2
556.253,927.3
556.388,872.8
556.523,856.8
556.658,856.3
556.793,864.1
556.928,871.5
557.063,888.9
557.198,892.4
557.333,864.6
557.468,849.8
557.603,848.0
557.738,843.3
557.873,840.3
558.008,839.7
558.142,838.7
558.277,840.0
558.412,838.1
558.547,839.1
558.682,838.7
558.817,844.7
558.952,845.4
559.087,842.3
559.222,840.1
559.357,837.6
559.492,836.6
559.626,837.7
559.761,836.9
559.896,839.2
560.031,843.1
560.166,850.2
560.301,852.2
560.435,846.0
560.57,841.9
560.705,843.7
560.84,844.7
560.975,850.4
561.109,872.9
561.244,904.3
561.379,886.0
561.514,854.3
561.649,844.7
561.783,842.9
561.918,852.0
562.053,853.6
562.188,849.0
562.322,841.9
562.457,842.3
562.592,840.7
562.726,842.4
562.861,844.4
562.996,845.4
563.131,853.0
563.265,858.0
563.4,861.5
563.535,852.3
563.669,845.5
563.804,842.0
563.939,841.3
564.073,837.9
564.208,839.5
564.342,839.5
564.477,838.1
564.612,838.7
564.746,836.9
564.881,838.1
565.015,837.3
565.15,839.9
565.285,843.4
565.419,843.5
565.554,840.5
565.688,839.0
565.823,839.3
565.957,838.3
566.092,840.6
566.227,839.7
566.361,839.7
566.496,842.9
566.63,851.7
566.765,865.9
566.899,887.8
567.034,899.5
567.168,890.6
567.303,897.0
567.437,913.2
567.572,903.1
567.706,869.1
567.84,848.7
567.975,843.2
568.109,841.1
568.244,842.4
568.378,842.3
568.513,843.6
568.647,843.9
568.781,846.9
568.916,854.2
569.05,866.0
569.185,870.2
569.319,857.1
569.453,847.6
569.588,841.3
569.722,842.0
569.857,843.5
569.991,843.2
570.125,849.7
570.26,856.1
570.394,853.1
570.528,845.0
570.663,841.6
570.797,843.3
570.931,840.7
571.065,843.0
571.2,844.2
571.334,843.8
571.468,850.1
571.603,849.6
571.737,853.4
571.871,857.3
572.005,856.5
572.14,850.3
572.274,853.5
572.408,865.6
572.542,885.7
572.677,921.1
572.811,915.8
572.945,879.0
573.079,861.8
573.213,851.9
573.348,849.7
573.482,858.0
573.616,875.3
573.75,881.9
573.884,868.0
574.018,857.6
574.153,855.6
574.287,852.3
574.421,848.2
574.555,844.0
574.689,840.3
574.823,839.2
574.957,837.7
575.092,838.2
575.226,839.5
575.36,836.9
575.494,839.3
575.628,841.7
575.762,839.2
575.896,844.1
576.03,852.9
576.164,878.7
576.298,880.0
576.432,873.3
576.566,875.9
576.7,895.7
576.834,923.1
576.968,954.8
577.103,948.0
577.237,906.7
577.371,871.9
577.505,855.2
577.639,845.2
577.773,844.3
577.907,840.3
578.04,840.8
578.174,836.7
578.308,838.8
578.442,837.8
578.576,839.1
578.71,836.1
578.844,836.6
578.978,835.8
579.112,837.2
579.246,837.4
579.38,836.3
579.514,836.8
579.648,835.9
579.782,836.8
579.916,838.1
580.049,835.0
580.183,837.0
580.317,835.5
580.451,836.7
580.585,836.5
580.719,837.9
580.853,834.8
580.986,836.2
581.12,835.0
581.254,834.6
581.388,835.0
581.522,835.2
581.656,836.6
581.789,836.6
581.923,835.9
582.057,837.4
582.191,836.1
582.325,834.6
582.458,836.6
582.592,837.1
582.726,837.2
582.86,836.5
582.993,837.9
583.127,835.8
583.261,838.0
583.395,837.4
583.528,836.8
583.662,836.9
583.796,836.6
583.93,835.9
584.063,835.1
584.197,838.3
584.331,836.0
584.464,838.8
584.598,838.9
584.732,836.0
584.865,836.4
584.999,834.9
585.133,835.6
585.266,836.6
585.4,835.5
585.534,835.6
585.667,836.8
585.801,836.6
585.935,836.1
586.068,835.8
586.202,834.9
586.336,837.4
586.469,836.6
586.603,835.9
586.736,836.5
586.87,835.6
587.004,835.0
587.137,836.5
587.271,833.6
587.404,834.7
587.538,835.6
587.671,835.9
587.805,834.0
587.938,835.5
588.072,834.5
588.206,836.8
588.339,834.3
588.473,835.9
588.606,836.4
588.74,834.9
588.873,834.0
589.007,834.5
589.14,835.2
589.274,835.5
589.407,834.7
589.541,834.1
589.674,834.3
589.808,836.0
589.941,833.6
590.074,836.0
590.208,835.5
590.341,834.2
590.475,834.3
590.608,834.9
590.742,835.8
590.875,833.7
591.009,836.4
591.142,834.7
591.275,835.0
591.409,834.8
591.542,833.4
591.676,835.7
591.809,835.9
591.942,835.6
592.076,835.2
592.209,835.4
592.342,834.0
592.476,837.2
592.609,833.7
592.743,834.4
592.876,835.9
593.009,836.5
593.143,836.9
593.276,836.6
593.409,834.1
593.543,836.6
593.676,836.5
593.809,835.7
593.942,834.6
594.076,835.2
594.209,834.0
594.342,834.4
594.476,835.1
594.609,834.8
594.742,835.5
594.875,835.6
595.009,834.7
595.142,833.9
595.275,836.2
595.408,834.9
595.542,834.6
595.675,834.1
595.808,836.4
595.941,835.3
596.075,835.4
596.208,835.1
596.341,835.9
596.474,834.9
596.607,835.7
596.741,836.7
596.874,834.7
597.007,834.9
597.14,834.5
597.273,836.5
597.406,834.6
597.54,834.0
597.673,835.3
597.806,835.5
597.939,835.0
598.072,836.0
598.205,836.2
598.338,834.9
598.472,835.2
598.605,834.4
598.738,836.2
598.871,835.7
599.004,834.8
599.137,834.8
599.27,835.4
599.403,834.9
599.536,835.8
599.67,832.9
599.803,835.9
599.936,835.6
600.069,835.7
600.202,833.9
600.335,835.4
600.468,835.4
600.601,834.6
600.734,833.9
600.867,834.8
601.0,834.8
601.133,835.1
601.266,834.2
601.399,834.9
601.532,835.0
601.665,835.5
601.798,834.4
601.931,835.1
602.064,835.6
602.197,834.4
602.33,834.4
602.463,835.2
602.596,834.6
602.729,834.8
602.862,835.6
602.995,835.5
603.128,835.7
603.261,835.9
603.394,834.4
603.527,835.3
603.66,836.3
603.793,835.6
603.925,836.6
604.058,835.0
604.191,835.0
604.324,836.7
604.457,834.7
604.59,837.0
604.723,837.4
604.856,836.5
604.989,836.7
605.122,835.7
605.254,835.4
605.387,834.7
605.52,835.8
605.653,835.9
605.786,837.5
605.919,835.9
606.052,835.5
606.184,837.2
606.317,835.2
606.45,836.2
606.583,837.4
606.716,835.4
606.849,837.1
606.981,837.8
607.114,835.4
607.247,836.5
607.38,836.9
607.513,836.8
607.645,837.1
607.778,836.4
607.911,837.4
608.044,835.6
608.177,837.7
608.309,836.9
608.442,835.7
608.575,835.4
608.708,837.1
608.84,835.7
608.973,835.6
609.106,835.6
609.239,836.0
609.371,836.2
609.504,836.5
609.637,834.4
609.769,835.4
609.902,835.8
610.035,836.6
610.168,835.9
610.3,836.7
610.433,837.7
610.566,835.9
610.698,837.1
610.831,837.1
610.964,837.2
611.096,834.7
611.229,837.9
611.362,836.5
611.494,835.4
611.627,836.7
611.76,836.2
611.892,835.3
612.025,835.7
612.158,836.1
612.29,835.6
612.423,835.4
612.556,837.3
612.688,834.6
612.821,835.8
612.953,835.2
613.086,837.6
613.219,835.5
613.351,835.7
613.484,836.5
613.616,835.1
613.749,836.0
613.882,835.9
614.014,835.0
614.147,837.3
614.279,836.9
614.412,835.8
614.544,835.7
614.677,838.2
614.809,836.1
614.942,837.7
615.075,837.3
615.207,838.2
615.34,838.7
615.472,837.1
615.605,838.1
615.737,837.2
615.87,838.4
616.002,837.0
616.135,836.8
616.267,836.6
616.4,836.6
616.532,837.5
616.665,837.7
616.797,838.7
616.93,837.3
617.062,838.7
617.195,838.2
617.327,838.5
617.46,838.0
617.592,839.3
617.725,838.9
617.857,838.9
617.989,840.1
618.122,840.7
618.254,839.8
618.387,839.6
618.519,838.0
618.652,839.6
618.784,839.1
618.917,838.4
619.049,839.5
619.181,841.8
619.314,842.8
619.446,844.0
619.579,842.9
619.711,844.4
619.843,842.1
619.976,844.0
620.108,845.2
620.241,843.9
620.373,842.5
620.505,842.8
620.638,844.2
620.77,844.6
620.902,843.3
621.035,846.5
621.167,844.1
621.299,847.3
621.432,846.4
621.564,848.8
621.696,854.6
621.829,858.9
621.961,857.1
622.093,862.3
622.226,871.3
622.358,882.2
622.49,878.1
622.623,865.3
622.755,861.0
622.887,857.2
623.02,854.0
623.152,853.0
623.284,850.5
623.416,847.9
623.549,846.2
623.681,847.4
623.813,845.3
623.946,844.3
624.078,842.5
624.21,842.7
624.342,842.3
624.475,842.7
624.607,840.0
624.739,843.1
624.871,844.9
625.004,842.1
625.136,844.1
625.268,845.1
625.4,844.9
625.533,848.1
625.665,849.7
625.797,851.0
625.929,852.6
626.061,859.6
626.194,861.1
626.326,866.0
626.458,880.3
626.59,910.4
626.722,961.7
626.855,1029.4
626.987,1059.0
627.119,1032.9
627.251,978.8
627.383,944.9
627.516,924.7
627.648,939.3
627.78,989.8
627.912,1096.8
628.044,1170.5
628.176,1178.5
628.308,1186.8
628.441,1238.0
628.573,1289.5
628.705,1309.4
628.837,1284.0
628.969,1233.7
629.101,1178.0
629.233,1168.4
629.366,1165.6
629.498,1186.0
629.63,1172.1
629.762,1143.4
629.894,1108.0
630.026,1093.4
630.158,1097.6
630.29,1099.1
630.422,1085.7
630.554,1062.1
630.687,1003.8
630.819,974.4
630.951,961.9
631.083,975.8
631.215,1031.8
631.347,1101.0
631.479,1122.0
631.611,1154.6
631.743,1175.8
631.875,1166.7
632.007,1111.3
632.139,1048.1
632.271,984.6
632.403,935.0
632.535,907.3
632.667,887.6
632.799,869.9
632.931,866.1
633.063,860.7
633.195,855.9
633.328,851.8
633.46,849.2
633.592,848.0
633.724,847.3
633.856,845.0
633.988,843.2
634.12,842.0
634.252,844.4
634.384,842.2
634.516,840.1
634.647,839.6
634.779,840.2
634.911,839.2
635.043,839.5
635.175,839.1
635.307,838.5
635.439,836.4
635.571,838.9
635.703,837.9
635.835,837.3
635.967,837.9
636.099,840.3
636.231,838.9
636.363,836.7
636.495,837.7
636.627,837.2
636.759,837.1
636.891,837.1
637.023,839.1
637.155,838.0
637.286,836.6
637.418,837.1
637.55,836.2
637.682,836.1
637.814,835.9
637.946,836.2
638.078,837.6
638.21,837.1
638.342,837.3
638.474,836.1
638.605,838.4
638.737,837.1
638.869,839.0
639.001,837.4
639.133,837.7
639.265,835.6
639.397,837.0
639.529,837.7
639.66,836.9
639.792,837.1
639.924,836.7
640.056,836.5
640.188,836.4
640.32,836.4
640.452,837.6
640.583,837.7
640.715,838.1
640.847,835.9
640.979,836.5
641.111,838.8
641.243,836.7
641.374,837.8
641.506,839.7
641.638,837.8
641.77,836.9
641.902,837.4
642.033,834.7
642.165,838.4
642.297,837.2
642.429,834.8
642.561,835.8
642.692,834.3
642.824,835.7
642.956,833.9
643.088,835.5
643.22,833.6
643.351,835.9
643.483,835.4
643.615,834.7
643.747,836.1
643.878,834.7
644.01,834.7
644.142,834.9
644.274,833.8
644.405,834.3
644.537,834.2
644.669,834.1
644.801,833.8
644.932,833.3
645.064,833.7
645.196,834.1
645.328,835.3
645.459,835.0
645.591,833.8
645.723,833.3
645.854,834.7
645.986,832.8
646.118,832.7
646.25,832.4
646.381,832.9
646.513,833.6
646.645,833.3
646.776,834.8
646.908,833.4
647.04,833.7
647.172,832.0
647.303,834.8
647.435,834.7
647.567,833.9
647.698,833.5
647.83,833.3
647.962,833.3
648.093,832.9
648.225,833.2
648.357,833.8
648.488,832.8
648.62,832.9
648.752,832.4
648.883,835.4
649.015,834.0
649.147,832.1
649.278,833.7
649.41,834.1
649.542,832.8
649.673,834.8
649.805,832.9
649.937,834.3
650.068,833.6
650.2,835.2
650.331,832.4
650.463,831.6
650.595,834.3
650.726,831.6
650.858,831.5
650.99,833.2
651.121,832.6
651.253,833.8
651.384,832.8
651.516,832.7
651.648,832.9
651.779,833.5
651.911,833.8
652.042,833.6
652.174,833.8
652.306,832.1
652.437,832.4
652.569,832.1
652.7,833.5
652.832,833.6
652.963,833.9
653.095,833.5
653.227,832.2
653.358,833.9
653.49,831.9
653.621,833.8
653.753,833.0
653.884,834.0
654.016,833.7
654.148,832.8
654.279,832.7
654.411,833.4
654.542,831.0
654.674,832.4
654.805,833.3
654.937,832.2
655.068,833.8
655.2,832.7
655.331,832.4
655.463,832.6
655.595,832.8
655.726,832.0
655.858,832.4
655.989,833.1
656.121,832.9
656.252,831.9
656.384,832.4
656.515,832.7
656.647,833.2
656.778,833.7
656.91,831.5
657.041,831.8
657.173,831.7
657.304,832.9
657.436,831.2
657.567,831.2
657.699,832.7
657.83,833.1
657.962,831.3
658.093,831.3
658.225,833.2
658.356,832.0
658.488,833.2
658.619,831.4
658.751,832.3
658.882,830.9
659.013,833.2
659.145,832.0
659.276,832.3
659.408,832.3
659.539,831.1
659.671,832.3
659.802,831.8
659.934,832.5
660.065,831.9
660.197,830.0
660.328,834.2
660.459,833.3
660.591,832.9
660.722,831.9
660.854,831.2
660.985,831.9
661.117,831.3
661.248,831.5
661.38,831.3
661.511,832.4
661.642,831.9
661.774,832.0
661.905,831.9
662.037,831.8
662.168,831.4
662.299,831.2
662.431,832.1
662.562,830.1
662.694,831.0
662.825,830.2
662.957,831.4
663.088,832.3
