nm,Intensity
791.588,5303.8
791.862,5300.1
792.136,5273.5
792.411,5231.8
792.685,5227.2
792.959,5214.6
793.233,5244.8
793.507,5220.5
793.781,5209.9
794.056,5222.8
794.33,5206.3
794.604,5192.1
794.878,5199.9
795.152,5174.2
795.426,5215.8
795.701,5216.7
795.975,5218.0
796.249,5221.5
796.523,5220.8
796.797,5243.3
797.071,5234.2
797.345,5212.5
797.619,5206.2
797.894,5180.2
798.168,5160.8
798.442,5193.0
798.716,5197.0
798.99,5213.3
799.264,5218.9
799.538,5199.1
799.812,5170.1
800.086,5214.2
800.36,5213.2
800.634,5168.8
800.908,5187.6
801.182,5214.2
801.456,5192.5
801.73,5162.4
802.004,5168.4
802.278,5180.0
802.552,5180.1
802.826,5195.6
803.1,5201.9
803.374,5179.0
803.648,5162.3
803.922,5158.1
804.196,5177.8
804.47,5196.3
804.744,5144.5
805.018,5191.4
805.292,5184.5
805.566,5165.5
805.84,5172.4
806.114,5159.3
806.388,5178.9
806.662,5154.3
806.936,5154.2
807.209,5155.9
807.483,5157.2
807.757,5120.4
808.031,5160.0
808.305,5135.2
808.579,5139.1
808.853,5149.4
809.127,5117.0
809.4,5108.3
809.674,5124.3
809.948,5143.7
810.222,5141.1
810.496,5174.8
810.77,5138.7
811.043,5125.3
811.317,5155.6
811.591,5100.1
811.865,5098.3
812.139,5082.1
812.412,5063.7
812.686,5066.9
812.96,5066.7
813.234,5087.4
813.507,5078.5
813.781,5090.2
814.055,5090.8
814.329,5074.9
814.602,5054.0
814.876,5073.3
815.15,5046.4
815.424,5041.4
815.697,5040.9
815.971,5077.5
816.245,5040.0
816.518,5021.3
816.792,5033.1
817.066,5047.4
817.34,4995.1
817.613,5018.5
817.887,5031.7
818.161,5021.7
818.434,5032.0
818.708,5018.3
818.981,4986.8
819.255,4998.0
819.529,5004.5
819.802,4975.5
820.076,4978.2
820.35,4957.7
820.623,4984.1
820.897,4979.0
821.17,4993.8
821.444,4981.9
821.718,4953.0
821.991,4978.0
822.265,4940.3
822.538,4974.0
822.812,4965.7
823.085,4964.6
823.359,4961.2
823.632,4941.8
823.906,4922.1
824.18,4922.0
824.453,4929.3
824.727,4965.8
825.0,4956.2
825.274,4933.1
825.547,4931.4
825.821,4909.9
826.094,4901.6
826.367,4895.9
826.641,4940.7
826.914,4931.4
827.188,4949.5
827.461,4903.5
827.735,4867.7
828.008,4897.7
828.282,4890.7
828.555,4917.7
828.828,4905.1
829.102,4899.3
829.375,4902.5
829.649,4885.1
829.922,4894.8
830.195,4899.5
830.469,4891.8
830.742,4892.1
831.016,4871.6
831.289,4871.0
831.562,4898.6
831.836,4865.6
832.109,4871.5
832.382,4864.0
832.656,4852.0
832.929,4876.9
833.202,4847.7
833.476,4864.5
833.749,4862.9
834.022,4860.6
834.295,4869.3
834.569,4806.9
834.842,4842.1
835.115,4851.7
835.388,4828.8
835.662,4836.6
835.935,4864.3
836.208,4840.1
836.481,4817.6
836.755,4836.3
837.028,4839.9
837.301,4836.6
837.574,4867.6
837.848,4879.2
838.121,4868.7
838.394,4849.5
838.667,4866.0
838.94,4837.3
839.213,4828.0
839.487,4812.6
839.76,4832.2
840.033,4852.4
840.306,4819.7
840.579,4829.1
840.852,4835.9
841.125,4839.3
841.399,4804.7
841.672,4783.4
841.945,4794.8
842.218,4777.6
842.491,4772.0
842.764,4776.5
843.037,4769.7
843.31,4757.7
843.583,4770.5
843.856,4786.8
844.129,4777.9
844.402,4766.5
844.675,4765.1
844.948,4763.8
845.221,4755.4
845.495,4760.5
845.768,4752.8
846.041,4741.6
846.314,4740.3
846.586,4745.6
846.859,4751.0
847.132,4756.0
847.405,4755.6
847.678,4740.6
847.951,4754.6
848.224,4739.9
848.497,4726.6
848.77,4690.6
849.043,4724.9
849.316,4743.9
849.589,4751.4
849.862,4735.2
850.135,4721.9
850.408,4731.9
850.681,4698.7
850.953,4685.7
851.226,4715.0
851.499,4739.5
851.772,4730.7
852.045,4721.3
852.318,4715.3
852.591,4705.1
852.863,4681.2
853.136,4696.7
853.409,4704.9
853.682,4692.9
853.955,4683.1
854.227,4700.1
854.5,4685.1
854.773,4689.5
855.046,4688.0
855.318,4684.0
855.591,4672.8
855.864,4661.8
856.137,4655.1
856.409,4660.5
856.682,4670.5
856.955,4651.6
857.228,4654.7
857.5,4683.8
857.773,4654.8
858.046,4662.4
858.318,4644.4
858.591,4641.7
858.864,4645.5
859.137,4656.2
859.409,4643.0
859.682,4647.6
859.954,4666.6
860.227,4638.6
860.5,4620.7
860.772,4646.0
861.045,4646.9
861.318,4630.7
861.59,4635.7
861.863,4653.9
862.135,4651.9
862.408,4654.3
862.681,4641.1
862.953,4664.9
863.226,4659.0
863.498,4639.3
863.771,4652.8
864.043,4623.8
864.316,4616.2
864.588,4627.4
864.861,4630.7
865.133,4611.2
865.406,4612.7
865.678,4610.4
865.951,4614.1
866.223,4613.3
866.496,4601.8
866.768,4596.3
867.041,4598.4
867.313,4605.7
867.586,4597.1
867.858,4601.1
868.131,4615.6
868.403,4606.9
868.675,4584.3
868.948,4564.1
869.22,4573.1
869.493,4558.9
869.765,4559.2
870.037,4572.8
870.31,4567.6
870.582,4583.2
870.854,4579.2
871.127,4566.1
871.399,4572.7
871.672,4560.9
871.944,4566.5
872.216,4598.8
872.488,4550.5
872.761,4566.9
873.033,4549.1
873.305,4546.1
873.578,4561.3
873.85,4543.0
874.122,4547.7
874.394,4533.8
874.667,4544.8
874.939,4562.2
875.211,4570.4
875.483,4567.1
875.756,4588.1
876.028,4567.4
876.3,4565.0
876.572,4569.1
876.845,4555.5
877.117,4551.4
877.389,4568.6
877.661,4545.6
877.933,4542.0
878.205,4530.7
878.478,4528.1
878.75,4539.4
879.022,4525.7
879.294,4506.8
879.566,4525.0
879.838,4505.1
880.11,4514.3
880.382,4495.0
880.654,4496.6
880.927,4485.0
881.199,4481.9
881.471,4489.0
881.743,4488.7
882.015,4488.8
882.287,4492.2
882.559,4497.6
882.831,4505.5
883.103,4472.3
883.375,4493.5
883.647,4484.8
883.919,4508.1
884.191,4493.8
884.463,4488.0
884.735,4477.9
885.007,4487.5
885.279,4490.5
885.551,4497.0
885.823,4503.5
886.095,4519.1
886.367,4510.7
886.639,4481.6
886.91,4463.5
887.182,4479.3
887.454,4482.9
887.726,4477.7
887.998,4438.6
888.27,4430.0
888.542,4434.7
888.814,4445.0
889.085,4417.8
889.357,4414.2
889.629,4421.0
889.901,4415.7
890.173,4423.5
890.445,4414.0
890.716,4429.9
890.988,4421.0
891.26,4427.9
891.532,4420.6
891.804,4418.3
892.075,4433.6
892.347,4428.7
892.619,4410.3
892.891,4390.0
893.162,4378.7
893.434,4381.3
893.706,4382.6
893.978,4387.0
894.249,4382.3
894.521,4373.6
894.793,4386.2
895.064,4378.8
895.336,4364.4
895.608,4353.3
895.879,4370.7
896.151,4361.3
896.423,4349.2
896.694,4360.0
896.966,4354.6
897.237,4348.0
897.509,4362.3
897.781,4348.8
898.052,4353.4
898.324,4343.8
898.595,4345.8
898.867,4360.4
899.139,4329.9
899.41,4341.1
899.682,4337.1
899.953,4334.7
900.225,4318.5
900.496,4318.1
900.768,4338.4
901.039,4324.1
901.311,4322.7
901.582,4304.8
901.854,4319.1
902.125,4320.3
902.397,4307.3
902.668,4318.0
902.94,4293.5
903.211,4293.9
903.482,4299.9
903.754,4291.5
904.025,4294.6
904.297,4286.8
904.568,4287.1
904.839,4296.8
905.111,4280.1
905.382,4295.7
905.654,4284.9
905.925,4274.7
906.196,4262.6
906.468,4255.7
906.739,4266.0
907.01,4262.8
907.282,4256.2
907.553,4263.5
907.824,4251.2
908.096,4258.8
908.367,4252.7
908.638,4255.4
908.909,4244.9
909.181,4249.7
909.452,4242.4
909.723,4217.7
909.994,4241.6
910.266,4239.3
910.537,4239.1
910.808,4227.5
911.079,4230.6
911.35,4232.0
911.622,4228.4
911.893,4214.9
912.164,4208.9
912.435,4220.3
912.706,4212.3
912.977,4210.3
913.249,4212.8
913.52,4209.8
913.791,4199.4
914.062,4201.2
914.333,4191.7
914.604,4196.2
914.875,4183.3
915.146,4189.4
915.417,4183.1
915.688,4177.1
915.959,4182.9
916.231,4183.8
916.502,4184.9
916.773,4177.1
917.044,4174.1
917.315,4157.8
917.586,4167.0
917.857,4163.3
918.128,4163.7
918.399,4173.3
918.67,4173.3
918.941,4165.9
919.211,4159.9
919.482,4155.0
919.753,4158.5
920.024,4146.0
920.295,4138.2
920.566,4137.9
920.837,4128.9
921.108,4134.2
921.379,4126.6
921.65,4129.9
921.921,4127.1
922.191,4135.3
922.462,4129.8
922.733,4126.8
923.004,4121.4
923.275,4118.1
923.546,4106.7
923.816,4113.3
924.087,4116.9
924.358,4108.3
924.629,4101.9
924.9,4104.5
925.17,4107.3
925.441,4105.6
925.712,4103.3
925.983,4106.8
926.253,4090.7
926.524,4090.0
926.795,4099.1
927.065,4096.9
927.336,4081.8
927.607,4082.8
927.877,4084.4
928.148,4070.3
928.419,4064.4
928.689,4071.4
928.96,4061.2
929.231,4066.9
929.501,4057.8
929.772,4068.5
930.043,4069.6
930.313,4060.2
930.584,4055.4
930.854,4045.8
931.125,4064.1
931.396,4056.2
931.666,4053.4
931.937,4046.7
932.207,4046.7
932.478,4041.3
932.748,4038.6
933.019,4046.0
933.289,4046.1
933.56,4041.9
933.83,4044.4
934.101,4029.1
934.371,4021.8
934.642,4023.8
934.912,4023.1
935.183,4027.2
935.453,4024.0
935.723,4017.9
935.994,4017.2
936.264,4014.6
936.535,4017.0
936.805,4013.4
937.075,4004.7
937.346,4002.4
937.616,4002.3
937.886,4011.0
938.157,4007.8
938.427,4003.8
938.697,4008.9
938.968,4002.4
939.238,3999.9
939.508,3990.3
939.779,3990.8
940.049,3987.7
940.319,3990.5
940.59,3991.9
940.86,3989.6
941.13,3989.9
941.4,3982.8
941.671,3985.2
941.941,3984.3
942.211,3967.6
942.481,3977.4
942.751,3972.8
943.022,3967.4
943.292,3973.8
943.562,3973.1
943.832,3972.8
944.102,3973.9
944.372,3970.1
944.642,3964.5
944.913,3964.5
945.183,3960.0
945.453,3958.8
945.723,3955.5
945.993,3957.5
946.263,3956.9
946.533,3963.4
946.803,3952.4
947.073,3944.3
947.343,3944.6
947.613,3942.6
947.883,3949.9
948.153,3945.0
948.423,3944.9
948.693,3941.1
948.963,3940.7
949.233,3936.1
949.503,3940.4
949.773,3942.0
950.043,3942.4
950.313,3936.9
950.583,3930.1
950.853,3936.1
951.123,3939.3
951.393,3930.4
951.663,3935.7
951.933,3926.5
952.202,3920.6
952.472,3926.9
952.742,3918.5
953.012,3917.2
953.282,3919.2
953.552,3920.1
953.822,3916.2
954.091,3917.3
954.361,3915.1
954.631,3912.8
954.901,3917.3
955.17,3914.0
955.44,3913.4
955.71,3910.1
955.98,3912.9
956.25,3908.3
956.519,3905.1
956.789,3905.3
957.059,3913.4
957.328,3907.5
957.598,3900.5
957.868,3902.9
958.137,3904.4
958.407,3903.0
958.677,3894.6
958.946,3894.5
959.216,3894.5
959.486,3899.0
959.755,3898.7
960.025,3893.7
960.294,3891.7
960.564,3898.1
960.834,3894.0
961.103,3893.1
961.373,3882.3
961.642,3886.5
961.912,3886.7
962.181,3890.7
962.451,3886.8
962.72,3879.6
962.99,3882.0
963.259,3879.0
963.529,3881.5
963.798,3879.7
964.068,3881.1
964.337,3875.1
964.607,3874.5
964.876,3879.8
965.146,3878.8
965.415,3875.7
965.684,3872.1
965.954,3867.8
966.223,3867.5
966.493,3864.0
966.762,3870.5
967.031,3875.5
967.301,3872.7
967.57,3868.9
967.839,3867.5
968.109,3865.3
968.378,3868.3
968.647,3872.9
968.917,3866.5
969.186,3860.4
969.455,3862.3
969.724,3855.4
969.994,3860.3
970.263,3857.3
970.532,3851.7
970.801,3857.3
971.071,3857.1
971.34,3854.1
971.609,3850.8
971.878,3860.4
972.147,3856.6
972.417,3859.2
972.686,3849.7
972.955,3852.6
973.224,3847.6
973.493,3847.9
973.762,3851.1
974.031,3844.2
974.3,3847.2
974.57,3848.8
974.839,3847.4
975.108,3846.4
975.377,3842.7
975.646,3841.1
975.915,3842.3
976.184,3840.0
976.453,3839.7
976.722,3840.7
976.991,3839.4
977.26,3839.7
977.529,3841.4
977.798,3838.7
978.067,3839.3
978.336,3836.9
978.605,3836.2
978.874,3836.0
979.143,3833.5
979.412,3838.0
979.68,3834.3
979.949,3832.6
980.218,3831.0
980.487,3832.6
980.756,3830.9
981.025,3830.6
981.294,3831.5
981.563,3825.5
981.831,3829.2
982.1,3826.4
982.369,3825.7
982.638,3828.7
982.907,3827.0
983.175,3825.8
983.444,3828.3
983.713,3825.2
983.982,3825.0
984.25,3821.7
984.519,3824.5
984.788,3824.5
985.057,3822.5
985.325,3823.4
985.594,3824.3
985.863,3826.6
986.131,3822.8
986.4,3817.5
986.669,3818.9
986.937,3817.7
987.206,3819.2
987.475,3820.8
987.743,3817.4
988.012,3819.5
988.28,3818.5
988.549,3818.5
988.817,3816.0
989.086,3812.0
989.355,3817.3
989.623,3813.3
989.892,3814.1
990.16,3814.4
990.429,3815.9
990.697,3812.8
990.966,3814.3
991.234,3815.9
991.503,3810.5
991.771,3811.9
992.04,3810.6
992.308,3809.5
992.576,3810.3
992.845,3810.0
993.113,3808.5
993.382,3809.1
993.65,3807.0
993.918,3806.6
994.187,3805.0
994.455,3805.4
994.723,3804.2
994.992,3805.8
995.26,3808.2
995.528,3803.8
995.797,3801.2
996.065,3804.2
996.333,3804.8
996.602,3804.9
996.87,3803.2
997.138,3804.7
997.406,3803.4
997.675,3804.1
997.943,3805.5
998.211,3799.4
998.479,3800.0
998.747,3802.9
999.016,3800.3
999.284,3800.6
999.552,3800.2
999.82,3798.4
1000.09,3801.1
1000.36,3798.8
1000.62,3798.2
1000.89,3797.0
1001.16,3795.6
1001.43,3794.3
1001.7,3797.7
1001.97,3793.5
1002.23,3799.7
1002.5,3793.8
1002.77,3795.4
1003.04,3794.8
1003.31,3794.9
1003.57,3791.1
1003.84,3792.5
1004.11,3791.8
1004.38,3793.6
1004.65,3791.4
1004.91,3792.5
1005.18,3792.3
1005.45,3792.5
1005.72,3794.0
1005.98,3791.6
1006.25,3787.5
1006.52,3792.4
1006.79,3789.2
1007.06,3789.3
1007.32,3790.8
1007.59,3790.2
1007.86,3787.5
1008.13,3789.2
1008.4,3790.3
1008.66,3789.8
1008.93,3789.1
1009.2,3791.3
1009.47,3790.5
1009.73,3791.3
1010.0,3789.6
1010.27,3787.1
1010.54,3788.2
1010.81,3791.5
1011.07,3791.5
1011.34,3789.8
1011.61,3791.3
1011.88,3789.0
1012.14,3789.6
1012.41,3790.0
1012.68,3791.0
1012.95,3791.3
1013.21,3791.1
1013.48,3791.6
1013.75,3791.6
1014.02,3790.6
1014.29,3792.3
1014.55,3792.1
1014.82,3789.3
1015.09,3791.2
1015.36,3793.0
1015.62,3790.4
1015.89,3792.5
1016.16,3789.0
1016.43,3789.9
1016.69,3788.8
1016.96,3788.8
1017.23,3787.9
1017.5,3785.6
1017.76,3788.6
1018.03,3785.1
1018.3,3787.6
1018.57,3786.7
1018.83,3783.3
1019.1,3782.6
1019.37,3783.5
1019.63,3782.5
1019.9,3782.5
1020.17,3785.0
1020.44,3779.7
1020.7,3781.8
1020.97,3779.7
1021.24,3780.2
1021.51,3778.4
1021.77,3779.7
1022.04,3777.9
1022.31,3777.8
1022.58,3775.9
1022.84,3779.7
1023.11,3776.8
1023.38,3777.1
1023.64,3777.9
1023.91,3776.5
1024.18,3776.3
1024.45,3776.1
1024.71,3776.1
1024.98,3778.0
1025.25,3774.3
1025.51,3774.3
1025.78,3774.3
1026.05,3772.4
1026.32,3772.8
1026.58,3772.7
1026.85,3771.5
1027.12,3772.6
1027.38,3768.5
1027.65,3769.2
1027.92,3771.5
1028.19,3770.3
1028.45,3771.1
1028.72,3769.4
1028.99,3768.7
1029.25,3772.3
1029.52,3770.5
1029.79,3770.9
1030.05,3771.7
1030.32,3772.8
1030.59,3768.4
1030.85,3767.9
1031.12,3769.2
1031.39,3770.2
1031.66,3770.0
1031.92,3768.9
1032.19,3768.3
1032.46,3768.4
1032.72,3768.4
1032.99,3769.4
1033.26,3767.4
1033.52,3767.5
1033.79,3768.5
1034.06,3765.3
1034.32,3767.0
1034.59,3770.0
1034.86,3768.5
1035.12,3768.7
1035.39,3767.2
1035.66,3767.2
1035.92,3768.2
1036.19,3768.7
1036.46,3766.8
1036.72,3765.5
1036.99,3766.2
1037.26,3767.3
1037.52,3766.4
1037.79,3767.4
1038.06,3768.2
1038.32,3765.0
1038.59,3765.2
1038.86,3767.7
1039.12,3766.0
1039.39,3766.1
1039.66,3766.4
1039.92,3764.9
1040.19,3766.1
1040.46,3765.2
1040.72,3765.2
1040.99,3766.1
1041.26,3764.6
1041.52,3765.2
1041.79,3767.1
1042.06,3766.2
1042.32,3764.9
1042.59,3766.8
1042.86,3764.3
1043.12,3764.9
1043.39,3765.4
1043.65,3764.9
1043.92,3764.7
1044.19,3765.7
1044.45,3764.5
1044.72,3764.1
1044.99,3766.4
1045.25,3765.7
1045.52,3764.3
1045.79,3764.7
1046.05,3764.9
1046.32,3762.4
1046.58,3765.0
1046.85,3763.4
1047.12,3762.7
1047.38,3763.7
1047.65,3763.6
1047.92,3764.6
1048.18,3764.1
1048.45,3764.7
1048.71,3766.2
1048.98,3765.2
1049.25,3762.8
1049.51,3761.8
1049.78,3763.3
1050.04,3763.2
1050.31,3760.1
1050.58,3763.4
1050.84,3762.8
1051.11,3762.7
1051.37,3762.0
1051.64,3761.9
1051.91,3762.0
1052.17,3761.9
1052.44,3763.1
1052.7,3763.1
1052.97,3766.4
1053.24,3762.4
1053.5,3763.7
1053.77,3762.2
1054.03,3761.8
1054.3,3763.4
1054.57,3763.4
1054.83,3763.2
1055.1,3761.9
1055.36,3761.3
1055.63,3762.7
1055.9,3762.8
1056.16,3762.8
1056.43,3763.6
1056.69,3762.4
1056.96,3763.6
1057.23,3763.2
1057.49,3763.0
1057.76,3763.3
1058.02,3764.6
1058.29,3763.0
1058.55,3763.5
1058.82,3761.6
1059.09,3761.2
1059.35,3763.4
1059.62,3762.0
1059.88,3764.4
1060.15,3762.8
1060.41,3761.9
1060.68,3763.8
1060.95,3760.4
1061.21,3762.9
1061.48,3762.3
1061.74,3760.6
1062.01,3761.3
1062.27,3762.3
1062.54,3760.7
1062.8,3762.1
1063.07,3759.6
1063.34,3762.1
1063.6,3760.5
1063.87,3760.9
1064.13,3763.4
1064.4,3760.9
1064.66,3761.9
1064.93,3760.8
1065.19,3761.4
1065.46,3760.4
1065.73,3761.5
1065.99,3760.1
1066.26,3762.3
1066.52,3762.5
1066.79,3762.9
1067.05,3760.8
1067.32,3762.9
1067.58,3760.7
1067.85,3759.6
1068.11,3760.5
