nm,Intensity
528.626,1862.9
528.711,1864.55
528.795,1864.2
528.879,1864.55
528.963,1864.3
529.048,1863.25
529.132,1863.5
529.216,1864.35
529.3,1864.7
529.385,1864.3
529.469,1863.4
529.553,1862.55
529.637,1864.25
529.721,1864.25
529.806,1863.65
529.89,1863.9
529.974,1863.7
530.058,1864.05
530.143,1865.9
530.227,1864.6
530.311,1864.7
530.395,1864.15
530.48,1863.8
530.564,1865.2
530.648,1864.45
530.732,1865.9
530.816,1865.25
530.901,1866.5
530.985,1865.0
531.069,1865.8
531.153,1867.05
531.237,1867.5
531.322,1869.0
531.406,1870.75
531.49,1873.85
531.574,1882.4
531.658,1908.65
531.743,2033.8
531.827,2535.6
531.911,3343.35
531.995,4451.95
532.079,4762.3
532.164,4277.55
532.248,3346.4
532.332,2340.4
532.416,1918.35
532.5,1871.0
532.585,1868.15
532.669,1869.0
532.753,1867.4
532.837,1867.3
532.921,1868.45
533.006,1868.75
533.09,1867.6
533.174,1869.1
533.258,1873.75
533.342,1879.45
533.426,1901.9
533.511,1964.35
533.595,2151.9
533.679,2533.85
533.763,3093.85
533.847,3638.05
533.931,4087.3
534.016,4362.25
534.1,4425.45
534.184,4363.6
534.268,4282.1
534.352,4198.05
534.436,4093.75
534.521,3961.4
534.605,3881.95
534.689,3778.7
534.773,3736.15
534.857,3653.05
534.941,3575.35
535.025,3511.05
535.11,3443.1
535.194,3356.15
535.278,3309.35
535.362,3259.5
535.446,3159.9
535.53,3091.55
535.614,3044.65
535.699,2980.05
535.783,2935.3
535.867,2885.95
535.951,2849.95
536.035,2821.65
536.119,2799.75
536.203,2747.6
536.287,2719.15
536.372,2719.9
536.456,2693.25
536.54,2671.95
536.624,2681.0
536.708,2668.65
536.792,2677.3
536.876,2662.3
536.96,2660.2
537.044,2649.85
537.129,2652.1
537.213,2654.55
537.297,2632.95
537.381,2640.65
537.465,2629.9
537.549,2647.6
537.633,2648.7
537.717,2642.85
537.801,2686.35
537.885,2661.55
537.97,2643.45
538.054,2636.65
538.138,2656.5
538.222,2664.95
538.306,2659.85
538.39,2657.3
538.474,2659.9
538.558,2663.95
538.642,2674.3
538.726,2671.9
538.81,2658.45
538.894,2673.75
538.979,2675.4
539.063,2677.7
539.147,2675.2
539.231,2689.25
539.315,2718.2
539.399,2731.4
539.483,2741.1
539.567,2745.7
539.651,2769.7
539.735,2770.3
539.819,2780.5
539.903,2794.55
539.987,2790.3
540.071,2797.95
540.155,2759.55
540.239,2740.1
540.324,2711.3
540.408,2708.75
540.492,2696.5
540.576,2699.1
540.66,2692.05
540.744,2681.2
540.828,2646.25
540.912,2655.7
540.996,2676.25
541.08,2714.95
541.164,2690.55
541.248,2672.9
541.332,2668.15
541.416,2647.55
541.5,2652.8
541.584,2651.3
541.668,2661.35
541.752,2665.55
541.836,2683.4
541.92,2679.75
542.004,2680.9
542.088,2691.95
542.172,2687.95
542.256,2686.95
542.34,2705.45
542.424,2705.2
542.508,2703.9
542.592,2706.65
542.676,2693.5
542.76,2712.6
542.844,2724.05
542.928,2722.15
543.012,2721.75
543.096,2713.8
543.18,2708.05
543.264,2731.7
543.348,2709.95
543.432,2718.55
543.516,2726.15
543.6,2736.25
543.684,2726.85
543.768,2717.9
543.852,2753.25
543.936,2751.7
544.02,2770.3
544.104,2743.4
544.188,2727.85
544.272,2725.8
544.356,2736.75
544.44,2711.55
544.524,2739.1
544.608,2731.45
544.692,2747.8
544.776,2744.3
544.86,2757.5
544.944,2754.25
545.028,2761.25
545.112,2751.65
545.196,2736.6
545.28,2764.0
545.364,2779.15
545.448,2766.7
545.532,2760.8
545.616,2757.8
545.7,2769.05
545.784,2775.95
545.867,2761.35
545.951,2782.45
546.035,2780.75
546.119,2790.05
546.203,2793.05
546.287,2774.2
546.371,2784.95
546.455,2769.05
546.539,2787.85
546.623,2780.8
546.707,2767.75
546.791,2774.35
546.875,2787.15
546.959,2815.15
547.043,2806.75
547.127,2798.5
547.21,2809.4
547.294,2805.15
547.378,2825.4
547.462,2791.85
547.546,2807.8
547.63,2820.0
547.714,2826.9
547.798,2811.45
547.882,2821.05
547.966,2816.8
548.05,2837.2
548.134,2832.1
548.217,2829.9
548.301,2824.7
548.385,2828.05
548.469,2837.45
548.553,2854.5
548.637,2856.55
548.721,2861.35
548.805,2861.45
548.889,2843.6
548.972,2824.7
549.056,2847.5
549.14,2843.9
549.224,2849.05
549.308,2858.35
549.392,2839.9
549.476,2853.9
549.56,2868.65
549.644,2869.95
549.727,2850.2
549.811,2861.7
549.895,2873.65
549.979,2883.05
550.063,2869.6
550.147,2858.1
550.231,2868.85
550.315,2912.8
550.398,3002.4
550.482,3100.75
550.566,3191.1
550.65,3262.4
550.734,3236.0
550.818,3126.3
550.902,3012.0
550.985,2932.85
551.069,2932.45
551.153,2922.95
551.237,2925.65
551.321,2910.75
551.405,2926.0
551.488,2945.3
551.572,2962.05
551.656,2966.85
551.74,2941.35
551.824,2952.8
551.908,2956.25
551.991,2969.45
552.075,2966.35
552.159,2977.4
552.243,2990.5
552.327,2976.7
552.411,2974.95
552.494,2983.05
552.578,3005.75
552.662,3058.05
552.746,3084.5
552.83,3106.35
552.914,3071.85
552.997,3065.15
553.081,3018.3
553.165,3023.55
553.249,3008.4
553.333,2995.45
553.416,2979.2
553.5,2985.6
553.584,3035.3
553.668,2999.15
553.752,2989.7
553.835,2976.2
553.919,2998.6
554.003,2974.3
554.087,2986.35
554.171,3002.6
554.254,2982.6
554.338,3012.2
554.422,3022.0
554.506,3030.35
554.589,3028.3
554.673,3000.6
554.757,3003.25
554.841,3023.45
554.925,3035.1
555.008,3071.6
555.092,3073.55
555.176,3067.15
555.26,3064.1
555.343,3112.2
555.427,3133.4
555.511,3161.15
555.595,3199.8
555.679,3206.35
555.762,3221.35
555.846,3207.9
555.93,3205.05
556.014,3204.0
556.097,3172.2
556.181,3191.75
556.265,3201.45
556.349,3215.95
556.432,3240.5
556.516,3238.75
556.6,3245.75
556.684,3227.2
556.767,3250.3
556.851,3258.35
556.935,3294.3
557.018,3289.45
557.102,3349.85
557.186,3404.45
557.27,3481.6
557.353,3608.25
557.437,3648.25
557.521,3703.85
557.605,3678.4
557.688,3608.3
557.772,3540.65
557.856,3439.5
557.939,3378.4
558.023,3364.7
558.107,3364.05
558.191,3334.25
558.274,3343.75
558.358,3349.75
558.442,3346.7
558.525,3289.6
558.609,3276.15
558.693,3270.05
558.776,3309.15
558.86,3269.2
558.944,3253.1
559.028,3236.35
559.111,3208.1
559.195,3196.6
559.279,3182.5
559.362,3201.5
559.446,3167.0
559.53,3168.2
559.613,3184.75
559.697,3177.05
559.781,3183.7
559.864,3175.8
559.948,3168.35
560.032,3214.85
560.115,3165.6
560.199,3161.85
560.283,3208.05
560.366,3209.55
560.45,3180.5
560.534,3218.25
560.617,3238.85
560.701,3207.8
560.785,3196.95
560.868,3208.2
560.952,3222.95
561.036,3248.2
561.119,3254.95
561.203,3266.3
561.287,3270.1
561.37,3262.5
561.454,3277.4
561.538,3285.75
561.621,3271.7
561.705,3272.6
561.789,3249.85
561.872,3277.2
561.956,3325.05
562.039,3340.45
562.123,3332.45
562.207,3355.8
562.29,3360.45
562.374,3360.05
562.458,3315.7
562.541,3332.65
562.625,3350.25
562.708,3348.0
562.792,3361.8
562.876,3368.75
562.959,3392.7
563.043,3357.05
563.127,3407.0
563.21,3356.95
563.294,3356.4
563.377,3352.4
563.461,3354.1
563.545,3358.4
563.628,3364.6
563.712,3376.1
563.795,3319.75
563.879,3314.8
563.963,3343.25
564.046,3378.65
564.13,3351.9
564.213,3365.6
564.297,3361.65
564.38,3377.55
564.464,3403.85
564.548,3429.3
564.631,3459.95
564.715,3477.55
564.798,3478.8
564.882,3523.55
564.966,3534.0
565.049,3586.8
565.133,3619.4
565.216,3646.35
565.3,3638.3
565.383,3671.45
565.467,3667.4
565.551,3719.9
565.634,3788.75
565.718,3771.05
565.801,3783.1
565.885,3767.95
565.968,3734.7
566.052,3673.65
566.135,3631.55
566.219,3619.3
566.302,3579.1
566.386,3523.45
566.47,3492.4
566.553,3508.3
566.637,3503.65
566.72,3458.35
566.804,3471.2
566.887,3449.75
566.971,3490.45
567.054,3481.8
567.138,3488.8
567.221,3491.2
567.305,3504.9
567.388,3537.35
567.472,3594.45
567.555,3646.8
567.639,3659.9
567.722,3699.1
567.806,3682.1
567.889,3639.6
567.973,3571.45
568.057,3566.75
568.14,3569.25
568.224,3581.9
568.307,3581.8
568.391,3558.8
568.474,3521.2
568.558,3523.15
568.641,3534.9
568.725,3520.2
568.808,3505.95
568.892,3548.75
568.975,3567.9
569.058,3561.5
569.142,3584.3
569.225,3555.45
569.309,3567.4
569.392,3591.35
569.476,3619.5
569.559,3597.45
569.643,3641.8
569.726,3655.3
569.81,3668.75
569.893,3667.9
569.977,3675.9
570.06,3699.35
570.144,3716.2
570.227,3761.95
570.311,3782.0
570.394,3834.8
570.477,3894.3
570.561,3943.0
570.644,4001.85
570.728,4056.25
570.811,4124.25
570.895,4205.0
570.978,4278.95
571.062,4397.85
571.145,4434.5
571.229,4458.15
571.312,4480.25
571.395,4441.4
571.479,4379.1
571.562,4318.85
571.646,4235.3
571.729,4163.55
571.813,4102.1
571.896,4062.85
571.979,4040.4
572.063,4018.45
572.146,3981.6
572.23,3960.3
572.313,3901.4
572.397,3869.3
572.48,3848.85
572.563,3808.8
572.647,3783.7
572.73,3803.15
572.814,3820.5
572.897,3799.1
572.98,3782.55
573.064,3780.35
573.147,3776.45
573.231,3768.1
573.314,3770.9
573.397,3781.95
573.481,3782.95
573.564,3794.35
573.648,3812.3
573.731,3803.25
573.814,3801.3
573.898,3807.15
573.981,3863.6
574.064,3847.65
574.148,3840.35
574.231,3854.05
574.315,3829.0
574.398,3807.6
574.481,3815.35
574.565,3790.45
574.648,3824.8
574.731,3816.45
574.815,3805.9
574.898,3830.65
574.982,3858.65
575.065,3876.1
575.148,3915.35
575.232,3958.75
575.315,3956.35
575.398,3942.9
575.482,3890.95
575.565,3880.8
575.648,3896.75
575.732,3892.2
575.815,3864.95
575.898,3914.15
575.982,3894.45
576.065,3914.8
576.148,3941.6
576.232,3982.05
576.315,3979.45
576.398,3961.05
576.482,3970.6
576.565,4002.8
576.648,3983.8
576.732,3979.85
576.815,4001.05
576.898,3976.45
576.982,3960.1
577.065,3968.15
577.148,3962.65
577.232,3904.8
577.315,3900.05
577.398,3929.2
577.481,3909.5
577.565,3872.05
577.648,3853.45
577.731,3869.05
577.815,3875.5
577.898,3901.5
577.981,3900.8
578.065,3878.15
578.148,3896.25
578.231,3862.65
578.314,3872.2
578.398,3894.7
578.481,3884.1
578.564,3852.55
578.648,3910.5
578.731,3925.2
578.814,3885.1
578.897,3889.15
578.981,3899.65
579.064,3947.9
579.147,3968.75
579.23,3931.8
579.314,3912.25
579.397,3981.1
579.48,3989.15
579.563,3972.3
579.647,3975.6
579.73,3946.3
579.813,3958.95
579.896,3973.05
579.98,3963.9
580.063,4007.55
580.146,4040.75
580.229,4026.35
580.313,3989.25
580.396,4015.65
580.479,4040.6
580.562,4074.45
580.646,4079.7
580.729,4067.5
580.812,4129.75
580.895,4142.9
580.979,4077.05
581.062,4092.0
581.145,4132.2
581.228,4130.8
581.311,4174.75
581.395,4234.7
581.478,4289.35
581.561,4404.0
581.644,4520.2
581.728,4792.7
581.811,5135.5
581.894,5630.0
581.977,6255.9
582.06,6748.35
582.144,6970.95
582.227,6720.45
582.31,6114.4
582.393,5351.05
582.476,4766.85
582.56,4442.4
582.643,4288.05
582.726,4208.15
582.809,4142.55
582.892,4079.9
582.975,4064.8
583.059,4081.15
583.142,4062.75
583.225,4057.9
583.308,4092.75
583.391,4081.7
583.475,4053.15
583.558,4040.1
583.641,4012.1
583.724,4059.2
583.807,4063.25
583.89,4038.45
583.973,4044.9
584.057,4078.9
584.14,4117.3
584.223,4118.45
584.306,4104.55
584.389,4133.8
584.472,4110.9
584.556,4100.3
584.639,4065.3
584.722,4088.15
584.805,4136.1
584.888,4167.35
584.971,4132.65
585.054,4127.4
585.138,4207.75
585.221,4307.15
585.304,4373.9
585.387,4517.2
585.47,4645.1
585.553,4863.95
585.636,5096.5
585.719,5346.05
585.802,5497.8
585.886,5619.35
585.969,5753.05
586.052,5648.55
586.135,5543.1
586.218,5392.1
586.301,5290.55
586.384,5080.55
586.467,4883.05
586.55,4755.1
586.634,4577.0
586.717,4436.95
586.8,4339.95
586.883,4263.25
586.966,4221.2
587.049,4229.55
587.132,4223.5
587.215,4232.95
587.298,4174.75
587.381,4149.5
587.464,4119.0
587.548,4146.0
587.631,4151.05
587.714,4155.65
587.797,4156.8
587.88,4133.0
587.963,4140.3
588.046,4145.3
588.129,4108.85
588.212,4117.1
588.295,4163.65
588.378,4170.6
588.461,4145.85
588.544,4135.75
588.627,4163.45
588.71,4112.65
588.793,4134.45
588.876,4104.0
588.96,4089.45
589.043,4123.95
589.126,4150.75
589.209,4118.85
589.292,4138.3
589.375,4085.3
589.458,4133.65
589.541,4139.45
589.624,4141.3
589.707,4101.1
589.79,4118.55
589.873,4104.55
589.956,4116.0
590.039,4141.5
590.122,4077.8
590.205,4092.1
590.288,4122.35
590.371,4104.85
590.454,4117.45
590.537,4126.0
590.62,4152.7
590.703,4145.75
590.786,4137.75
590.869,4146.85
590.952,4189.8
591.035,4165.8
591.118,4157.55
591.201,4144.45
591.284,4164.7
591.367,4178.05
591.45,4138.35
591.533,4134.95
591.616,4121.85
591.699,4141.4
591.782,4184.3
591.865,4230.25
591.948,4189.35
592.031,4178.65
592.114,4195.5
592.197,4190.3
592.28,4197.35
592.363,4227.55
592.446,4168.9
592.529,4156.4
592.611,4185.95
592.694,4172.5
592.777,4193.5
592.86,4215.35
592.943,4132.55
593.026,4151.3
593.109,4183.45
593.192,4143.75
593.275,4167.75
593.358,4195.1
593.441,4232.35
593.524,4187.0
593.607,4197.55
593.69,4168.95
593.773,4154.0
593.856,4203.85
593.939,4187.4
594.021,4180.75
594.104,4145.85
594.187,4166.15
594.27,4208.1
594.353,4192.9
594.436,4143.65
594.519,4164.75
594.602,4171.6
594.685,4190.75
594.768,4225.8
594.851,4187.45
594.933,4195.45
595.016,4198.2
595.099,4178.9
595.182,4218.85
595.265,4190.1
595.348,4236.25
595.431,4251.25
595.514,4239.95
595.597,4229.15
595.68,4245.1
595.762,4233.75
595.845,4259.1
595.928,4210.65
596.011,4198.95
596.094,4240.2
596.177,4269.75
596.26,4278.05
596.342,4284.95
596.425,4215.25
596.508,4235.7
596.591,4251.05
596.674,4285.3
596.757,4278.9
596.84,4258.55
596.923,4220.5
597.005,4236.55
597.088,4255.9
597.171,4277.05
597.254,4242.05
597.337,4222.35
597.42,4223.55
597.502,4266.1
597.585,4236.7
597.668,4257.4
597.751,4273.0
597.834,4239.85
597.917,4251.0
597.999,4241.1
598.082,4285.7
598.165,4258.2
598.248,4215.15
598.331,4239.9
598.414,4258.5
598.496,4278.4
598.579,4324.4
598.662,4299.7
598.745,4272.35
598.828,4263.15
598.91,4265.35
598.993,4253.35
599.076,4254.7
599.159,4286.3
599.242,4287.95
599.324,4324.35
599.407,4331.35
599.49,4301.65
599.573,4278.05
599.656,4280.5
599.738,4272.45
599.821,4260.75
599.904,4330.8
599.987,4354.55
600.069,4338.45
600.152,4285.95
600.235,4301.05
600.318,4273.25
600.401,4309.1
600.483,4302.35
600.566,4327.5
600.649,4321.45
600.732,4313.6
600.814,4304.75
600.897,4306.25
600.98,4324.7
601.063,4308.2
601.145,4300.05
601.228,4298.65
601.311,4315.2
601.394,4358.05
601.476,4320.45
601.559,4309.35
601.642,4343.25
601.725,4344.9
601.807,4322.75
601.89,4264.75
601.973,4321.75
602.055,4336.35
602.138,4329.85
602.221,4330.45
602.304,4334.0
602.386,4311.85
602.469,4354.5
602.552,4310.1
602.635,4320.05
602.717,4327.05
602.8,4316.35
602.883,4352.45
602.965,4360.7
603.048,4325.05
603.131,4354.75
603.213,4342.5
603.296,4314.65
603.379,4364.0
603.462,4369.55
603.544,4328.1
603.627,4337.35
603.71,4348.8
603.792,4345.2
603.875,4374.95
603.958,4362.95
604.04,4365.0
604.123,4410.3
604.206,4418.2
604.288,4377.9
604.371,4326.6
604.454,4364.0
604.536,4354.35
604.619,4333.2
604.702,4309.85
604.784,4348.25
604.867,4359.05
604.95,4398.75
605.032,4431.45
605.115,4392.05
605.198,4357.15
605.28,4319.15
605.363,4354.2
605.446,4391.45
605.528,4384.15
605.611,4352.4
605.693,4342.8
605.776,4406.4
605.859,4383.35
605.941,4356.5
606.024,4399.05
606.107,4356.5
606.189,4376.75
606.272,4380.5
606.354,4365.35
606.437,4363.5
606.52,4378.35
606.602,4393.4
606.685,4382.15
606.767,4428.5
606.85,4454.85
606.933,4429.9
607.015,4399.6
607.098,4409.35
607.181,4414.15
607.263,4382.6
607.346,4403.35
607.428,4401.1
607.511,4384.55
607.593,4405.3
607.676,4403.4
607.759,4407.0
607.841,4360.3
607.924,4367.1
608.006,4389.05
608.089,4405.3
608.172,4429.35
608.254,4418.95
608.337,4438.3
608.419,4492.35
608.502,4454.85
608.584,4458.15
608.667,4429.5
608.749,4455.5
608.832,4467.1
608.915,4418.5
608.997,4393.4
609.08,4383.4
609.162,4383.4
609.245,4405.65
609.327,4406.95
609.41,4421.8
609.492,4470.8
609.575,4465.0
609.657,4432.75
609.74,4407.3
609.823,4462.95
609.905,4459.8
609.988,4461.55
610.07,4446.8
610.153,4467.05
610.235,4506.25
610.318,4501.8
610.4,4445.75
610.483,4413.65
610.565,4448.45
610.648,4464.95
610.73,4463.5
610.813,4492.8
610.895,4460.45
610.978,4452.3
611.06,4483.75
611.143,4458.55
611.225,4478.0
611.308,4486.45
611.39,4467.75
611.473,4462.8
611.555,4511.65
611.638,4499.65
611.72,4512.6
611.803,4470.15
611.885,4455.4
611.968,4464.9
612.05,4457.2
612.133,4417.95
612.215,4474.3
612.297,4467.4
612.38,4480.8
612.462,4479.2
612.545,4527.5
612.627,4468.05
612.71,4478.5
612.792,4500.7
612.875,4481.05
612.957,4476.55
613.04,4471.85
613.122,4497.45
613.204,4466.75
613.287,4481.9
613.369,4480.6
613.452,4495.15
613.534,4510.25
613.617,4524.45
613.699,4509.75
613.781,4507.75
613.864,4516.9
613.946,4494.35
614.029,4525.65
614.111,4544.75
614.194,4552.6
614.276,4548.65
614.358,4499.6
614.441,4478.55
614.523,4518.75
614.606,4522.2
614.688,4519.35
614.77,4474.1
614.853,4504.1
614.935,4507.2
615.018,4541.3
615.1,4580.1
615.182,4571.85
615.265,4552.35
615.347,4568.15
615.43,4504.95
615.512,4539.7
615.594,4556.9
615.677,4566.15
615.759,4566.05
615.841,4508.7
615.924,4515.0
616.006,4519.05
616.089,4577.15
616.171,4556.05
616.253,4544.9
616.336,4490.35
616.418,4563.35
616.5,4589.4
616.583,4558.4
616.665,4542.75
616.747,4591.05
616.83,4588.75
616.912,4561.25
616.994,4536.35
617.077,4511.8
617.159,4556.9
617.242,4569.4
617.324,4593.55
617.406,4566.4
617.489,4579.35
617.571,4569.75
617.653,4571.0
617.735,4594.15
617.818,4595.9
617.9,4631.55
617.982,4626.95
618.065,4644.05
618.147,4648.3
618.229,4588.85
618.312,4555.3
618.394,4511.25
618.476,4546.8
618.559,4586.45
618.641,4605.45
618.723,4631.35
618.805,4605.35
618.888,4582.35
618.97,4516.3
619.052,4628.9
619.135,4685.55
619.217,4640.25
619.299,4649.4
619.381,4597.95
619.464,4588.15
619.546,4576.7
619.628,4651.05
619.711,4637.15
619.793,4590.3
619.875,4583.65
619.957,4571.7
620.04,4616.9
620.122,4614.7
620.204,4625.0
620.286,4601.15
620.369,4591.9
620.451,4639.35
620.533,4647.1
620.615,4621.9
620.698,4626.7
620.78,4638.45
620.862,4620.7
620.944,4598.25
621.027,4591.25
621.109,4528.8
621.191,4595.75
621.273,4593.3
621.356,4626.0
621.438,4593.45
621.52,4651.6
621.602,4653.8
621.684,4628.45
621.767,4647.35
621.849,4613.35
621.931,4639.75
622.013,4595.45
622.095,4624.25
622.178,4631.85
622.26,4660.65
622.342,4669.95
622.424,4613.85
622.506,4600.45
622.589,4637.1
622.671,4622.7
622.753,4635.85
622.835,4624.85
622.917,4669.75
623.0,4703.95
623.082,4670.2
623.164,4633.1
623.246,4608.3
623.328,4720.05
623.41,4708.35
623.493,4657.9
623.575,4719.2
623.657,4665.05
623.739,4656.4
623.821,4628.4
623.903,4646.15
623.986,4677.8
624.068,4643.25
624.15,4650.95
624.232,4675.3
624.314,4671.6
624.396,4687.65
624.478,4690.85
624.561,4762.85
624.643,4756.0
624.725,4755.8
624.807,4724.05
624.889,4657.1
624.971,4661.0
625.053,4699.45
625.136,4648.85
625.218,4624.45
625.3,4648.65
625.382,4735.8
625.464,4759.8
625.546,4727.25
625.628,4683.05
625.71,4649.5
625.792,4654.4
625.875,4684.55
625.957,4734.4
626.039,4702.25
626.121,4708.0
626.203,4676.55
626.285,4657.25
626.367,4630.35
626.449,4672.5
626.531,4704.3
626.613,4733.6
626.695,4647.7
626.778,4665.2
626.86,4739.7
626.942,4697.8
627.024,4687.3
627.106,4700.55
627.188,4712.25
627.27,4695.4
627.352,4624.25
627.434,4684.65
627.516,4763.75
627.598,4779.4
627.68,4738.25
627.762,4716.95
627.844,4726.35
627.926,4760.7
628.008,4773.3
628.09,4795.3
628.172,4774.1
628.255,4722.9
628.337,4760.2
628.419,4815.95
628.501,4752.5
628.583,4763.6
628.665,4783.65
628.747,4796.35
628.829,4850.4
628.911,4886.5
628.993,4814.95
629.075,4856.95
629.157,4901.15
629.239,4841.15
629.321,4823.05
629.403,4857.65
629.485,4848.0
629.567,4828.1
629.649,4781.75
629.731,4793.0
629.813,4843.95
629.895,4843.5
629.977,4832.6
630.059,4820.65
630.141,4792.55
630.223,4815.15
630.305,4776.0
630.387,4820.55
630.469,4844.1
630.551,4779.0
630.633,4776.1
630.715,4843.8
630.797,4867.65
630.878,4840.35
630.96,4920.2
631.042,4995.75
631.124,5066.7
631.206,5118.3
631.288,5068.95
631.37,5094.2
631.452,5143.3
631.534,5199.8
631.616,5226.6
631.698,5280.3
631.78,5216.65
631.862,5199.25
631.944,5210.85
632.026,5206.65
632.108,5162.5
632.19,5062.35
632.272,5147.85
632.353,5122.85
632.435,5099.35
632.517,5055.3
632.599,5068.25
632.681,5066.8
632.763,5093.4
632.845,5076.75
632.927,5053.8
633.009,5021.25
633.091,5025.3
633.173,5015.1
633.254,5019.5
633.336,4977.85
633.418,4993.55
633.5,5027.6
633.582,4999.85
633.664,4989.8
633.746,5014.2
633.828,5006.1
633.91,4964.45
633.991,5002.85
634.073,4910.7
634.155,4931.35
634.237,4907.4
634.319,4880.4
634.401,4897.75
634.483,4914.3
634.564,4893.3
634.646,4930.15
634.728,4905.3
634.81,4924.0
634.892,4919.6
634.974,4868.05
635.056,4877.45
635.137,4923.5
635.219,4933.25
635.301,4926.9
635.383,4919.7
635.465,4952.45
635.547,4919.45
635.628,4962.1
635.71,4980.7
635.792,5003.45
635.874,5059.3
635.956,5082.2
636.038,5101.0
636.119,5183.8
636.201,5207.7
636.283,5324.0
636.365,5381.55
636.447,5386.4
636.528,5389.25
636.61,5440.95
636.692,5405.35
636.774,5289.3
636.856,5216.5
636.937,5133.85
637.019,5055.75
637.101,5059.35
637.183,5068.0
637.265,5021.05
637.346,5023.4
637.428,5044.2
637.51,4960.6
637.592,4898.5
637.673,4877.7
637.755,4907.1
637.837,4862.2
637.919,4859.5
638.0,4861.1
638.082,4967.75
638.164,4987.05
638.246,4927.35
638.327,4958.5
638.409,4963.25
638.491,4874.1
638.573,4892.55
638.654,4908.85
638.736,4928.25
638.818,4906.15
638.9,4897.4
638.981,4860.55
639.063,4875.8
639.145,4836.45
639.227,4914.5
639.308,4919.6
639.39,4952.6
639.472,4936.9
639.553,4890.7
639.635,4856.2
639.717,4873.45
639.799,4844.8
639.88,4826.1
639.962,4888.25
640.044,4870.15
640.125,4897.05
640.207,4863.7
640.289,4839.75
640.37,4855.25
640.452,4870.5
640.534,4904.85
640.616,4884.6
640.697,4803.6
640.779,4779.45
640.861,4735.65
640.942,4749.35
641.024,4799.9
641.106,4861.6
641.187,4947.2
641.269,4944.0
641.351,4845.15
641.432,4796.4
641.514,4851.6
641.596,4904.55
641.677,4882.5
641.759,4782.3
641.84,4811.0
641.922,4856.9
642.004,4849.3
642.085,4794.7
642.167,4878.6
642.249,4891.7
642.33,4878.95
642.412,4921.1
642.494,4897.3
642.575,4911.35
642.657,4954.5
642.738,4892.0
642.82,4810.75
642.902,4815.7
642.983,4851.85
643.065,4876.2
643.147,4833.8
643.228,4812.65
643.31,4832.6
643.391,4804.9
643.473,4809.5
643.555,4867.25
643.636,4854.5
643.718,4865.0
643.799,4902.3
643.881,4917.7
643.963,4909.5
644.044,4848.85
644.126,4797.2
644.207,4842.45
644.289,4903.8
644.37,4839.85
644.452,4726.7
644.534,4712.6
644.615,4747.95
644.697,4742.8
644.778,4763.95
644.86,4848.95
644.941,4814.1
645.023,4876.45
645.104,4852.35
645.186,4855.0
645.268,4802.1
645.349,4814.4
645.431,4826.25
645.512,4823.3
645.594,4837.8
645.675,4887.25
645.757,4878.3
645.838,4834.6
645.92,4740.0
646.001,4747.75
646.083,4806.35
646.164,4811.55
646.246,4834.8
646.327,4799.1
646.409,4708.05
646.49,4779.75
646.572,4829.7
646.653,4820.55
646.735,4765.7
646.816,4748.9
646.898,4794.15
646.979,4764.8
647.061,4750.8
647.142,4807.25
647.224,4829.7
647.305,4863.95
647.387,4830.5
647.468,4785.25
647.55,4799.75
647.631,4771.5
647.713,4725.45
647.794,4729.75
647.876,4711.85
647.957,4732.5
648.039,4734.8
648.12,4763.95
648.202,4739.8
648.283,4735.15
648.365,4768.15
648.446,4702.45
648.527,4671.45
648.609,4674.4
648.69,4703.4
648.772,4740.9
648.853,4740.2
648.935,4827.2
649.016,4810.95
649.098,4704.2
649.179,4641.6
649.26,4679.35
649.342,4694.05
649.423,4679.35
649.505,4675.95
649.586,4595.6
649.667,4662.45
649.749,4731.75
649.83,4786.75
649.912,4734.15
649.993,4672.2
650.075,4636.85
650.156,4643.9
650.237,4692.1
650.319,4725.75
650.4,4641.3
650.482,4684.35
650.563,4685.4
650.644,4674.95
650.726,4615.35
650.807,4603.0
650.888,4621.8
650.97,4574.7
651.051,4580.15
651.133,4655.3
651.214,4699.6
651.295,4679.45
651.377,4674.55
651.458,4636.4
651.539,4594.75
651.621,4606.6
651.702,4671.9
651.783,4647.65
651.865,4616.6
651.946,4603.35
652.027,4596.55
652.109,4654.3
652.19,4631.15
652.271,4560.9
652.353,4527.9
652.434,4577.5
652.515,4608.1
652.597,4621.45
652.678,4598.8
652.759,4543.8
652.841,4517.5
652.922,4520.65
653.003,4545.3
653.085,4533.65
653.166,4455.2
653.247,4463.95
653.329,4490.75
653.41,4550.2
653.491,4560.9
653.573,4470.5
653.654,4418.3
653.735,4518.3
653.816,4542.6
653.898,4495.85
653.979,4468.65
654.06,4434.05
654.142,4431.9
654.223,4465.55
654.304,4472.45
654.385,4420.3
654.467,4378.35
654.548,4386.05
654.629,4400.35
654.71,4420.35
654.792,4457.75
654.873,4475.55
654.954,4414.2
655.035,4431.3
655.117,4449.65
655.198,4455.4
655.279,4447.85
655.36,4454.8
655.442,4466.7
655.523,4437.4
655.604,4436.35
655.685,4423.5
655.767,4408.1
655.848,4396.05
655.929,4409.3
656.01,4395.4
656.091,4333.3
656.173,4292.05
656.254,4301.6
656.335,4322.55
656.416,4386.9
656.498,4451.35
656.579,4429.65
656.66,4388.7
656.741,4373.25
656.822,4344.65
656.904,4369.5
656.985,4374.35
657.066,4313.75
657.147,4286.0
657.228,4257.75
657.309,4239.4
657.391,4270.55
657.472,4311.4
657.553,4315.45
657.634,4286.4
657.715,4253.2
657.796,4235.65
657.878,4299.45
657.959,4247.6
658.04,4199.95
658.121,4196.25
658.202,4219.0
658.283,4229.8
658.365,4209.15
658.446,4167.85
658.527,4244.3
658.608,4278.5
658.689,4251.6
658.77,4283.75
658.851,4273.05
658.933,4196.9
659.014,4160.3
659.095,4183.85
659.176,4146.75
659.257,4141.95
659.338,4127.75
659.419,4138.75
659.5,4211.55
659.581,4207.2
659.663,4179.45
659.744,4208.85
659.825,4135.65
659.906,4092.75
659.987,4118.65
660.068,4118.25
660.149,4149.6
660.23,4147.15
660.311,4160.35
660.392,4079.25
660.474,4053.1
660.555,4062.9
660.636,4119.6
660.717,4113.75
660.798,4134.75
660.879,4095.15
660.96,4100.1
661.041,4069.9
