cm-1,A
4000.0,-0.0011
3999.0,-0.0011
3998.0,-0.0011
3997.0,-0.0011
3996.0,-0.0011
3995.0,-0.0012
3994.0,-0.0011
3993.0,-0.0011
3992.0,-0.0011
3991.0,-0.001
3990.0,-0.0011
3989.0,-0.0011
3988.0,-0.0011
3987.0,-0.0012
3986.0,-0.0012
3985.0,-0.0012
3984.0,-0.0012
3983.0,-0.0011
3982.0,-0.0011
3981.0,-0.0011
3980.0,-0.0011
3979.0,-0.0011
3978.0,-0.0012
3977.0,-0.0012
3976.0,-0.0013
3975.0,-0.0012
3974.0,-0.0011
3973.0,-0.0011
3972.0,-0.001
3971.0,-0.0009
3970.0,-0.0009
3969.0,-0.0009
3968.0,-0.0009
3967.0,-0.0009
3966.0,-0.0009
3965.0,-0.0009
3964.0,-0.0009
3963.0,-0.0009
3962.0,-0.0009
3961.0,-0.0009
3960.0,-0.0009
3959.0,-0.0009
3958.0,-0.0009
3957.0,-0.0009
3956.0,-0.0009
3955.0,-0.001
3954.0,-0.001
3953.0,-0.0011
3952.0,-0.0012
3951.0,-0.0012
3950.0,-0.0012
3949.0,-0.0012
3948.0,-0.0012
3947.0,-0.0012
3946.0,-0.0012
3945.0,-0.0012
3944.0,-0.0012
3943.0,-0.0011
3942.0,-0.0011
3941.0,-0.0011
3940.0,-0.001
3939.0,-0.001
3938.0,-0.001
3937.0,-0.001
3936.0,-0.001
3935.0,-0.001
3934.0,-0.001
3933.0,-0.0009
3932.0,-0.0008
3931.0,-0.0008
3930.0,-0.0008
3929.0,-0.0009
3928.0,-0.0009
3927.0,-0.001
3926.0,-0.0012
3925.0,-0.0013
3924.0,-0.0014
3923.0,-0.0014
3922.0,-0.0013
3921.0,-0.0013
3920.0,-0.0014
3919.0,-0.0014
3918.0,-0.0013
3917.0,-0.0013
3916.0,-0.0012
3915.0,-0.0012
3914.0,-0.0012
3913.0,-0.0012
3912.0,-0.0012
3911.0,-0.0013
3910.0,-0.0013
3909.0,-0.0013
3908.0,-0.0013
3907.0,-0.0014
3906.0,-0.0014
3905.0,-0.0014
3904.0,-0.0014
3903.0,-0.0015
3902.0,-0.0015
3901.0,-0.0016
3900.0,-0.0015
3899.0,-0.0015
3898.0,-0.0014
3897.0,-0.0013
3896.0,-0.0012
3895.0,-0.0012
3894.0,-0.0012
3893.0,-0.0012
3892.0,-0.0012
3891.0,-0.0012
3890.0,-0.0012
3889.0,-0.0012
3888.0,-0.0012
3887.0,-0.0011
3886.0,-0.001
3885.0,-0.0009
3884.0,-0.0009
3883.0,-0.0009
3882.0,-0.0008
3881.0,-0.0009
3880.0,-0.0009
3879.0,-0.0009
3878.0,-0.001
3877.0,-0.001
3876.0,-0.0009
3875.0,-0.0009
3874.0,-0.0008
3873.0,-0.0008
3872.0,-0.0008
3871.0,-0.0008
3870.0,-0.0008
3869.0,-0.0009
3868.0,-0.001
3867.0,-0.001
3866.0,-0.0009
3865.0,-0.0009
3864.0,-0.0009
3863.0,-0.0009
3862.0,-0.001
3861.0,-0.0011
3860.0,-0.0012
3859.0,-0.0012
3858.0,-0.0012
3857.0,-0.0013
3856.0,-0.0015
3855.0,-0.0016
3854.0,-0.0015
3853.0,-0.0013
3852.0,-0.0011
3851.0,-0.0011
3850.0,-0.0011
3849.0,-0.0012
3848.0,-0.0012
3847.0,-0.0012
3846.0,-0.0012
3845.0,-0.0011
3844.0,-0.001
3843.0,-0.0009
3842.0,-0.0007
3841.0,-0.0006
3840.0,-0.0005
3839.0,-0.0006
3838.0,-0.0007
3837.0,-0.0009
3836.0,-0.001
3835.0,-0.001
3834.0,-0.001
3833.0,-0.0009
3832.0,-0.0009
3831.0,-0.0009
3830.0,-0.001
3829.0,-0.0011
3828.0,-0.0011
3827.0,-0.0011
3826.0,-0.001
3825.0,-0.0009
3824.0,-0.0008
3823.0,-0.0006
3822.0,-0.0005
3821.0,-0.0004
3820.0,-0.0004
3819.0,-0.0005
3818.0,-0.0006
3817.0,-0.0008
3816.0,-0.0009
3815.0,-0.001
3814.0,-0.0011
3813.0,-0.0011
3812.0,-0.0011
3811.0,-0.0012
3810.0,-0.0012
3809.0,-0.0011
3808.0,-0.001
3807.0,-0.001
3806.0,-0.001
3805.0,-0.001
3804.0,-0.001
3803.0,-0.0009
3802.0,-0.0009
3801.0,-0.0009
3800.0,-0.001
3799.0,-0.0011
3798.0,-0.0011
3797.0,-0.0012
3796.0,-0.0012
3795.0,-0.0011
3794.0,-0.0011
3793.0,-0.001
3792.0,-0.001
3791.0,-0.0009
3790.0,-0.001
3789.0,-0.001
3788.0,-0.001
3787.0,-0.001
3786.0,-0.0009
3785.0,-0.0009
3784.0,-0.001
3783.0,-0.001
3782.0,-0.001
3781.0,-0.001
3780.0,-0.0009
3779.0,-0.0009
3778.0,-0.0009
3777.0,-0.001
3776.0,-0.0011
3775.0,-0.0011
3774.0,-0.0012
3773.0,-0.0012
3772.0,-0.0013
3771.0,-0.0013
3770.0,-0.0013
3769.0,-0.0014
3768.0,-0.0013
3767.0,-0.0013
3766.0,-0.0012
3765.0,-0.0012
3764.0,-0.0011
3763.0,-0.0011
3762.0,-0.0011
3761.0,-0.0011
3760.0,-0.0011
3759.0,-0.001
3758.0,-0.0009
3757.0,-0.0009
3756.0,-0.0009
3755.0,-0.0008
3754.0,-0.0007
3753.0,-0.0007
3752.0,-0.0007
3751.0,-0.0009
3750.0,-0.0011
3749.0,-0.0012
3748.0,-0.0013
3747.0,-0.0014
3746.0,-0.0015
3745.0,-0.0018
3744.0,-0.002
3743.0,-0.0021
3742.0,-0.0021
3741.0,-0.0021
3740.0,-0.002
3739.0,-0.0021
3738.0,-0.0021
3737.0,-0.0022
3736.0,-0.0022
3735.0,-0.0023
3734.0,-0.0024
3733.0,-0.0026
3732.0,-0.0028
3731.0,-0.003
3730.0,-0.0032
3729.0,-0.0033
3728.0,-0.0033
3727.0,-0.0031
3726.0,-0.0029
3725.0,-0.0027
3724.0,-0.0025
3723.0,-0.0024
3722.0,-0.0023
3721.0,-0.0023
3720.0,-0.0022
3719.0,-0.002
3718.0,-0.0019
3717.0,-0.0018
3716.0,-0.0016
3715.0,-0.0016
3714.0,-0.0016
3713.0,-0.0018
3712.0,-0.0021
3711.0,-0.0022
3710.0,-0.0023
3709.0,-0.0023
3708.0,-0.0023
3707.0,-0.0023
3706.0,-0.0023
3705.0,-0.0022
3704.0,-0.0021
3703.0,-0.002
3702.0,-0.0019
3701.0,-0.0019
3700.0,-0.0019
3699.0,-0.002
3698.0,-0.002
3697.0,-0.0021
3696.0,-0.0022
3695.0,-0.0022
3694.0,-0.0022
3693.0,-0.002
3692.0,-0.0017
3691.0,-0.0014
3690.0,-0.0012
3689.0,-0.0012
3688.0,-0.0014
3687.0,-0.0015
3686.0,-0.0015
3685.0,-0.0015
3684.0,-0.0014
3683.0,-0.0014
3682.0,-0.0014
3681.0,-0.0014
3680.0,-0.0013
3679.0,-0.0011
3678.0,-0.0008
3677.0,-0.0005
3676.0,-0.0003
3675.0,-0.0004
3674.0,-0.0006
3673.0,-0.0008
3672.0,-0.0008
3671.0,-0.0008
3670.0,-0.0007
3669.0,-0.0006
3668.0,-0.0007
3667.0,-0.0007
3666.0,-0.0008
3665.0,-0.0008
3664.0,-0.0008
3663.0,-0.0008
3662.0,-0.0007
3661.0,-0.0007
3660.0,-0.0007
3659.0,-0.0008
3658.0,-0.0007
3657.0,-0.0007
3656.0,-0.0005
3655.0,-0.0004
3654.0,-0.0004
3653.0,-0.0004
3652.0,-0.0005
3651.0,-0.0006
3650.0,-0.0006
3649.0,-0.0005
3648.0,-0.0004
3647.0,-0.0003
3646.0,-0.0003
3645.0,-0.0003
3644.0,-0.0004
3643.0,-0.0005
3642.0,-0.0006
3641.0,-0.0007
3640.0,-0.0007
3639.0,-0.0007
3638.0,-0.0008
3637.0,-0.0008
3636.0,-0.0009
3635.0,-0.0011
3634.0,-0.0012
3633.0,-0.0013
3632.0,-0.0014
3631.0,-0.0014
3630.0,-0.0013
3629.0,-0.0012
3628.0,-0.0012
3627.0,-0.0012
3626.0,-0.0011
3625.0,-0.0011
3624.0,-0.001
3623.0,-0.0009
3622.0,-0.0008
3621.0,-0.0005
3620.0,-0.0004
3619.0,-0.0003
3618.0,-0.0002
3617.0,-0.0002
3616.0,-0.0002
3615.0,-0.0001
3614.0,-0.0001
3613.0,-0.0001
3612.0,-0.0001
3611.0,-0.0001
3610.0,-0.0002
3609.0,-0.0002
3608.0,-0.0003
3607.0,-0.0002
3606.0,-0.0002
3605.0,-0.0001
3604.0,-0.0001
3603.0,-0.0002
3602.0,-0.0002
3601.0,-0.0001
3600.0,-0.0001
3599.0,-0.0
3598.0,0.0
3597.0,0.0001
3596.0,0.0002
3595.0,0.0003
3594.0,0.0003
3593.0,0.0003
3592.0,0.0003
3591.0,0.0004
3590.0,0.0004
3589.0,0.0005
3588.0,0.0007
3587.0,0.0009
3586.0,0.001
3585.0,0.0011
3584.0,0.0011
3583.0,0.0012
3582.0,0.0012
3581.0,0.0013
3580.0,0.0015
3579.0,0.0016
3578.0,0.0017
3577.0,0.0018
3576.0,0.0018
3575.0,0.0019
3574.0,0.002
3573.0,0.0021
3572.0,0.0022
3571.0,0.0022
3570.0,0.0022
3569.0,0.0022
3568.0,0.0023
3567.0,0.0023
3566.0,0.0024
3565.0,0.0024
3564.0,0.0025
3563.0,0.0026
3562.0,0.0027
3561.0,0.0027
3560.0,0.0027
3559.0,0.0027
3558.0,0.0027
3557.0,0.0028
3556.0,0.0028
3555.0,0.0029
3554.0,0.003
3553.0,0.0031
3552.0,0.0032
3551.0,0.0032
3550.0,0.0032
3549.0,0.0033
3548.0,0.0034
3547.0,0.0035
3546.0,0.0035
3545.0,0.0034
3544.0,0.0034
3543.0,0.0034
3542.0,0.0035
3541.0,0.0037
3540.0,0.0038
3539.0,0.0038
3538.0,0.0037
3537.0,0.0036
3536.0,0.0035
3535.0,0.0036
3534.0,0.0036
3533.0,0.0036
3532.0,0.0036
3531.0,0.0036
3530.0,0.0036
3529.0,0.0037
3528.0,0.0038
3527.0,0.0038
3526.0,0.0039
3525.0,0.0039
3524.0,0.004
3523.0,0.004
3522.0,0.0041
3521.0,0.0041
3520.0,0.0041
3519.0,0.0041
3518.0,0.004
3517.0,0.004
3516.0,0.004
3515.0,0.0041
3514.0,0.0043
3513.0,0.0045
3512.0,0.0046
3511.0,0.0046
3510.0,0.0046
3509.0,0.0046
3508.0,0.0047
3507.0,0.0047
3506.0,0.0047
3505.0,0.0047
3504.0,0.0047
3503.0,0.0047
3502.0,0.0048
3501.0,0.0048
3500.0,0.0048
3499.0,0.0048
3498.0,0.0048
3497.0,0.0048
3496.0,0.0049
3495.0,0.005
3494.0,0.0051
3493.0,0.0052
3492.0,0.0052
3491.0,0.0053
3490.0,0.0053
3489.0,0.0054
3488.0,0.0054
3487.0,0.0055
3486.0,0.0056
3485.0,0.0056
3484.0,0.0056
3483.0,0.0055
3482.0,0.0055
3481.0,0.0055
3480.0,0.0055
3479.0,0.0055
3478.0,0.0055
3477.0,0.0055
3476.0,0.0056
3475.0,0.0056
3474.0,0.0056
3473.0,0.0056
3472.0,0.0056
3471.0,0.0057
3470.0,0.0057
3469.0,0.0058
3468.0,0.0058
3467.0,0.0058
3466.0,0.0059
3465.0,0.0059
3464.0,0.0059
3463.0,0.006
3462.0,0.006
3461.0,0.0061
3460.0,0.0062
3459.0,0.0062
3458.0,0.0063
3457.0,0.0063
3456.0,0.0063
3455.0,0.0064
3454.0,0.0065
3453.0,0.0065
3452.0,0.0065
3451.0,0.0066
3450.0,0.0067
3449.0,0.0068
3448.0,0.007
3447.0,0.0071
3446.0,0.0072
3445.0,0.0073
3444.0,0.0073
3443.0,0.0074
3442.0,0.0074
3441.0,0.0074
3440.0,0.0075
3439.0,0.0075
3438.0,0.0076
3437.0,0.0077
3436.0,0.0078
3435.0,0.0079
3434.0,0.008
3433.0,0.008
3432.0,0.0081
3431.0,0.0081
3430.0,0.0082
3429.0,0.0083
3428.0,0.0084
3427.0,0.0086
3426.0,0.0088
3425.0,0.0089
3424.0,0.009
3423.0,0.009
3422.0,0.009
3421.0,0.009
3420.0,0.009
3419.0,0.0091
3418.0,0.0093
3417.0,0.0094
3416.0,0.0095
3415.0,0.0095
3414.0,0.0095
3413.0,0.0095
3412.0,0.0096
3411.0,0.0097
3410.0,0.0099
3409.0,0.01
3408.0,0.0101
3407.0,0.0102
3406.0,0.0103
3405.0,0.0104
3404.0,0.0105
3403.0,0.0106
3402.0,0.0107
3401.0,0.0107
3400.0,0.0108
3399.0,0.0108
3398.0,0.0107
3397.0,0.0107
3396.0,0.0106
3395.0,0.0106
3394.0,0.0107
3393.0,0.0107
3392.0,0.0108
3391.0,0.0108
3390.0,0.0107
3389.0,0.0106
3388.0,0.0106
3387.0,0.0106
3386.0,0.0106
3385.0,0.0106
3384.0,0.0106
3383.0,0.0106
3382.0,0.0106
3381.0,0.0105
3380.0,0.0105
3379.0,0.0106
3378.0,0.0106
3377.0,0.0106
3376.0,0.0106
3375.0,0.0106
3374.0,0.0107
3373.0,0.0107
3372.0,0.0107
3371.0,0.0106
3370.0,0.0106
3369.0,0.0105
3368.0,0.0105
3367.0,0.0105
3366.0,0.0105
3365.0,0.0105
3364.0,0.0104
3363.0,0.0104
3362.0,0.0104
3361.0,0.0104
3360.0,0.0104
3359.0,0.0103
3358.0,0.0102
3357.0,0.0102
3356.0,0.0101
3355.0,0.0101
3354.0,0.0101
3353.0,0.0101
3352.0,0.0101
3351.0,0.01
3350.0,0.01
3349.0,0.0101
3348.0,0.0101
3347.0,0.0101
3346.0,0.0101
3345.0,0.01
3344.0,0.01
3343.0,0.0099
3342.0,0.0097
3341.0,0.0096
3340.0,0.0095
3339.0,0.0095
3338.0,0.0095
3337.0,0.0095
3336.0,0.0094
3335.0,0.0093
3334.0,0.0092
3333.0,0.0091
3332.0,0.0091
3331.0,0.0091
3330.0,0.0091
3329.0,0.0091
3328.0,0.0091
3327.0,0.0092
3326.0,0.0092
3325.0,0.0092
3324.0,0.0092
3323.0,0.0093
3322.0,0.0092
3321.0,0.0092
3320.0,0.0092
3319.0,0.0092
3318.0,0.0091
3317.0,0.009
3316.0,0.0089
3315.0,0.0089
3314.0,0.0089
3313.0,0.0089
3312.0,0.0089
3311.0,0.0089
3310.0,0.0088
3309.0,0.0087
3308.0,0.0087
3307.0,0.0086
3306.0,0.0086
3305.0,0.0085
3304.0,0.0085
3303.0,0.0085
3302.0,0.0085
3301.0,0.0087
3300.0,0.0088
3299.0,0.0088
3298.0,0.0088
3297.0,0.0087
3296.0,0.0086
3295.0,0.0085
3294.0,0.0084
3293.0,0.0083
3292.0,0.0083
3291.0,0.0082
3290.0,0.0082
3289.0,0.0082
3288.0,0.0083
3287.0,0.0083
3286.0,0.0082
3285.0,0.0082
3284.0,0.0082
3283.0,0.0083
3282.0,0.0083
3281.0,0.0083
3280.0,0.0083
3279.0,0.0082
3278.0,0.0083
3277.0,0.0083
3276.0,0.0083
3275.0,0.0083
3274.0,0.0083
3273.0,0.0083
3272.0,0.0081
3271.0,0.008
3270.0,0.0079
3269.0,0.0079
3268.0,0.0079
3267.0,0.0078
3266.0,0.0078
3265.0,0.0078
3264.0,0.0078
3263.0,0.0079
3262.0,0.0079
3261.0,0.0079
3260.0,0.0079
3259.0,0.0079
3258.0,0.0078
3257.0,0.0078
3256.0,0.0078
3255.0,0.008
3254.0,0.0081
3253.0,0.0083
3252.0,0.0084
3251.0,0.0084
3250.0,0.0084
3249.0,0.0083
3248.0,0.0082
3247.0,0.0082
3246.0,0.0081
3245.0,0.0081
3244.0,0.0081
3243.0,0.0081
3242.0,0.0081
3241.0,0.0081
3240.0,0.0081
3239.0,0.0081
3238.0,0.0081
3237.0,0.0081
3236.0,0.008
3235.0,0.008
3234.0,0.008
3233.0,0.0079
3232.0,0.0079
3231.0,0.0079
3230.0,0.0079
3229.0,0.0078
3228.0,0.0078
3227.0,0.0078
3226.0,0.0077
3225.0,0.0077
3224.0,0.0076
3223.0,0.0076
3222.0,0.0075
3221.0,0.0075
3220.0,0.0075
3219.0,0.0074
3218.0,0.0073
3217.0,0.0073
3216.0,0.0073
3215.0,0.0073
3214.0,0.0073
3213.0,0.0073
3212.0,0.0072
3211.0,0.0072
3210.0,0.0072
3209.0,0.0072
3208.0,0.0072
3207.0,0.0071
3206.0,0.0071
3205.0,0.007
3204.0,0.007
3203.0,0.007
3202.0,0.007
3201.0,0.0069
3200.0,0.0069
3199.0,0.0068
3198.0,0.0067
3197.0,0.0067
3196.0,0.0066
3195.0,0.0065
3194.0,0.0064
3193.0,0.0064
3192.0,0.0064
3191.0,0.0064
3190.0,0.0064
3189.0,0.0063
3188.0,0.0062
3187.0,0.0062
3186.0,0.0061
3185.0,0.0061
3184.0,0.0061
3183.0,0.0062
3182.0,0.0062
3181.0,0.0062
3180.0,0.0061
3179.0,0.0061
3178.0,0.006
3177.0,0.0059
3176.0,0.0059
3175.0,0.0059
3174.0,0.0059
3173.0,0.0059
3172.0,0.0059
3171.0,0.0059
3170.0,0.0058
3169.0,0.0057
3168.0,0.0056
3167.0,0.0055
3166.0,0.0055
3165.0,0.0055
3164.0,0.0055
3163.0,0.0056
3162.0,0.0056
3161.0,0.0056
3160.0,0.0055
3159.0,0.0053
3158.0,0.0053
3157.0,0.0053
3156.0,0.0053
3155.0,0.0053
3154.0,0.0053
3153.0,0.0052
3152.0,0.0051
3151.0,0.0051
3150.0,0.0051
3149.0,0.005
3148.0,0.0049
3147.0,0.0049
3146.0,0.0048
3145.0,0.0048
3144.0,0.0048
3143.0,0.0049
3142.0,0.0049
3141.0,0.0049
3140.0,0.0048
3139.0,0.0048
3138.0,0.0047
3137.0,0.0047
3136.0,0.0047
3135.0,0.0046
3134.0,0.0045
3133.0,0.0044
3132.0,0.0044
3131.0,0.0044
3130.0,0.0043
3129.0,0.0044
3128.0,0.0044
3127.0,0.0044
3126.0,0.0044
3125.0,0.0044
3124.0,0.0044
3123.0,0.0044
3122.0,0.0045
3121.0,0.0045
3120.0,0.0045
3119.0,0.0045
3118.0,0.0045
3117.0,0.0044
3116.0,0.0043
3115.0,0.0042
3114.0,0.0042
3113.0,0.0042
3112.0,0.0041
3111.0,0.0041
3110.0,0.004
3109.0,0.004
3108.0,0.004
3107.0,0.004
3106.0,0.0041
3105.0,0.0041
3104.0,0.004
3103.0,0.004
3102.0,0.0039
3101.0,0.0039
3100.0,0.0039
3099.0,0.0038
3098.0,0.0038
3097.0,0.0037
3096.0,0.0037
3095.0,0.0036
3094.0,0.0036
3093.0,0.0036
3092.0,0.0036
3091.0,0.0036
3090.0,0.0035
3089.0,0.0034
3088.0,0.0034
3087.0,0.0034
3086.0,0.0034
3085.0,0.0034
3084.0,0.0034
3083.0,0.0035
3082.0,0.0035
3081.0,0.0035
3080.0,0.0035
3079.0,0.0034
3078.0,0.0033
3077.0,0.0033
3076.0,0.0032
3075.0,0.0033
3074.0,0.0033
3073.0,0.0033
3072.0,0.0034
3071.0,0.0034
3070.0,0.0033
3069.0,0.0033
3068.0,0.0032
3067.0,0.0031
3066.0,0.0031
3065.0,0.003
3064.0,0.0031
3063.0,0.0031
3062.0,0.0031
3061.0,0.0031
3060.0,0.003
3059.0,0.0029
3058.0,0.0029
3057.0,0.0029
3056.0,0.0029
3055.0,0.0029
3054.0,0.0029
3053.0,0.0028
3052.0,0.0028
3051.0,0.0027
3050.0,0.0027
3049.0,0.0027
3048.0,0.0027
3047.0,0.0027
3046.0,0.0027
3045.0,0.0027
3044.0,0.0027
3043.0,0.0027
3042.0,0.0028
3041.0,0.0028
3040.0,0.0028
3039.0,0.0028
3038.0,0.0027
3037.0,0.0026
3036.0,0.0026
3035.0,0.0026
3034.0,0.0027
3033.0,0.0027
3032.0,0.0028
3031.0,0.0028
3030.0,0.0028
3029.0,0.0028
3028.0,0.0027
3027.0,0.0026
3026.0,0.0026
3025.0,0.0027
3024.0,0.0028
3023.0,0.003
3022.0,0.0031
3021.0,0.0031
3020.0,0.0032
3019.0,0.0031
3018.0,0.0032
3017.0,0.0033
3016.0,0.0034
3015.0,0.0036
3014.0,0.0039
3013.0,0.0041
3012.0,0.0044
3011.0,0.0046
3010.0,0.0047
3009.0,0.0049
3008.0,0.0051
3007.0,0.0053
3006.0,0.0057
3005.0,0.006
3004.0,0.0064
3003.0,0.0067
3002.0,0.007
3001.0,0.0072
3000.0,0.0074
2999.0,0.0076
2998.0,0.0078
2997.0,0.008
2996.0,0.0082
2995.0,0.0083
2994.0,0.0083
2993.0,0.0082
2992.0,0.0081
2991.0,0.0079
2990.0,0.0076
2989.0,0.0073
2988.0,0.0069
2987.0,0.0066
2986.0,0.0063
2985.0,0.006
2984.0,0.0058
2983.0,0.0056
2982.0,0.0054
2981.0,0.0053
2980.0,0.0052
2979.0,0.005
2978.0,0.0049
2977.0,0.0048
2976.0,0.0047
2975.0,0.0047
2974.0,0.0046
2973.0,0.0046
2972.0,0.0045
2971.0,0.0046
2970.0,0.0046
2969.0,0.0046
2968.0,0.0046
2967.0,0.0047
2966.0,0.0047
2965.0,0.0047
2964.0,0.0047
2963.0,0.0047
2962.0,0.0048
2961.0,0.0048
2960.0,0.0049
2959.0,0.005
2958.0,0.0051
2957.0,0.0051
2956.0,0.0052
2955.0,0.0053
2954.0,0.0055
2953.0,0.0058
2952.0,0.0061
2951.0,0.0064
2950.0,0.0066
2949.0,0.0068
2948.0,0.007
2947.0,0.0071
2946.0,0.0073
2945.0,0.0074
2944.0,0.0073
2943.0,0.0072
2942.0,0.0071
2941.0,0.0069
2940.0,0.0066
2939.0,0.0064
2938.0,0.0061
2937.0,0.0059
2936.0,0.0057
2935.0,0.0055
2934.0,0.0053
2933.0,0.0051
2932.0,0.005
2931.0,0.0048
2930.0,0.0047
2929.0,0.0046
2928.0,0.0045
2927.0,0.0045
2926.0,0.0043
2925.0,0.0042
2924.0,0.0041
2923.0,0.004
2922.0,0.0039
2921.0,0.0038
2920.0,0.0038
2919.0,0.0038
2918.0,0.0037
2917.0,0.0037
2916.0,0.0037
2915.0,0.0036
2914.0,0.0036
2913.0,0.0035
2912.0,0.0035
2911.0,0.0035
2910.0,0.0034
2909.0,0.0034
2908.0,0.0034
2907.0,0.0034
2906.0,0.0034
2905.0,0.0034
2904.0,0.0033
2903.0,0.0033
2902.0,0.0032
2901.0,0.0032
2900.0,0.0032
2899.0,0.0032
2898.0,0.0031
2897.0,0.0031
2896.0,0.0031
2895.0,0.0031
2894.0,0.0031
2893.0,0.0031
2892.0,0.0031
2891.0,0.003
2890.0,0.003
2889.0,0.0031
2888.0,0.0032
2887.0,0.0033
2886.0,0.0033
2885.0,0.0033
2884.0,0.0034
2883.0,0.0034
2882.0,0.0034
2881.0,0.0035
2880.0,0.0035
2879.0,0.0036
2878.0,0.0035
2877.0,0.0035
2876.0,0.0034
2875.0,0.0033
2874.0,0.0032
2873.0,0.003
2872.0,0.0029
2871.0,0.0028
2870.0,0.0027
2869.0,0.0027
2868.0,0.0026
2867.0,0.0026
2866.0,0.0025
2865.0,0.0025
2864.0,0.0025
2863.0,0.0025
2862.0,0.0024
2861.0,0.0024
2860.0,0.0025
2859.0,0.0024
2858.0,0.0024
2857.0,0.0024
2856.0,0.0023
2855.0,0.0023
2854.0,0.0023
2853.0,0.0023
2852.0,0.0022
2851.0,0.0022
2850.0,0.0022
2849.0,0.0021
2848.0,0.0021
2847.0,0.002
2846.0,0.0019
2845.0,0.0019
2844.0,0.0019
2843.0,0.0019
2842.0,0.002
2841.0,0.0021
2840.0,0.0021
2839.0,0.0021
2838.0,0.0021
2837.0,0.002
2836.0,0.002
2835.0,0.002
2834.0,0.002
2833.0,0.0019
2832.0,0.0018
2831.0,0.0018
2830.0,0.0019
2829.0,0.0019
2828.0,0.002
2827.0,0.0021
2826.0,0.0021
2825.0,0.0021
2824.0,0.002
2823.0,0.002
2822.0,0.0019
2821.0,0.0019
2820.0,0.0019
2819.0,0.0019
2818.0,0.0019
2817.0,0.0019
2816.0,0.0019
2815.0,0.0019
2814.0,0.0019
2813.0,0.0019
2812.0,0.0018
2811.0,0.0018
2810.0,0.0017
2809.0,0.0017
2808.0,0.0018
2807.0,0.0018
2806.0,0.0018
2805.0,0.0018
2804.0,0.0018
2803.0,0.0018
2802.0,0.0017
2801.0,0.0017
2800.0,0.0016
2799.0,0.0016
2798.0,0.0016
2797.0,0.0016
2796.0,0.0017
2795.0,0.0017
2794.0,0.0017
2793.0,0.0017
2792.0,0.0016
2791.0,0.0016
2790.0,0.0016
2789.0,0.0016
2788.0,0.0015
2787.0,0.0015
2786.0,0.0015
2785.0,0.0015
2784.0,0.0014
2783.0,0.0014
2782.0,0.0013
2781.0,0.0013
2780.0,0.0013
2779.0,0.0013
2778.0,0.0013
2777.0,0.0014
2776.0,0.0014
2775.0,0.0015
2774.0,0.0016
2773.0,0.0016
2772.0,0.0017
2771.0,0.0016
2770.0,0.0015
2769.0,0.0014
2768.0,0.0014
2767.0,0.0013
2766.0,0.0013
2765.0,0.0013
2764.0,0.0013
2763.0,0.0013
2762.0,0.0013
2761.0,0.0013
2760.0,0.0013
2759.0,0.0013
2758.0,0.0013
2757.0,0.0012
2756.0,0.0013
2755.0,0.0013
2754.0,0.0013
2753.0,0.0014
2752.0,0.0014
2751.0,0.0014
2750.0,0.0014
2749.0,0.0014
2748.0,0.0013
2747.0,0.0013
2746.0,0.0013
2745.0,0.0014
2744.0,0.0014
2743.0,0.0015
2742.0,0.0015
2741.0,0.0015
2740.0,0.0014
2739.0,0.0013
2738.0,0.0012
2737.0,0.0012
2736.0,0.0012
2735.0,0.0012
2734.0,0.0012
2733.0,0.0011
2732.0,0.0011
2731.0,0.0011
2730.0,0.0012
2729.0,0.0013
2728.0,0.0013
2727.0,0.0014
2726.0,0.0014
2725.0,0.0013
2724.0,0.0012
2723.0,0.0012
2722.0,0.0011
2721.0,0.0012
2720.0,0.0012
2719.0,0.0013
2718.0,0.0013
2717.0,0.0014
2716.0,0.0014
2715.0,0.0013
2714.0,0.0013
2713.0,0.0012
2712.0,0.0012
2711.0,0.0012
2710.0,0.0012
2709.0,0.0012
2708.0,0.0012
2707.0,0.0011
2706.0,0.0011
2705.0,0.0011
2704.0,0.0011
2703.0,0.0012
2702.0,0.0012
2701.0,0.0012
2700.0,0.0013
2699.0,0.0012
2698.0,0.0012
2697.0,0.0012
2696.0,0.0011
2695.0,0.0011
2694.0,0.0011
2693.0,0.0011
2692.0,0.0012
2691.0,0.0012
2690.0,0.0012
2689.0,0.0012
2688.0,0.0012
2687.0,0.0012
2686.0,0.0012
2685.0,0.0012
2684.0,0.0011
2683.0,0.0011
2682.0,0.0011
2681.0,0.0012
2680.0,0.0012
2679.0,0.0011
2678.0,0.0011
2677.0,0.0011
2676.0,0.0011
2675.0,0.0012
2674.0,0.0013
2673.0,0.0013
2672.0,0.0013
2671.0,0.0012
2670.0,0.0012
2669.0,0.0011
2668.0,0.0011
2667.0,0.0011
2666.0,0.0011
2665.0,0.001
2664.0,0.0011
2663.0,0.0011
2662.0,0.0012
2661.0,0.0012
2660.0,0.0012
2659.0,0.0012
2658.0,0.0012
2657.0,0.0012
2656.0,0.0012
2655.0,0.0012
2654.0,0.0011
2653.0,0.0011
2652.0,0.0012
2651.0,0.0012
2650.0,0.0012
2649.0,0.0012
2648.0,0.0012
2647.0,0.0012
2646.0,0.0011
2645.0,0.0011
2644.0,0.0011
2643.0,0.0011
2642.0,0.0011
2641.0,0.0012
2640.0,0.0012
2639.0,0.0012
2638.0,0.0012
2637.0,0.0012
2636.0,0.0013
2635.0,0.0013
2634.0,0.0013
2633.0,0.0012
2632.0,0.0011
2631.0,0.001
2630.0,0.001
2629.0,0.001
2628.0,0.001
2627.0,0.0011
2626.0,0.0011
2625.0,0.0012
2624.0,0.0012
2623.0,0.0011
2622.0,0.0011
2621.0,0.001
2620.0,0.001
2619.0,0.001
2618.0,0.001
2617.0,0.001
2616.0,0.001
2615.0,0.001
2614.0,0.001
2613.0,0.0011
2612.0,0.0011
2611.0,0.0011
2610.0,0.0011
2609.0,0.0012
2608.0,0.0012
2607.0,0.0011
2606.0,0.001
2605.0,0.0009
2604.0,0.0009
2603.0,0.0009
2602.0,0.0009
2601.0,0.0009
2600.0,0.0009
2599.0,0.0008
2598.0,0.0008
2597.0,0.0008
2596.0,0.0008
2595.0,0.0008
2594.0,0.0009
2593.0,0.0009
2592.0,0.0009
2591.0,0.0009
2590.0,0.0009
2589.0,0.0009
2588.0,0.0009
2587.0,0.0009
2586.0,0.0009
2585.0,0.0009
2584.0,0.0009
2583.0,0.0009
2582.0,0.0009
2581.0,0.0009
2580.0,0.0009
2579.0,0.0009
2578.0,0.0008
2577.0,0.0009
2576.0,0.0009
2575.0,0.0009
2574.0,0.0009
2573.0,0.0009
2572.0,0.0009
2571.0,0.0009
2570.0,0.0009
2569.0,0.0009
2568.0,0.0009
2567.0,0.0008
2566.0,0.0008
2565.0,0.0007
2564.0,0.0007
2563.0,0.0008
2562.0,0.0008
2561.0,0.0008
2560.0,0.0008
2559.0,0.0009
2558.0,0.0009
2557.0,0.0009
2556.0,0.001
2555.0,0.001
2554.0,0.001
2553.0,0.001
2552.0,0.001
2551.0,0.001
2550.0,0.0009
2549.0,0.0009
2548.0,0.0009
2547.0,0.0009
2546.0,0.0009
2545.0,0.0009
2544.0,0.001
2543.0,0.001
2542.0,0.001
2541.0,0.001
2540.0,0.001
2539.0,0.0009
2538.0,0.0009
2537.0,0.0009
2536.0,0.001
2535.0,0.001
2534.0,0.0009
2533.0,0.0009
2532.0,0.0009
2531.0,0.0008
2530.0,0.0008
2529.0,0.0008
2528.0,0.0009
2527.0,0.0009
2526.0,0.0009
2525.0,0.0008
2524.0,0.0008
2523.0,0.0007
2522.0,0.0007
2521.0,0.0007
2520.0,0.0008
2519.0,0.0008
2518.0,0.0009
2517.0,0.0009
2516.0,0.0009
2515.0,0.0008
2514.0,0.0008
2513.0,0.0008
2512.0,0.0008
2511.0,0.0008
2510.0,0.0008
2509.0,0.0008
2508.0,0.0008
2507.0,0.0008
2506.0,0.0008
2505.0,0.0008
2504.0,0.0008
2503.0,0.0008
2502.0,0.0008
2501.0,0.0008
2500.0,0.0008
2499.0,0.0008
2498.0,0.0008
2497.0,0.0007
2496.0,0.0007
2495.0,0.0007
2494.0,0.0006
2493.0,0.0006
2492.0,0.0007
2491.0,0.0007
2490.0,0.0007
2489.0,0.0007
2488.0,0.0007
2487.0,0.0007
2486.0,0.0007
2485.0,0.0007
2484.0,0.0007
2483.0,0.0006
2482.0,0.0006
2481.0,0.0006
2480.0,0.0007
2479.0,0.0008
2478.0,0.0008
2477.0,0.0009
2476.0,0.0009
2475.0,0.0009
2474.0,0.0008
2473.0,0.0007
2472.0,0.0006
2471.0,0.0006
2470.0,0.0006
2469.0,0.0006
2468.0,0.0007
2467.0,0.0007
2466.0,0.0007
2465.0,0.0007
2464.0,0.0008
2463.0,0.0008
2462.0,0.0008
2461.0,0.0008
2460.0,0.0008
2459.0,0.0008
2458.0,0.0008
2457.0,0.0008
2456.0,0.0008
2455.0,0.0008
2454.0,0.0008
2453.0,0.0008
2452.0,0.0008
2451.0,0.0008
2450.0,0.0008
2449.0,0.0008
2448.0,0.0008
2447.0,0.0008
2446.0,0.0007
2445.0,0.0008
2444.0,0.0008
2443.0,0.0008
2442.0,0.0008
2441.0,0.0008
2440.0,0.0008
2439.0,0.0008
2438.0,0.0008
2437.0,0.0008
2436.0,0.0009
2435.0,0.0009
2434.0,0.0009
2433.0,0.0008
2432.0,0.0009
2431.0,0.0009
2430.0,0.0009
2429.0,0.0009
2428.0,0.0009
2427.0,0.0009
2426.0,0.0009
2425.0,0.0009
2424.0,0.001
2423.0,0.001
2422.0,0.001
2421.0,0.001
2420.0,0.001
2419.0,0.0011
2418.0,0.0011
2417.0,0.0012
2416.0,0.0012
2415.0,0.0012
2414.0,0.0011
2413.0,0.001
2412.0,0.001
2411.0,0.001
2410.0,0.0011
2409.0,0.0011
2408.0,0.0012
2407.0,0.0012
2406.0,0.0012
2405.0,0.0012
2404.0,0.0011
2403.0,0.0011
2402.0,0.0011
2401.0,0.0011
2400.0,0.0012
2399.0,0.0012
2398.0,0.0011
2397.0,0.0011
2396.0,0.0011
2395.0,0.0011
2394.0,0.0011
2393.0,0.0011
2392.0,0.0011
2391.0,0.001
2390.0,0.0009
2389.0,0.0007
2388.0,0.0004
2387.0,-0.0
2386.0,-0.0005
2385.0,-0.001
2384.0,-0.0015
2383.0,-0.002
2382.0,-0.0023
2381.0,-0.0026
2380.0,-0.0027
2379.0,-0.0028
2378.0,-0.0029
2377.0,-0.0031
2376.0,-0.0034
2375.0,-0.0036
2374.0,-0.0039
2373.0,-0.004
2372.0,-0.0041
2371.0,-0.0044
2370.0,-0.0053
2369.0,-0.0069
2368.0,-0.0087
2367.0,-0.0101
2366.0,-0.0105
2365.0,-0.0094
2364.0,-0.0068
2363.0,-0.0037
2362.0,-0.0011
2361.0,0.0001
2360.0,-0.0006
2359.0,-0.0026
2358.0,-0.0043
2357.0,-0.005
2356.0,-0.0056
2355.0,-0.0071
2354.0,-0.0083
2353.0,-0.0085
2352.0,-0.0079
2351.0,-0.0074
2350.0,-0.0072
2349.0,-0.007
2348.0,-0.0068
2347.0,-0.0067
2346.0,-0.0069
2345.0,-0.0072
2344.0,-0.0072
2343.0,-0.0073
2342.0,-0.0076
2341.0,-0.0079
2340.0,-0.0081
2339.0,-0.0085
2338.0,-0.0087
2337.0,-0.0087
2336.0,-0.0085
2335.0,-0.0082
2334.0,-0.0077
2333.0,-0.0072
2332.0,-0.007
2331.0,-0.0073
2330.0,-0.008
2329.0,-0.0084
2328.0,-0.0083
2327.0,-0.0079
2326.0,-0.0072
2325.0,-0.0064
2324.0,-0.0056
2323.0,-0.0049
2322.0,-0.0044
2321.0,-0.0042
2320.0,-0.0042
2319.0,-0.0044
2318.0,-0.0045
2317.0,-0.0044
2316.0,-0.0043
2315.0,-0.0044
2314.0,-0.0045
2313.0,-0.0048
2312.0,-0.0051
2311.0,-0.0053
2310.0,-0.0054
2309.0,-0.0052
2308.0,-0.0048
2307.0,-0.0043
2306.0,-0.0039
2305.0,-0.0036
2304.0,-0.0035
2303.0,-0.0036
2302.0,-0.0036
2301.0,-0.0034
2300.0,-0.0031
2299.0,-0.0028
2298.0,-0.0026
2297.0,-0.0025
2296.0,-0.0023
2295.0,-0.0021
2294.0,-0.0019
2293.0,-0.0017
2292.0,-0.0014
2291.0,-0.0011
2290.0,-0.0008
2289.0,-0.0006
2288.0,-0.0004
2287.0,-0.0003
2286.0,-0.0001
2285.0,0.0001
2284.0,0.0002
2283.0,0.0002
2282.0,0.0002
2281.0,0.0001
2280.0,0.0001
2279.0,0.0
2278.0,-0.0
2277.0,0.0
2276.0,0.0001
2275.0,0.0001
2274.0,0.0
2273.0,-0.0
2272.0,-0.0001
2271.0,-0.0001
2270.0,-0.0002
2269.0,-0.0001
2268.0,0.0
2267.0,0.0001
2266.0,0.0001
2265.0,0.0001
2264.0,0.0001
2263.0,0.0001
2262.0,0.0001
2261.0,0.0001
2260.0,0.0002
2259.0,0.0002
2258.0,0.0002
2257.0,0.0003
2256.0,0.0003
2255.0,0.0004
2254.0,0.0004
2253.0,0.0004
2252.0,0.0004
2251.0,0.0004
2250.0,0.0005
2249.0,0.0005
2248.0,0.0005
2247.0,0.0005
2246.0,0.0005
2245.0,0.0005
2244.0,0.0005
2243.0,0.0005
2242.0,0.0006
2241.0,0.0006
2240.0,0.0006
2239.0,0.0006
2238.0,0.0006
2237.0,0.0006
2236.0,0.0007
2235.0,0.0007
2234.0,0.0007
2233.0,0.0007
2232.0,0.0007
2231.0,0.0008
2230.0,0.0008
2229.0,0.0008
2228.0,0.0008
2227.0,0.0007
2226.0,0.0006
2225.0,0.0006
2224.0,0.0006
2223.0,0.0006
2222.0,0.0006
2221.0,0.0006
2220.0,0.0006
2219.0,0.0005
2218.0,0.0005
2217.0,0.0005
2216.0,0.0005
2215.0,0.0005
2214.0,0.0006
2213.0,0.0006
2212.0,0.0006
2211.0,0.0005
2210.0,0.0005
2209.0,0.0004
2208.0,0.0004
2207.0,0.0004
2206.0,0.0004
2205.0,0.0004
2204.0,0.0004
2203.0,0.0004
2202.0,0.0004
2201.0,0.0004
2200.0,0.0004
2199.0,0.0004
2198.0,0.0005
2197.0,0.0005
2196.0,0.0005
2195.0,0.0005
2194.0,0.0005
2193.0,0.0004
2192.0,0.0004
2191.0,0.0004
2190.0,0.0004
2189.0,0.0004
2188.0,0.0004
2187.0,0.0004
2186.0,0.0004
2185.0,0.0004
2184.0,0.0003
2183.0,0.0003
2182.0,0.0002
2181.0,0.0003
2180.0,0.0003
2179.0,0.0004
2178.0,0.0004
2177.0,0.0005
2176.0,0.0005
2175.0,0.0004
2174.0,0.0004
2173.0,0.0004
2172.0,0.0004
2171.0,0.0004
2170.0,0.0003
2169.0,0.0003
2168.0,0.0003
2167.0,0.0003
2166.0,0.0003
2165.0,0.0003
2164.0,0.0003
2163.0,0.0003
2162.0,0.0003
2161.0,0.0003
2160.0,0.0003
2159.0,0.0003
2158.0,0.0003
2157.0,0.0002
2156.0,0.0002
2155.0,0.0003
2154.0,0.0002
2153.0,0.0002
2152.0,0.0003
2151.0,0.0003
2150.0,0.0003
2149.0,0.0002
2148.0,0.0002
2147.0,0.0003
2146.0,0.0003
2145.0,0.0003
2144.0,0.0003
2143.0,0.0003
2142.0,0.0003
2141.0,0.0003
2140.0,0.0003
2139.0,0.0003
2138.0,0.0003
2137.0,0.0003
2136.0,0.0003
2135.0,0.0004
2134.0,0.0005
2133.0,0.0004
2132.0,0.0004
2131.0,0.0003
2130.0,0.0003
2129.0,0.0003
2128.0,0.0003
2127.0,0.0004
2126.0,0.0004
2125.0,0.0004
2124.0,0.0003
2123.0,0.0003
2122.0,0.0003
2121.0,0.0004
2120.0,0.0004
2119.0,0.0004
2118.0,0.0004
2117.0,0.0004
2116.0,0.0003
2115.0,0.0003
2114.0,0.0003
2113.0,0.0003
2112.0,0.0004
2111.0,0.0004
2110.0,0.0004
2109.0,0.0004
2108.0,0.0004
2107.0,0.0003
2106.0,0.0003
2105.0,0.0003
2104.0,0.0003
2103.0,0.0004
2102.0,0.0004
2101.0,0.0004
2100.0,0.0004
2099.0,0.0003
2098.0,0.0003
2097.0,0.0003
2096.0,0.0003
2095.0,0.0003
2094.0,0.0002
2093.0,0.0003
2092.0,0.0003
2091.0,0.0003
2090.0,0.0003
2089.0,0.0003
2088.0,0.0004
2087.0,0.0004
2086.0,0.0004
2085.0,0.0004
2084.0,0.0004
2083.0,0.0004
2082.0,0.0003
2081.0,0.0003
2080.0,0.0003
2079.0,0.0003
2078.0,0.0003
2077.0,0.0003
2076.0,0.0003
2075.0,0.0003
2074.0,0.0003
2073.0,0.0003
2072.0,0.0003
2071.0,0.0003
2070.0,0.0002
2069.0,0.0002
2068.0,0.0002
2067.0,0.0002
2066.0,0.0001
2065.0,0.0001
2064.0,0.0001
2063.0,0.0001
2062.0,0.0001
2061.0,-0.0
2060.0,-0.0001
2059.0,-0.0001
2058.0,-0.0001
2057.0,-0.0
2056.0,0.0
2055.0,0.0
2054.0,-0.0
2053.0,-0.0001
2052.0,-0.0001
2051.0,-0.0002
2050.0,-0.0002
2049.0,-0.0003
2048.0,-0.0002
2047.0,-0.0002
2046.0,-0.0002
2045.0,-0.0003
2044.0,-0.0003
2043.0,-0.0003
2042.0,-0.0004
2041.0,-0.0004
2040.0,-0.0004
2039.0,-0.0004
2038.0,-0.0005
2037.0,-0.0005
2036.0,-0.0005
2035.0,-0.0005
2034.0,-0.0006
2033.0,-0.0006
2032.0,-0.0006
2031.0,-0.0006
2030.0,-0.0007
2029.0,-0.0007
2028.0,-0.0006
2027.0,-0.0006
2026.0,-0.0006
2025.0,-0.0006
2024.0,-0.0006
2023.0,-0.0006
2022.0,-0.0007
2021.0,-0.0006
2020.0,-0.0006
2019.0,-0.0006
2018.0,-0.0007
2017.0,-0.0007
2016.0,-0.0007
2015.0,-0.0007
2014.0,-0.0007
2013.0,-0.0007
2012.0,-0.0006
2011.0,-0.0007
2010.0,-0.0007
2009.0,-0.0007
2008.0,-0.0007
2007.0,-0.0007
2006.0,-0.0007
2005.0,-0.0008
2004.0,-0.0008
2003.0,-0.0008
2002.0,-0.0008
2001.0,-0.0007
2000.0,-0.0007
1999.0,-0.0007
1998.0,-0.0007
1997.0,-0.0008
1996.0,-0.0008
1995.0,-0.0008
1994.0,-0.0008
1993.0,-0.0009
1992.0,-0.0009
1991.0,-0.0009
1990.0,-0.0009
1989.0,-0.0009
1988.0,-0.0009
1987.0,-0.0009
1986.0,-0.0009
1985.0,-0.0009
1984.0,-0.0009
1983.0,-0.0009
1982.0,-0.0009
1981.0,-0.0008
1980.0,-0.0007
1979.0,-0.0007
1978.0,-0.0008
1977.0,-0.0008
1976.0,-0.0008
1975.0,-0.0008
1974.0,-0.0009
1973.0,-0.0009
1972.0,-0.0009
1971.0,-0.0009
1970.0,-0.0009
1969.0,-0.001
1968.0,-0.001
1967.0,-0.0011
1966.0,-0.0011
1965.0,-0.0011
1964.0,-0.001
1963.0,-0.001
1962.0,-0.0011
1961.0,-0.0011
1960.0,-0.0011
1959.0,-0.0011
1958.0,-0.0012
1957.0,-0.0013
1956.0,-0.0013
1955.0,-0.0013
1954.0,-0.0013
1953.0,-0.0013
1952.0,-0.0013
1951.0,-0.0012
1950.0,-0.0012
1949.0,-0.0013
1948.0,-0.0013
1947.0,-0.0013
1946.0,-0.0014
1945.0,-0.0014
1944.0,-0.0015
1943.0,-0.0015
1942.0,-0.0015
1941.0,-0.0015
1940.0,-0.0015
1939.0,-0.0016
1938.0,-0.0017
1937.0,-0.0017
1936.0,-0.0017
1935.0,-0.0017
1934.0,-0.0018
1933.0,-0.0018
1932.0,-0.0018
1931.0,-0.0018
1930.0,-0.0018
1929.0,-0.0018
1928.0,-0.0018
1927.0,-0.0017
1926.0,-0.0017
1925.0,-0.0017
1924.0,-0.0018
1923.0,-0.0018
1922.0,-0.0018
1921.0,-0.0018
1920.0,-0.0018
1919.0,-0.0019
1918.0,-0.002
1917.0,-0.002
1916.0,-0.002
1915.0,-0.002
1914.0,-0.002
1913.0,-0.002
1912.0,-0.002
1911.0,-0.002
1910.0,-0.0021
1909.0,-0.0021
1908.0,-0.0022
1907.0,-0.0022
1906.0,-0.0022
1905.0,-0.0022
1904.0,-0.0022
1903.0,-0.0022
1902.0,-0.0023
1901.0,-0.0023
1900.0,-0.0023
1899.0,-0.0023
1898.0,-0.0024
1897.0,-0.0025
1896.0,-0.0025
1895.0,-0.0025
1894.0,-0.0025
1893.0,-0.0025
1892.0,-0.0024
1891.0,-0.0024
1890.0,-0.0025
1889.0,-0.0026
1888.0,-0.0026
1887.0,-0.0025
1886.0,-0.0026
1885.0,-0.0026
1884.0,-0.0025
1883.0,-0.0025
1882.0,-0.0025
1881.0,-0.0025
1880.0,-0.0025
1879.0,-0.0026
1878.0,-0.0026
1877.0,-0.0026
1876.0,-0.0026
1875.0,-0.0027
1874.0,-0.0028
1873.0,-0.0028
1872.0,-0.0028
1871.0,-0.0028
1870.0,-0.0029
1869.0,-0.003
1868.0,-0.003
1867.0,-0.003
1866.0,-0.003
1865.0,-0.003
1864.0,-0.0029
1863.0,-0.0029
1862.0,-0.0029
1861.0,-0.0029
1860.0,-0.0029
1859.0,-0.0029
1858.0,-0.0029
1857.0,-0.0029
1856.0,-0.0029
1855.0,-0.0029
1854.0,-0.0029
1853.0,-0.0029
1852.0,-0.0029
1851.0,-0.0028
1850.0,-0.0028
1849.0,-0.0029
1848.0,-0.0029
1847.0,-0.0029
1846.0,-0.003
1845.0,-0.003
1844.0,-0.003
1843.0,-0.0029
1842.0,-0.0028
1841.0,-0.0027
1840.0,-0.0026
1839.0,-0.0025
1838.0,-0.0025
1837.0,-0.0025
1836.0,-0.0024
1835.0,-0.0023
1834.0,-0.0023
1833.0,-0.0022
1832.0,-0.0021
1831.0,-0.002
1830.0,-0.002
1829.0,-0.002
1828.0,-0.0018
1827.0,-0.0017
1826.0,-0.0017
1825.0,-0.0017
1824.0,-0.0016
1823.0,-0.0015
1822.0,-0.0014
1821.0,-0.0013
1820.0,-0.0012
1819.0,-0.0011
1818.0,-0.0011
1817.0,-0.001
1816.0,-0.0009
1815.0,-0.0007
1814.0,-0.0006
1813.0,-0.0005
1812.0,-0.0004
1811.0,-0.0003
1810.0,-0.0003
1809.0,-0.0002
1808.0,-0.0
1807.0,0.0001
1806.0,0.0002
1805.0,0.0004
1804.0,0.0006
1803.0,0.0008
1802.0,0.0009
1801.0,0.0012
1800.0,0.0016
1799.0,0.002
1798.0,0.0023
1797.0,0.0028
1796.0,0.0034
1795.0,0.0039
1794.0,0.0044
1793.0,0.0052
1792.0,0.0066
1791.0,0.0079
1790.0,0.009
1789.0,0.0103
1788.0,0.0119
1787.0,0.0137
1786.0,0.0159
1785.0,0.0186
1784.0,0.0214
1783.0,0.0241
1782.0,0.027
1781.0,0.0304
1780.0,0.0341
1779.0,0.0374
1778.0,0.0403
1777.0,0.0432
1776.0,0.0461
1775.0,0.0489
1774.0,0.0519
1773.0,0.0561
1772.0,0.0613
1771.0,0.0658
1770.0,0.0695
1769.0,0.074
1768.0,0.0796
1767.0,0.0854
1766.0,0.0907
1765.0,0.0958
1764.0,0.1017
1763.0,0.1092
1762.0,0.1181
1761.0,0.1265
1760.0,0.1329
1759.0,0.1379
1758.0,0.143
1757.0,0.1489
1756.0,0.154
1755.0,0.1568
1754.0,0.1581
1753.0,0.1591
1752.0,0.1602
1751.0,0.161
1750.0,0.1611
1749.0,0.1606
1748.0,0.1592
1747.0,0.1565
1746.0,0.1529
1745.0,0.1485
1744.0,0.143
1743.0,0.1367
1742.0,0.1301
1741.0,0.1227
1740.0,0.1141
1739.0,0.1058
1738.0,0.0992
1737.0,0.094
1736.0,0.0883
1735.0,0.0807
1734.0,0.0727
1733.0,0.0672
1732.0,0.0634
1731.0,0.0601
1730.0,0.0569
1729.0,0.0539
1728.0,0.0513
1727.0,0.0491
1726.0,0.0472
1725.0,0.0455
1724.0,0.0437
1723.0,0.0422
1722.0,0.0409
1721.0,0.0397
1720.0,0.0384
1719.0,0.037
1718.0,0.0356
1717.0,0.0344
1716.0,0.0333
1715.0,0.0323
1714.0,0.0315
1713.0,0.0306
1712.0,0.0297
1711.0,0.0288
1710.0,0.0279
1709.0,0.0271
1708.0,0.0263
1707.0,0.0254
1706.0,0.0246
1705.0,0.0239
1704.0,0.0232
1703.0,0.0226
1702.0,0.022
1701.0,0.0215
1700.0,0.021
1699.0,0.0205
1698.0,0.0203
1697.0,0.0201
1696.0,0.0197
1695.0,0.0192
1694.0,0.0188
1693.0,0.0185
1692.0,0.0181
1691.0,0.0178
1690.0,0.0175
1689.0,0.0174
1688.0,0.0172
1687.0,0.017
1686.0,0.0168
1685.0,0.0167
1684.0,0.0166
1683.0,0.0165
1682.0,0.0164
1681.0,0.0163
1680.0,0.0163
1679.0,0.0161
1678.0,0.016
1677.0,0.0159
1676.0,0.0157
1675.0,0.0157
1674.0,0.0156
1673.0,0.0156
1672.0,0.0155
1671.0,0.0155
1670.0,0.0157
1669.0,0.0158
1668.0,0.0159
1667.0,0.0158
1666.0,0.0158
1665.0,0.0157
1664.0,0.0156
1663.0,0.0156
1662.0,0.0156
1661.0,0.0156
1660.0,0.0156
1659.0,0.0156
1658.0,0.0156
1657.0,0.0156
1656.0,0.0155
1655.0,0.0155
1654.0,0.0156
1653.0,0.016
1652.0,0.0163
1651.0,0.0162
1650.0,0.0162
1649.0,0.0163
1648.0,0.0165
1647.0,0.0169
1646.0,0.0175
1645.0,0.0178
1644.0,0.018
1643.0,0.0182
1642.0,0.0185
1641.0,0.0187
1640.0,0.0188
1639.0,0.0187
1638.0,0.0186
1637.0,0.0185
1636.0,0.0183
1635.0,0.018
1634.0,0.0177
1633.0,0.0173
1632.0,0.0169
1631.0,0.0166
1630.0,0.0163
1629.0,0.0159
1628.0,0.0156
1627.0,0.0152
1626.0,0.0149
1625.0,0.0146
1624.0,0.0142
1623.0,0.0139
1622.0,0.0136
1621.0,0.0134
1620.0,0.0132
1619.0,0.013
1618.0,0.0128
1617.0,0.0126
1616.0,0.0125
1615.0,0.0122
1614.0,0.0121
1613.0,0.0119
1612.0,0.0118
1611.0,0.0116
1610.0,0.0114
1609.0,0.0112
1608.0,0.011
1607.0,0.0108
1606.0,0.0107
1605.0,0.0105
1604.0,0.0104
1603.0,0.0103
1602.0,0.0102
1601.0,0.01
1600.0,0.0098
1599.0,0.0096
1598.0,0.0095
1597.0,0.0093
1596.0,0.0092
1595.0,0.0091
1594.0,0.009
1593.0,0.0089
1592.0,0.0087
1591.0,0.0086
1590.0,0.0085
1589.0,0.0083
1588.0,0.0082
1587.0,0.0081
1586.0,0.008
1585.0,0.0079
1584.0,0.0078
1583.0,0.0077
1582.0,0.0076
1581.0,0.0074
1580.0,0.0072
1579.0,0.0071
1578.0,0.0071
1577.0,0.0071
1576.0,0.007
1575.0,0.0068
1574.0,0.0066
1573.0,0.0064
1572.0,0.0063
1571.0,0.0062
1570.0,0.0061
1569.0,0.0061
1568.0,0.0061
1567.0,0.006
1566.0,0.0059
1565.0,0.0059
1564.0,0.0058
1563.0,0.0057
1562.0,0.0057
1561.0,0.0057
1560.0,0.0055
1559.0,0.0052
1558.0,0.005
1557.0,0.0049
1556.0,0.0048
1555.0,0.0048
1554.0,0.0048
1553.0,0.0048
1552.0,0.0048
1551.0,0.0047
1550.0,0.0047
1549.0,0.0047
1548.0,0.0046
1547.0,0.0046
1546.0,0.0045
1545.0,0.0044
1544.0,0.0043
1543.0,0.0042
1542.0,0.0041
1541.0,0.0042
1540.0,0.0044
1539.0,0.0044
1538.0,0.0043
1537.0,0.0042
1536.0,0.0041
1535.0,0.0041
1534.0,0.0041
1533.0,0.0041
1532.0,0.0041
1531.0,0.0041
1530.0,0.004
1529.0,0.0039
1528.0,0.0038
1527.0,0.0036
1526.0,0.0035
1525.0,0.0035
1524.0,0.0036
1523.0,0.0035
1522.0,0.0035
1521.0,0.0035
1520.0,0.0035
1519.0,0.0035
1518.0,0.0035
1517.0,0.0034
1516.0,0.0034
1515.0,0.0033
1514.0,0.0032
1513.0,0.0031
1512.0,0.003
1511.0,0.003
1510.0,0.0029
1509.0,0.003
1508.0,0.003
1507.0,0.0031
1506.0,0.0031
1505.0,0.003
1504.0,0.0029
1503.0,0.0028
1502.0,0.0027
1501.0,0.0027
1500.0,0.0028
1499.0,0.0027
1498.0,0.0026
1497.0,0.0025
1496.0,0.0025
1495.0,0.0025
1494.0,0.0025
1493.0,0.0025
1492.0,0.0025
1491.0,0.0024
1490.0,0.0023
1489.0,0.0023
1488.0,0.0024
1487.0,0.0024
1486.0,0.0024
1485.0,0.0024
1484.0,0.0025
1483.0,0.0025
1482.0,0.0025
1481.0,0.0026
1480.0,0.0027
1479.0,0.0028
1478.0,0.0029
1477.0,0.0031
1476.0,0.0034
1475.0,0.0036
1474.0,0.004
1473.0,0.0049
1472.0,0.0062
1471.0,0.0074
1470.0,0.0085
1469.0,0.0098
1468.0,0.0113
1467.0,0.0132
1466.0,0.0159
1465.0,0.0196
1464.0,0.0233
1463.0,0.0263
1462.0,0.0287
1461.0,0.0311
1460.0,0.0334
1459.0,0.0361
1458.0,0.0398
1457.0,0.0442
1456.0,0.0469
1455.0,0.048
1454.0,0.0486
1453.0,0.049
1452.0,0.0492
1451.0,0.0491
1450.0,0.0486
1449.0,0.0477
1448.0,0.0462
1447.0,0.0443
1446.0,0.042
1445.0,0.0395
1444.0,0.0365
1443.0,0.0332
1442.0,0.03
1441.0,0.027
1440.0,0.0243
1439.0,0.0218
1438.0,0.0195
1437.0,0.017
1436.0,0.0149
1435.0,0.0136
1434.0,0.0128
1433.0,0.0121
1432.0,0.0112
1431.0,0.0104
1430.0,0.0097
1429.0,0.0091
1428.0,0.0085
1427.0,0.0081
1426.0,0.0078
1425.0,0.0073
1424.0,0.0068
1423.0,0.0065
1422.0,0.0062
1421.0,0.0059
1420.0,0.0056
1419.0,0.0053
1418.0,0.0052
1417.0,0.005
1416.0,0.0048
1415.0,0.0047
1414.0,0.0046
1413.0,0.0045
1412.0,0.0043
1411.0,0.0043
1410.0,0.0043
1409.0,0.0043
1408.0,0.0043
1407.0,0.0043
1406.0,0.0044
1405.0,0.0044
1404.0,0.0046
1403.0,0.0048
1402.0,0.005
1401.0,0.0053
1400.0,0.0057
1399.0,0.0065
1398.0,0.0075
1397.0,0.0086
1396.0,0.0102
1395.0,0.0126
1394.0,0.0153
1393.0,0.0178
1392.0,0.0203
1391.0,0.0227
1390.0,0.0252
1389.0,0.0279
1388.0,0.0312
1387.0,0.0346
1386.0,0.0376
1385.0,0.0397
1384.0,0.0412
1383.0,0.0421
1382.0,0.0425
1381.0,0.0422
1380.0,0.0413
1379.0,0.0397
1378.0,0.0378
1377.0,0.0359
1376.0,0.0343
1375.0,0.0332
1374.0,0.033
1373.0,0.0336
1372.0,0.0347
1371.0,0.036
1370.0,0.0373
1369.0,0.0387
1368.0,0.0398
1367.0,0.0406
1366.0,0.041
1365.0,0.0414
1364.0,0.0417
1363.0,0.0422
1362.0,0.0427
1361.0,0.0431
1360.0,0.0433
1359.0,0.0433
1358.0,0.0431
1357.0,0.0427
1356.0,0.0421
1355.0,0.0413
1354.0,0.0403
1353.0,0.0392
1352.0,0.038
1351.0,0.0368
1350.0,0.0354
1349.0,0.0342
1348.0,0.033
1347.0,0.0318
1346.0,0.0307
1345.0,0.0297
1344.0,0.0287
1343.0,0.0277
1342.0,0.0268
1341.0,0.026
1340.0,0.0252
1339.0,0.0245
1338.0,0.024
1337.0,0.0236
1336.0,0.0231
1335.0,0.0227
1334.0,0.0222
1333.0,0.0218
1332.0,0.0214
1331.0,0.021
1330.0,0.0208
1329.0,0.0206
1328.0,0.0204
1327.0,0.0203
1326.0,0.0202
1325.0,0.0202
1324.0,0.0201
1323.0,0.0201
1322.0,0.0201
1321.0,0.02
1320.0,0.02
1319.0,0.0199
1318.0,0.0199
1317.0,0.0198
1316.0,0.0198
1315.0,0.0197
1314.0,0.0198
1313.0,0.0198
1312.0,0.0199
1311.0,0.02
1310.0,0.02
1309.0,0.02
1308.0,0.02
1307.0,0.0201
1306.0,0.0201
1305.0,0.0201
1304.0,0.02
1303.0,0.02
1302.0,0.0199
1301.0,0.0197
1300.0,0.0195
1299.0,0.0192
1298.0,0.0189
1297.0,0.0184
1296.0,0.0179
1295.0,0.0173
1294.0,0.0167
1293.0,0.0161
1292.0,0.0157
1291.0,0.0154
1290.0,0.0155
1289.0,0.0159
1288.0,0.0165
1287.0,0.0175
1286.0,0.0187
1285.0,0.0202
1284.0,0.0219
1283.0,0.0237
1282.0,0.0257
1281.0,0.0277
1280.0,0.0299
1279.0,0.032
1278.0,0.034
1277.0,0.036
1276.0,0.0377
1275.0,0.0393
1274.0,0.0408
1273.0,0.0421
1272.0,0.0432
1271.0,0.0442
1270.0,0.045
1269.0,0.0456
1268.0,0.0459
1267.0,0.0461
1266.0,0.046
1265.0,0.0458
1264.0,0.0454
1263.0,0.0449
1262.0,0.0443
1261.0,0.0436
1260.0,0.0429
1259.0,0.0421
1258.0,0.0412
1257.0,0.0404
1256.0,0.0397
1255.0,0.039
1254.0,0.0383
1253.0,0.0377
1252.0,0.0372
1251.0,0.0368
1250.0,0.0365
1249.0,0.0363
1248.0,0.036
1247.0,0.0359
1246.0,0.0358
1245.0,0.0359
1244.0,0.0361
1243.0,0.0363
1242.0,0.0366
1241.0,0.037
1240.0,0.0375
1239.0,0.038
1238.0,0.0386
1237.0,0.0393
1236.0,0.0401
1235.0,0.0411
1234.0,0.0421
1233.0,0.0433
1232.0,0.0446
1231.0,0.0461
1230.0,0.0477
1229.0,0.0496
1228.0,0.0517
1227.0,0.0538
1226.0,0.0562
1225.0,0.0587
1224.0,0.0613
1223.0,0.064
1222.0,0.0668
1221.0,0.0698
1220.0,0.0728
1219.0,0.0758
1218.0,0.0788
1217.0,0.0818
1216.0,0.0847
1215.0,0.0874
1214.0,0.0899
1213.0,0.0921
1212.0,0.0941
1211.0,0.0958
1210.0,0.0972
1209.0,0.0983
1208.0,0.0992
1207.0,0.0999
1206.0,0.1004
1205.0,0.101
1204.0,0.1016
1203.0,0.1024
1202.0,0.1032
1201.0,0.1043
1200.0,0.1058
1199.0,0.1074
1198.0,0.1095
1197.0,0.112
1196.0,0.1149
1195.0,0.1183
1194.0,0.1222
1193.0,0.1266
1192.0,0.1316
1191.0,0.1371
1190.0,0.1432
1189.0,0.1499
1188.0,0.1572
1187.0,0.1647
1186.0,0.1722
1185.0,0.1794
1184.0,0.1858
1183.0,0.1908
1182.0,0.1938
1181.0,0.1943
1180.0,0.1918
1179.0,0.186
1178.0,0.1773
1177.0,0.1663
1176.0,0.1541
1175.0,0.1412
1174.0,0.1284
1173.0,0.1165
1172.0,0.1058
1171.0,0.0961
1170.0,0.0876
1169.0,0.0801
1168.0,0.0736
1167.0,0.068
1166.0,0.063
1165.0,0.0588
1164.0,0.0551
1163.0,0.052
1162.0,0.0491
1161.0,0.0467
1160.0,0.0445
1159.0,0.0427
1158.0,0.0412
1157.0,0.0401
1156.0,0.0392
1155.0,0.0385
1154.0,0.0382
1153.0,0.0381
1152.0,0.0384
1151.0,0.0391
1150.0,0.0401
1149.0,0.0417
1148.0,0.0439
1147.0,0.0467
1146.0,0.0503
1145.0,0.0546
1144.0,0.0597
1143.0,0.0654
1142.0,0.0716
1141.0,0.0784
1140.0,0.0855
1139.0,0.0927
1138.0,0.0998
1137.0,0.1068
1136.0,0.1133
1135.0,0.1193
1134.0,0.1247
1133.0,0.1296
1132.0,0.134
1131.0,0.1379
1130.0,0.141
1129.0,0.1434
1128.0,0.1448
1127.0,0.145
1126.0,0.144
1125.0,0.142
1124.0,0.1394
1123.0,0.1362
1122.0,0.1329
1121.0,0.1297
1120.0,0.127
1119.0,0.1245
1118.0,0.1224
1117.0,0.1209
1116.0,0.1199
1115.0,0.1194
1114.0,0.1194
1113.0,0.1202
1112.0,0.1219
1111.0,0.1244
1110.0,0.1277
1109.0,0.132
1108.0,0.1372
1107.0,0.143
1106.0,0.1492
1105.0,0.1557
1104.0,0.1627
1103.0,0.1697
1102.0,0.1768
1101.0,0.184
1100.0,0.1913
1099.0,0.1985
1098.0,0.2057
1097.0,0.2129
1096.0,0.2202
1095.0,0.2274
1094.0,0.2345
1093.0,0.2417
1092.0,0.2491
1091.0,0.2562
1090.0,0.2632
1089.0,0.2701
1088.0,0.2769
1087.0,0.2829
1086.0,0.2879
1085.0,0.2922
1084.0,0.2955
1083.0,0.2974
1082.0,0.2979
1081.0,0.2973
1080.0,0.2955
1079.0,0.2924
1078.0,0.288
1077.0,0.2827
1076.0,0.2764
1075.0,0.269
1074.0,0.2606
1073.0,0.2518
1072.0,0.2425
1071.0,0.2328
1070.0,0.2227
1069.0,0.2128
1068.0,0.2031
1067.0,0.1938
1066.0,0.1851
1065.0,0.1773
1064.0,0.1705
1063.0,0.1648
1062.0,0.1601
1061.0,0.1568
1060.0,0.1549
1059.0,0.154
1058.0,0.1539
1057.0,0.1546
1056.0,0.1557
1055.0,0.1569
1054.0,0.1583
1053.0,0.1598
1052.0,0.1615
1051.0,0.1633
1050.0,0.1653
1049.0,0.1674
1048.0,0.1696
1047.0,0.1716
1046.0,0.1732
1045.0,0.1745
1044.0,0.1752
1043.0,0.1753
1042.0,0.1746
1041.0,0.1733
1040.0,0.1713
1039.0,0.1687
1038.0,0.1654
1037.0,0.1618
1036.0,0.1579
1035.0,0.1537
1034.0,0.1496
1033.0,0.1456
1032.0,0.1421
1031.0,0.1389
1030.0,0.136
1029.0,0.1334
1028.0,0.1312
1027.0,0.1293
1026.0,0.1273
1025.0,0.1254
1024.0,0.1233
1023.0,0.1209
1022.0,0.1184
1021.0,0.1156
1020.0,0.1127
1019.0,0.1097
1018.0,0.1067
1017.0,0.1037
1016.0,0.1009
1015.0,0.0981
1014.0,0.0954
1013.0,0.0929
1012.0,0.0906
1011.0,0.0883
1010.0,0.0862
1009.0,0.0842
1008.0,0.0824
1007.0,0.0806
1006.0,0.0789
1005.0,0.0774
1004.0,0.0761
1003.0,0.0748
1002.0,0.0736
1001.0,0.0725
1000.0,0.0715
999.0,0.0704
998.0,0.0693
997.0,0.0684
996.0,0.0676
995.0,0.0667
994.0,0.0659
993.0,0.0651
992.0,0.0643
991.0,0.0636
990.0,0.0629
989.0,0.0622
988.0,0.0617
987.0,0.0612
986.0,0.0609
985.0,0.0606
984.0,0.0603
983.0,0.0598
982.0,0.0591
981.0,0.0583
980.0,0.0575
979.0,0.0569
978.0,0.0563
977.0,0.0558
976.0,0.0553
975.0,0.0547
974.0,0.0541
973.0,0.0536
972.0,0.053
971.0,0.0526
970.0,0.0522
969.0,0.0518
968.0,0.0515
967.0,0.0512
966.0,0.0509
965.0,0.0509
964.0,0.051
963.0,0.0514
962.0,0.052
961.0,0.0528
960.0,0.0538
959.0,0.0547
958.0,0.0553
957.0,0.0558
956.0,0.0559
955.0,0.0559
954.0,0.0556
953.0,0.0552
952.0,0.0547
951.0,0.0542
950.0,0.0536
949.0,0.053
948.0,0.0524
947.0,0.0519
946.0,0.0513
945.0,0.0508
944.0,0.0504
943.0,0.05
942.0,0.0497
941.0,0.0495
940.0,0.0492
939.0,0.049
938.0,0.0488
937.0,0.0486
936.0,0.0484
935.0,0.0481
934.0,0.0478
933.0,0.0476
932.0,0.0474
931.0,0.0472
930.0,0.047
929.0,0.0469
928.0,0.0468
927.0,0.0468
926.0,0.0468
925.0,0.0468
924.0,0.0469
923.0,0.0469
922.0,0.0469
921.0,0.0468
920.0,0.0467
919.0,0.0466
918.0,0.0464
917.0,0.0463
916.0,0.0463
915.0,0.0462
914.0,0.0461
913.0,0.0461
912.0,0.046
911.0,0.0459
910.0,0.0458
909.0,0.0457
908.0,0.0456
907.0,0.0455
906.0,0.0454
905.0,0.0453
904.0,0.0452
903.0,0.045
902.0,0.0449
901.0,0.0449
900.0,0.0449
899.0,0.0451
898.0,0.0452
897.0,0.0452
896.0,0.0451
895.0,0.0451
894.0,0.045
893.0,0.045
892.0,0.0449
891.0,0.0445
890.0,0.0441
889.0,0.0435
888.0,0.0429
887.0,0.0424
886.0,0.042
885.0,0.0419
884.0,0.042
883.0,0.0425
882.0,0.0434
881.0,0.0448
880.0,0.0465
879.0,0.0484
878.0,0.0507
877.0,0.0531
876.0,0.0557
875.0,0.0583
874.0,0.0607
873.0,0.0629
872.0,0.0646
871.0,0.066
870.0,0.067
869.0,0.0678
868.0,0.0684
867.0,0.0688
866.0,0.0688
865.0,0.0687
864.0,0.0684
863.0,0.0679
862.0,0.067
861.0,0.0658
860.0,0.0643
859.0,0.0625
858.0,0.0605
857.0,0.0583
856.0,0.0563
855.0,0.0544
854.0,0.0527
853.0,0.0514
852.0,0.0505
851.0,0.0498
850.0,0.0493
849.0,0.0489
848.0,0.0486
847.0,0.0483
846.0,0.0477
845.0,0.0471
844.0,0.0464
843.0,0.0457
842.0,0.045
841.0,0.0444
840.0,0.0438
839.0,0.0432
838.0,0.0426
837.0,0.042
836.0,0.0414
835.0,0.0409
834.0,0.0406
833.0,0.0405
832.0,0.0403
831.0,0.0401
830.0,0.0399
829.0,0.0397
828.0,0.0395
827.0,0.0393
826.0,0.0391
825.0,0.0389
824.0,0.0388
823.0,0.0386
822.0,0.0385
821.0,0.0383
820.0,0.0382
819.0,0.038
818.0,0.0379
817.0,0.0378
816.0,0.0377
815.0,0.0376
814.0,0.0376
813.0,0.0375
812.0,0.0374
811.0,0.0372
810.0,0.0371
809.0,0.0371
808.0,0.0372
807.0,0.0372
806.0,0.0371
805.0,0.037
804.0,0.0369
803.0,0.0368
802.0,0.0368
801.0,0.0368
800.0,0.0369
799.0,0.0369
798.0,0.0369
797.0,0.0368
796.0,0.0367
795.0,0.0367
794.0,0.0367
793.0,0.0368
792.0,0.0371
791.0,0.0374
790.0,0.0378
789.0,0.0382
788.0,0.0387
787.0,0.0391
786.0,0.0396
785.0,0.0401
784.0,0.0407
783.0,0.0413
782.0,0.0418
781.0,0.0424
780.0,0.043
779.0,0.0437
778.0,0.0444
777.0,0.0451
776.0,0.0459
775.0,0.0467
774.0,0.0475
773.0,0.0485
772.0,0.0495
771.0,0.0505
770.0,0.0514
769.0,0.0525
768.0,0.0537
767.0,0.0551
766.0,0.0568
765.0,0.0586
764.0,0.0606
763.0,0.0627
762.0,0.0649
761.0,0.0671
760.0,0.069
759.0,0.0709
758.0,0.0725
757.0,0.074
756.0,0.075
755.0,0.0755
754.0,0.0756
753.0,0.0754
752.0,0.0751
751.0,0.0746
750.0,0.0741
749.0,0.0736
748.0,0.0732
747.0,0.0729
746.0,0.0726
745.0,0.0724
744.0,0.072
743.0,0.0713
742.0,0.0706
741.0,0.0699
740.0,0.0691
739.0,0.0682
738.0,0.0672
737.0,0.066
736.0,0.0644
735.0,0.0625
734.0,0.0604
733.0,0.0584
732.0,0.0566
731.0,0.0549
730.0,0.0537
729.0,0.0527
728.0,0.052
727.0,0.0514
726.0,0.051
725.0,0.051
724.0,0.0513
723.0,0.0517
722.0,0.0521
721.0,0.0528
720.0,0.054
719.0,0.0554
718.0,0.0566
717.0,0.0576
716.0,0.0584
715.0,0.0591
714.0,0.0599
713.0,0.0606
712.0,0.0613
711.0,0.0619
710.0,0.0626
709.0,0.0632
708.0,0.0637
707.0,0.0639
706.0,0.0641
705.0,0.0643
704.0,0.0645
703.0,0.0644
702.0,0.0643
701.0,0.0643
700.0,0.0641
699.0,0.0639
698.0,0.0638
697.0,0.0639
696.0,0.0643
695.0,0.0646
694.0,0.0647
693.0,0.0645
692.0,0.064
691.0,0.0631
690.0,0.0623
689.0,0.062
688.0,0.062
687.0,0.062
686.0,0.0618
685.0,0.0614
684.0,0.0612
683.0,0.0614
682.0,0.0621
681.0,0.063
680.0,0.0636
679.0,0.0634
678.0,0.0628
677.0,0.0623
676.0,0.0621
675.0,0.062
674.0,0.0619
673.0,0.0615
672.0,0.0611
671.0,0.0617
670.0,0.0644
669.0,0.0698
668.0,0.0748
667.0,0.0736
666.0,0.0682
665.0,0.0634
664.0,0.0608
663.0,0.0598
662.0,0.0595
661.0,0.0594
660.0,0.0594
659.0,0.0593
658.0,0.0594
657.0,0.06
656.0,0.0609
655.0,0.0615
654.0,0.0615
653.0,0.0612
652.0,0.0608
651.0,0.0607
650.0,0.0608
649.0,0.0611
648.0,0.0615
647.0,0.0617
646.0,0.0619
645.0,0.062
644.0,0.062
643.0,0.0619
642.0,0.0619
641.0,0.0623
640.0,0.063
639.0,0.0638
638.0,0.065
637.0,0.0667
636.0,0.0684
635.0,0.0695
634.0,0.0698
633.0,0.0695
632.0,0.069
631.0,0.0685
630.0,0.068
629.0,0.0674
628.0,0.0665
627.0,0.0652
626.0,0.064
625.0,0.0635
624.0,0.0637
623.0,0.064
622.0,0.0639
621.0,0.0633
620.0,0.0625
619.0,0.0615
618.0,0.0603
617.0,0.0595
616.0,0.0592
615.0,0.0592
614.0,0.0594
613.0,0.0593
612.0,0.0588
611.0,0.0579
610.0,0.0568
609.0,0.0559
608.0,0.0551
607.0,0.0542
606.0,0.053
605.0,0.0518
604.0,0.051
603.0,0.0515
602.0,0.053
601.0,0.0545
600.0,0.0547
