nm,Intensity
526.495,830.3
526.632,829.3
526.768,830.1
526.905,829.9
527.042,829.5
527.179,829.8
527.315,829.5
527.452,830.2
527.589,831.1
527.725,831.0
527.862,830.2
527.999,830.3
528.136,830.1
528.272,828.4
528.409,830.5
528.546,830.0
528.682,829.2
528.819,830.7
528.955,831.1
529.092,829.8
529.229,831.2
529.365,830.5
529.502,829.5
529.639,828.6
529.775,829.8
529.912,828.5
530.048,831.0
530.185,829.8
530.321,829.6
530.458,830.6
530.594,831.2
530.731,829.5
530.867,829.4
531.004,830.3
531.14,830.3
531.277,830.8
531.413,830.4
531.55,831.4
531.686,830.5
531.823,831.5
531.959,832.6
532.096,857.9
532.232,864.5
532.369,840.4
532.505,829.7
532.641,831.2
532.778,831.0
532.914,830.7
533.051,831.8
533.187,830.8
533.323,832.0
533.46,831.2
533.596,848.2
533.732,986.2
533.869,1632.1
534.005,2701.8
534.141,3282.3
534.278,3421.1
534.414,3412.6
534.55,3470.7
534.687,3525.1
534.823,3551.8
534.959,3511.1
535.095,3494.1
535.232,3525.7
535.368,3569.9
535.504,3605.3
535.64,3681.3
535.777,3680.2
535.913,3681.1
536.049,3698.2
536.185,3703.7
536.321,3690.7
536.457,3715.4
536.594,3722.4
536.73,3728.6
536.866,3727.8
537.002,3751.0
537.138,3748.3
537.274,3744.2
537.41,3745.9
537.547,3779.0
537.683,3771.8
537.819,3794.4
537.955,3805.2
538.091,3849.8
538.227,3820.1
538.363,3867.7
538.499,3839.4
538.635,3873.1
538.771,3878.9
538.907,3865.1
539.043,3869.5
539.179,3881.0
539.315,3876.5
539.451,3917.7
539.587,3896.8
539.723,3936.3
539.859,3933.2
539.995,3950.9
540.131,3937.1
540.267,3975.7
540.403,3963.6
540.539,3950.6
540.675,3987.5
540.811,3977.8
540.947,3980.8
541.083,4010.3
541.219,4016.5
541.354,4021.2
541.49,4055.0
541.626,4059.3
541.762,4058.9
541.898,4059.7
542.034,4086.4
542.17,4076.6
542.305,4102.4
542.441,4112.3
542.577,4123.7
542.713,4137.9
542.849,4124.3
542.984,4155.6
543.12,4167.6
543.256,4179.6
543.392,4188.3
543.528,4213.5
543.663,4219.2
543.799,4226.6
543.935,4243.0
544.071,4241.9
544.206,4257.2
544.342,4255.9
544.478,4246.2
544.613,4264.0
544.749,4283.2
544.885,4285.9
545.02,4290.3
545.156,4311.2
545.292,4319.0
545.427,4322.3
545.563,4317.8
545.699,4339.8
545.834,4326.2
545.97,4339.3
546.106,4334.5
546.241,4354.6
546.377,4383.3
546.512,4376.2
546.648,4370.1
546.784,4406.1
546.919,4401.9
547.055,4424.7
547.19,4399.3
547.326,4414.6
547.461,4424.9
547.597,4415.6
547.732,4423.2
547.868,4426.5
548.003,4431.6
548.139,4433.4
548.274,4450.4
548.41,4462.2
548.545,4458.0
548.681,4478.1
548.816,4490.9
548.952,4528.8
549.087,4503.6
549.223,4528.1
549.358,4522.6
549.494,4518.0
549.629,4546.9
549.764,4567.3
549.9,4572.8
550.035,4533.2
550.171,4568.1
550.306,4577.0
550.441,4561.9
550.577,4575.2
550.712,4586.8
550.847,4578.3
550.983,4599.9
551.118,4609.8
551.253,4624.0
551.389,4634.2
551.524,4638.2
551.659,4637.2
551.795,4666.5
551.93,4659.5
552.065,4676.4
552.201,4669.5
552.336,4650.8
552.471,4674.2
552.606,4679.4
552.742,4697.7
552.877,4686.8
553.012,4697.7
553.147,4713.9
553.283,4688.6
553.418,4708.8
553.553,4715.3
553.688,4749.5
553.823,4751.9
553.959,4775.2
554.094,4759.6
554.229,4779.9
554.364,4761.2
554.499,4794.7
554.634,4793.8
554.769,4796.4
554.905,4771.4
555.04,4770.0
555.175,4783.4
555.31,4760.8
555.445,4770.4
555.58,4770.1
555.715,4771.6
555.85,4784.2
555.985,4788.4
556.121,4824.7
556.256,4822.3
556.391,4810.0
556.526,4812.0
556.661,4796.4
556.796,4832.9
556.931,4834.3
557.066,4852.9
557.201,4856.7
557.336,4825.3
557.471,4850.7
557.606,4856.7
557.741,4849.7
557.876,4868.1
558.011,4839.9
558.146,4839.6
558.281,4828.5
558.416,4839.2
558.551,4835.5
558.685,4833.2
558.82,4843.1
558.955,4840.2
559.09,4881.0
559.225,4884.2
559.36,4913.0
559.495,4918.1
559.63,4958.8
559.765,4940.7
559.9,4964.7
560.034,4983.1
560.169,5008.9
560.304,4975.6
560.439,5013.7
560.574,5026.7
560.709,5001.5
560.843,4997.6
560.978,4994.0
561.113,5035.7
561.248,5046.5
561.383,4986.4
561.517,4994.1
561.652,4972.5
561.787,5001.9
561.922,4999.5
562.057,5025.6
562.191,5029.2
562.326,5025.7
562.461,5017.0
562.596,5038.4
562.73,5076.5
562.865,5084.2
563.0,5117.7
563.134,5130.1
563.269,5110.8
563.404,5147.5
563.539,5161.0
563.673,5177.1
563.808,5152.8
563.943,5165.3
564.077,5226.1
564.212,5194.3
564.346,5189.9
564.481,5214.4
564.616,5225.3
564.75,5269.5
564.885,5260.8
565.02,5278.9
565.154,5265.1
565.289,5260.7
565.423,5286.3
565.558,5306.3
565.693,5280.0
565.827,5307.8
565.962,5299.9
566.096,5319.4
566.231,5296.9
566.365,5289.8
566.5,5313.9
566.634,5301.4
566.769,5318.7
566.903,5319.6
567.038,5302.4
567.172,5312.8
567.307,5315.3
567.441,5331.4
567.576,5312.7
567.71,5305.0
567.845,5311.9
567.979,5287.4
568.114,5329.7
568.248,5341.7
568.383,5348.2
568.517,5378.5
568.652,5401.0
568.786,5391.0
568.92,5413.4
569.055,5456.9
569.189,5436.0
569.324,5470.4
569.458,5476.9
569.592,5470.9
569.727,5477.7
569.861,5515.7
569.996,5468.4
570.13,5486.3
570.264,5458.6
570.399,5488.3
570.533,5471.2
570.667,5471.7
570.802,5468.6
570.936,5485.9
571.07,5470.4
571.205,5461.0
571.339,5463.1
571.473,5463.7
571.607,5494.5
571.742,5494.5
571.876,5502.0
572.01,5516.4
572.144,5540.5
572.279,5522.5
572.413,5560.4
572.547,5590.6
572.681,5614.7
572.816,5601.5
572.95,5633.1
573.084,5619.5
573.218,5647.4
573.353,5630.9
573.487,5662.7
573.621,5655.1
573.755,5703.2
573.889,5697.8
574.023,5721.6
574.158,5703.6
574.292,5716.2
574.426,5702.2
574.56,5703.2
574.694,5712.2
574.828,5698.0
574.963,5717.6
575.097,5709.1
575.231,5725.3
575.365,5701.1
575.499,5751.6
575.633,5760.5
575.767,5753.1
575.901,5758.9
576.035,5760.8
576.169,5769.8
576.303,5777.3
576.438,5800.8
576.572,5776.6
576.706,5795.3
576.84,5827.8
576.974,5804.8
577.108,5854.1
577.242,5821.1
577.376,5826.7
577.51,5846.2
577.644,5838.7
577.778,5855.0
577.912,5848.0
578.046,5864.5
578.18,5869.5
578.314,5843.2
578.448,5863.7
578.582,5855.8
578.716,5936.8
578.85,5894.0
578.984,5919.5
579.117,5902.0
579.251,5920.1
579.385,5947.0
579.519,5905.0
579.653,5942.0
579.787,5909.2
579.921,5936.0
580.055,5934.1
580.189,5912.2
580.323,5915.1
580.456,5910.7
580.59,5918.5
580.724,5926.6
580.858,5908.3
580.992,5934.7
581.126,5932.6
581.26,5917.0
581.393,5916.1
581.527,5936.6
581.661,5946.6
581.795,5951.5
581.929,5956.3
582.063,5951.1
582.196,5963.3
582.33,5954.0
582.464,5957.4
582.598,5978.8
582.731,5969.7
582.865,5974.5
582.999,5993.6
583.133,5981.6
583.267,6011.9
583.4,5972.3
583.534,6006.7
583.668,6021.7
583.801,6016.8
583.935,6034.4
584.069,6025.4
584.203,6026.9
584.336,6007.1
584.47,6020.7
584.604,6020.7
584.737,6000.8
584.871,6018.7
585.005,6037.9
585.138,6047.1
585.272,6052.1
585.406,6072.7
585.539,6058.7
585.673,6050.6
585.807,6088.6
585.94,6089.7
586.074,6096.2
586.208,6093.9
586.341,6133.9
586.475,6108.2
586.608,6114.2
586.742,6137.5
586.876,6146.5
587.009,6160.8
587.143,6142.5
587.276,6127.2
587.41,6152.8
587.543,6146.4
587.677,6150.0
587.811,6142.3
587.944,6126.5
588.078,6164.1
588.211,6151.0
588.345,6161.5
588.478,6133.0
588.612,6136.0
588.745,6130.5
588.879,6118.2
589.012,6120.4
589.146,6108.3
589.279,6130.9
589.413,6123.2
589.546,6122.6
589.68,6127.8
589.813,6105.9
589.947,6143.6
590.08,6160.4
590.214,6192.1
590.347,6158.6
590.48,6151.5
590.614,6192.9
590.747,6223.4
590.881,6225.8
591.014,6187.0
591.148,6202.9
591.281,6203.7
591.414,6199.9
591.548,6224.1
591.681,6233.0
591.815,6223.9
591.948,6212.8
592.081,6213.0
592.215,6219.3
592.348,6186.3
592.481,6227.7
592.615,6173.4
592.748,6193.9
592.881,6176.2
593.015,6158.4
593.148,6166.6
593.281,6181.1
593.415,6146.0
593.548,6157.5
593.681,6198.9
593.815,6170.5
593.948,6166.3
594.081,6178.5
594.215,6176.4
594.348,6226.1
594.481,6192.2
594.614,6229.1
594.748,6209.9
594.881,6215.1
595.014,6247.9
595.147,6265.4
595.281,6246.6
595.414,6267.7
595.547,6263.7
595.68,6308.2
595.814,6272.0
595.947,6261.8
596.08,6300.0
596.213,6264.8
596.347,6252.6
596.48,6291.0
596.613,6294.9
596.746,6305.3
596.879,6314.9
597.012,6280.2
597.146,6334.8
597.279,6333.3
597.412,6344.6
597.545,6313.4
597.678,6359.4
597.811,6326.3
597.945,6320.8
598.078,6382.0
598.211,6399.9
598.344,6392.8
598.477,6370.0
598.61,6399.2
598.743,6392.5
598.876,6434.5
599.009,6422.8
599.143,6415.6
599.276,6397.5
599.409,6419.5
599.542,6406.7
599.675,6427.0
599.808,6400.5
599.941,6398.5
600.074,6414.9
600.207,6372.6
600.34,6343.3
600.473,6358.1
600.606,6337.1
600.739,6348.0
600.872,6338.8
601.005,6347.8
601.138,6353.5
601.271,6356.1
601.404,6337.5
601.537,6342.4
601.67,6339.7
601.803,6309.1
601.936,6332.5
602.069,6359.5
602.202,6331.0
602.335,6323.8
602.468,6370.8
602.601,6381.7
602.734,6395.3
602.867,6423.4
603.0,6409.4
603.133,6414.0
603.266,6402.9
603.399,6399.0
603.532,6420.5
603.665,6430.2
603.798,6425.6
603.931,6422.5
604.064,6410.9
604.196,6410.0
604.329,6389.2
604.462,6367.4
604.595,6392.1
604.728,6370.7
604.861,6353.1
604.994,6366.4
605.127,6333.4
605.259,6341.2
605.392,6301.2
605.525,6283.5
605.658,6275.1
605.791,6249.5
605.924,6247.2
606.057,6230.2
606.189,6242.4
606.322,6228.7
606.455,6221.0
606.588,6238.9
606.721,6226.8
606.853,6242.8
606.986,6260.6
607.119,6252.7
607.252,6241.5
607.385,6231.3
607.517,6274.7
607.65,6283.8
607.783,6305.2
607.916,6299.4
608.049,6305.7
608.181,6308.0
608.314,6327.6
608.447,6320.6
608.58,6314.9
608.712,6351.0
608.845,6343.2
608.978,6379.4
609.111,6378.8
609.243,6353.5
609.376,6365.3
609.509,6364.1
609.641,6361.4
609.774,6332.6
609.907,6349.6
610.039,6348.3
610.172,6351.5
610.305,6327.3
610.438,6334.4
610.57,6301.6
610.703,6345.6
610.836,6315.2
610.968,6340.0
611.101,6346.3
611.234,6326.8
611.366,6355.4
611.499,6376.2
611.631,6396.8
611.764,6376.6
611.897,6386.4
612.029,6407.1
612.162,6437.7
612.295,6449.8
612.427,6460.9
612.56,6491.8
612.692,6492.5
612.825,6491.7
612.958,6546.4
613.09,6539.1
613.223,6557.9
613.355,6577.1
613.488,6557.4
613.621,6569.5
613.753,6555.4
613.886,6563.6
614.018,6586.5
614.151,6593.7
614.283,6591.7
614.416,6610.6
614.548,6566.4
614.681,6578.2
614.814,6600.5
614.946,6583.1
615.079,6585.8
615.211,6570.9
615.344,6555.7
615.476,6569.0
615.609,6540.5
615.741,6532.9
615.874,6528.7
616.006,6552.6
616.139,6549.9
616.271,6543.3
616.404,6569.1
616.536,6551.7
616.669,6579.7
616.801,6542.5
616.933,6597.1
617.066,6558.3
617.198,6574.2
617.331,6579.9
617.463,6578.9
617.596,6616.8
617.728,6584.5
617.861,6622.5
617.993,6621.9
618.125,6648.0
618.258,6639.2
618.39,6640.3
618.523,6652.1
618.655,6637.3
618.788,6684.3
618.92,6625.2
619.052,6624.2
619.185,6634.8
619.317,6649.7
619.45,6647.1
619.582,6624.6
619.714,6664.9
619.847,6653.1
619.979,6642.9
620.111,6636.4
620.244,6618.8
620.376,6618.5
620.509,6633.1
620.641,6653.3
620.773,6618.7
620.906,6610.8
621.038,6640.0
621.17,6647.2
621.303,6629.3
621.435,6655.8
621.567,6638.2
621.7,6680.8
621.832,6623.4
621.964,6656.2
622.096,6701.5
622.229,6698.5
622.361,6711.5
622.493,6690.6
622.626,6743.1
622.758,6718.9
622.89,6732.9
623.022,6752.0
623.155,6746.8
623.287,6715.6
623.419,6770.5
623.552,6753.5
623.684,6768.6
623.816,6745.3
623.948,6779.6
624.081,6751.6
624.213,6770.7
624.345,6757.1
624.477,6773.3
624.61,6788.9
624.742,6802.7
624.874,6788.7
625.006,6769.4
625.138,6745.3
625.271,6776.1
625.403,6766.3
625.535,6765.7
625.667,6750.1
625.799,6764.6
625.932,6744.8
626.064,6730.0
626.196,6728.8
626.328,6728.9
626.46,6767.7
626.593,6740.8
626.725,6760.3
626.857,6783.6
626.989,6780.1
627.121,6761.6
627.253,6737.9
627.386,6733.5
627.518,6743.9
627.65,6712.6
627.782,6724.3
627.914,6761.0
628.046,6774.4
628.178,6807.1
628.311,6805.3
628.443,6822.8
628.575,6818.5
628.707,6824.7
628.839,6788.7
628.971,6829.4
629.103,6795.6
629.235,6799.7
629.367,6781.8
629.5,6794.2
629.632,6781.5
629.764,6799.9
629.896,6782.3
630.028,6777.3
630.16,6753.1
630.292,6767.1
630.424,6752.3
630.556,6754.5
630.688,6762.4
630.82,6746.6
630.952,6740.4
631.084,6770.5
631.216,6775.6
631.349,6750.2
631.481,6781.0
631.613,6790.3
631.745,6812.6
631.877,6818.2
632.009,6785.2
632.141,6741.5
632.273,6721.0
632.405,6681.5
632.537,6672.2
632.669,6667.2
632.801,6648.4
632.933,6652.9
633.065,6653.0
633.197,6645.0
633.329,6648.4
633.461,6611.9
633.593,6653.5
633.725,6625.9
633.857,6613.0
633.989,6614.7
634.121,6612.2
634.253,6595.2
634.385,6602.4
634.517,6594.5
634.649,6601.3
634.781,6577.7
634.912,6597.3
635.044,6580.7
635.176,6577.0
635.308,6562.0
635.44,6586.2
635.572,6595.4
635.704,6570.0
635.836,6593.1
635.968,6585.8
636.1,6551.2
636.232,6582.9
636.364,6562.7
636.496,6555.0
636.628,6574.8
636.76,6584.6
636.891,6579.5
637.023,6565.5
637.155,6544.4
637.287,6556.5
637.419,6518.3
637.551,6509.4
637.683,6546.1
637.815,6533.6
637.947,6537.6
638.078,6513.1
638.21,6495.6
638.342,6494.8
638.474,6518.4
638.606,6518.4
638.738,6499.5
638.87,6527.9
639.002,6514.0
639.133,6508.1
639.265,6500.5
639.397,6481.4
639.529,6479.9
639.661,6456.8
639.793,6456.9
639.924,6462.8
640.056,6451.1
640.188,6469.9
640.32,6481.2
640.452,6459.2
640.584,6471.5
640.715,6451.3
640.847,6432.2
640.979,6434.2
641.111,6437.3
641.243,6462.6
641.374,6434.1
641.506,6422.0
641.638,6445.7
641.77,6420.6
641.902,6400.8
642.033,6395.0
642.165,6370.4
642.297,6366.5
642.429,6371.6
642.561,6349.0
642.692,6370.7
642.824,6369.0
642.956,6338.0
643.088,6330.0
643.219,6303.3
643.351,6281.9
643.483,6272.9
643.615,6286.6
643.746,6232.2
643.878,6229.5
644.01,6225.3
644.142,6220.6
644.273,6216.2
644.405,6201.0
644.537,6184.0
644.669,6178.5
644.8,6152.1
644.932,6177.4
645.064,6156.0
645.195,6168.1
645.327,6179.2
645.459,6165.3
645.591,6171.3
645.722,6170.8
645.854,6184.8
645.986,6118.0
646.117,6168.2
646.249,6134.7
646.381,6112.5
646.512,6168.7
646.644,6137.0
646.776,6151.3
646.908,6115.9
647.039,6141.4
647.171,6155.9
647.303,6152.7
647.434,6133.2
647.566,6136.1
647.698,6117.9
647.829,6097.1
647.961,6129.1
648.093,6103.8
648.224,6071.4
648.356,6076.0
648.488,6053.6
648.619,6064.2
648.751,6060.7
648.883,6033.3
649.014,6014.7
649.146,6021.9
649.277,6009.7
649.409,6006.1
649.541,6009.9
649.672,5984.3
649.804,5977.2
649.936,5985.3
650.067,5952.4
650.199,5970.1
650.33,5989.2
650.462,5979.0
650.594,5968.4
650.725,5902.0
650.857,5929.8
650.988,5940.4
651.12,5945.4
651.252,5941.9
651.383,5948.1
651.515,5958.6
651.646,5960.7
651.778,5916.7
651.91,5978.7
652.041,5953.7
652.173,5977.8
652.304,5967.4
652.436,5955.6
652.568,5950.3
652.699,5968.2
652.831,5965.2
652.962,5941.2
653.094,5980.5
653.225,5950.1
653.357,5932.4
653.489,5925.1
653.62,5969.5
653.752,5979.8
653.883,5962.9
654.015,5957.6
654.146,5951.4
654.278,5960.8
654.409,5928.5
654.541,5927.8
654.672,5906.7
654.804,5941.8
654.935,5912.1
655.067,5922.6
655.199,5913.8
655.33,5931.6
655.462,5930.0
655.593,5921.5
655.725,5898.2
655.856,5923.1
655.988,5902.0
656.119,5903.9
656.251,5880.5
656.382,5915.7
656.514,5883.1
656.645,5912.2
656.777,5876.7
656.908,5918.3
657.04,5906.3
657.171,5892.0
657.303,5908.7
657.434,5913.9
657.566,5911.9
657.697,5904.5
657.829,5890.1
657.96,5906.0
658.092,5936.5
658.223,5924.3
658.355,5909.0
658.486,5912.8
658.617,5924.9
658.749,5916.9
658.88,5936.8
659.012,5917.1
659.143,5922.6
659.275,5951.4
659.406,5949.8
659.538,5915.7
659.669,5883.1
659.801,5907.1
659.932,5935.8
660.064,5918.7
660.195,5930.7
660.326,5875.5
660.458,5878.3
660.589,5904.8
660.721,5909.5
660.852,5860.4
660.984,5859.9
661.115,5867.1
661.246,5862.1
661.378,5863.2
661.509,5846.8
661.641,5825.7
661.772,5862.6
661.904,5857.0
662.035,5834.2
662.166,5801.3
662.298,5820.4
662.429,5824.7
662.561,5825.3
662.692,5845.3
662.823,5816.6
662.955,5828.7
663.086,5815.4
