cm-1,A
4000.0,0.0013
3999.0,0.0012
3998.0,0.0012
3997.0,0.0011
3996.0,0.0012
3995.0,0.0012
3994.0,0.0013
3993.0,0.0013
3992.0,0.0012
3991.0,0.0012
3990.0,0.0012
3989.0,0.0012
3988.0,0.0013
3987.0,0.0014
3986.0,0.0015
3985.0,0.0016
3984.0,0.0016
3983.0,0.0015
3982.0,0.0015
3981.0,0.0014
3980.0,0.0014
3979.0,0.0014
3978.0,0.0014
3977.0,0.0014
3976.0,0.0013
3975.0,0.0013
3974.0,0.0013
3973.0,0.0014
3972.0,0.0014
3971.0,0.0015
3970.0,0.0015
3969.0,0.0014
3968.0,0.0014
3967.0,0.0014
3966.0,0.0014
3965.0,0.0014
3964.0,0.0014
3963.0,0.0015
3962.0,0.0015
3961.0,0.0016
3960.0,0.0016
3959.0,0.0016
3958.0,0.0015
3957.0,0.0015
3956.0,0.0014
3955.0,0.0013
3954.0,0.0014
3953.0,0.0015
3952.0,0.0015
3951.0,0.0016
3950.0,0.0016
3949.0,0.0016
3948.0,0.0015
3947.0,0.0015
3946.0,0.0015
3945.0,0.0015
3944.0,0.0016
3943.0,0.0017
3942.0,0.0017
3941.0,0.0017
3940.0,0.0017
3939.0,0.0016
3938.0,0.0015
3937.0,0.0014
3936.0,0.0014
3935.0,0.0014
3934.0,0.0015
3933.0,0.0015
3932.0,0.0016
3931.0,0.0016
3930.0,0.0017
3929.0,0.0017
3928.0,0.0017
3927.0,0.0017
3926.0,0.0018
3925.0,0.0018
3924.0,0.0018
3923.0,0.0018
3922.0,0.0018
3921.0,0.0017
3920.0,0.0016
3919.0,0.0015
3918.0,0.0015
3917.0,0.0015
3916.0,0.0015
3915.0,0.0015
3914.0,0.0016
3913.0,0.0016
3912.0,0.0015
3911.0,0.0016
3910.0,0.0016
3909.0,0.0017
3908.0,0.0018
3907.0,0.0019
3906.0,0.0018
3905.0,0.0017
3904.0,0.0016
3903.0,0.0015
3902.0,0.0016
3901.0,0.0016
3900.0,0.0017
3899.0,0.0017
3898.0,0.0016
3897.0,0.0016
3896.0,0.0016
3895.0,0.0015
3894.0,0.0015
3893.0,0.0015
3892.0,0.0015
3891.0,0.0015
3890.0,0.0015
3889.0,0.0016
3888.0,0.0017
3887.0,0.0018
3886.0,0.0017
3885.0,0.0017
3884.0,0.0019
3883.0,0.0021
3882.0,0.0023
3881.0,0.0023
3880.0,0.0022
3879.0,0.002
3878.0,0.002
3877.0,0.0021
3876.0,0.0023
3875.0,0.0023
3874.0,0.0022
3873.0,0.0021
3872.0,0.002
3871.0,0.002
3870.0,0.0019
3869.0,0.0018
3868.0,0.0018
3867.0,0.0019
3866.0,0.0019
3865.0,0.0019
3864.0,0.0019
3863.0,0.002
3862.0,0.002
3861.0,0.002
3860.0,0.0019
3859.0,0.0019
3858.0,0.0017
3857.0,0.0017
3856.0,0.0018
3855.0,0.002
3854.0,0.002
3853.0,0.0019
3852.0,0.0018
3851.0,0.0018
3850.0,0.0019
3849.0,0.0018
3848.0,0.0018
3847.0,0.0019
3846.0,0.0019
3845.0,0.0021
3844.0,0.0022
3843.0,0.0023
3842.0,0.0024
3841.0,0.0024
3840.0,0.0023
3839.0,0.0023
3838.0,0.0022
3837.0,0.0022
3836.0,0.0021
3835.0,0.002
3834.0,0.002
3833.0,0.002
3832.0,0.002
3831.0,0.002
3830.0,0.0021
3829.0,0.0021
3828.0,0.0021
3827.0,0.0021
3826.0,0.002
3825.0,0.002
3824.0,0.0021
3823.0,0.0023
3822.0,0.0023
3821.0,0.0022
3820.0,0.002
3819.0,0.0019
3818.0,0.0019
3817.0,0.0019
3816.0,0.0019
3815.0,0.0019
3814.0,0.0019
3813.0,0.0019
3812.0,0.0019
3811.0,0.0018
3810.0,0.0018
3809.0,0.0019
3808.0,0.002
3807.0,0.002
3806.0,0.0021
3805.0,0.0022
3804.0,0.0025
3803.0,0.0026
3802.0,0.0025
3801.0,0.0024
3800.0,0.0023
3799.0,0.0022
3798.0,0.0022
3797.0,0.002
3796.0,0.0019
3795.0,0.0019
3794.0,0.0019
3793.0,0.0019
3792.0,0.0019
3791.0,0.0018
3790.0,0.0018
3789.0,0.0018
3788.0,0.0019
3787.0,0.002
3786.0,0.0021
3785.0,0.0022
3784.0,0.0022
3783.0,0.0023
3782.0,0.0024
3781.0,0.0025
3780.0,0.0024
3779.0,0.0022
3778.0,0.0021
3777.0,0.002
3776.0,0.0019
3775.0,0.0018
3774.0,0.0018
3773.0,0.0018
3772.0,0.0017
3771.0,0.0017
3770.0,0.0016
3769.0,0.0017
3768.0,0.0018
3767.0,0.0019
3766.0,0.002
3765.0,0.002
3764.0,0.0021
3763.0,0.0022
3762.0,0.0023
3761.0,0.0023
3760.0,0.0023
3759.0,0.0023
3758.0,0.0022
3757.0,0.0021
3756.0,0.0019
3755.0,0.0018
3754.0,0.0017
3753.0,0.0015
3752.0,0.0013
3751.0,0.0013
3750.0,0.0014
3749.0,0.0014
3748.0,0.0015
3747.0,0.0016
3746.0,0.0017
3745.0,0.0018
3744.0,0.0017
3743.0,0.0016
3742.0,0.0017
3741.0,0.0017
3740.0,0.0016
3739.0,0.0016
3738.0,0.0016
3737.0,0.0015
3736.0,0.0013
3735.0,0.0011
3734.0,0.001
3733.0,0.0009
3732.0,0.0008
3731.0,0.0007
3730.0,0.0007
3729.0,0.0007
3728.0,0.0006
3727.0,0.0006
3726.0,0.0006
3725.0,0.0009
3724.0,0.0011
3723.0,0.0012
3722.0,0.0012
3721.0,0.0012
3720.0,0.0013
3719.0,0.0014
3718.0,0.0015
3717.0,0.0014
3716.0,0.0014
3715.0,0.0014
3714.0,0.0015
3713.0,0.0013
3712.0,0.0011
3711.0,0.001
3710.0,0.001
3709.0,0.001
3708.0,0.0009
3707.0,0.0009
3706.0,0.0009
3705.0,0.001
3704.0,0.0012
3703.0,0.0014
3702.0,0.0016
3701.0,0.0016
3700.0,0.0015
3699.0,0.0014
3698.0,0.0013
3697.0,0.0013
3696.0,0.0013
3695.0,0.0014
3694.0,0.0015
3693.0,0.0016
3692.0,0.0017
3691.0,0.0018
3690.0,0.0018
3689.0,0.0018
3688.0,0.0017
3687.0,0.0016
3686.0,0.0016
3685.0,0.0016
3684.0,0.0017
3683.0,0.0018
3682.0,0.0019
3681.0,0.0021
3680.0,0.0021
3679.0,0.0021
3678.0,0.0023
3677.0,0.0025
3676.0,0.0026
3675.0,0.0026
3674.0,0.0025
3673.0,0.0024
3672.0,0.0023
3671.0,0.0022
3670.0,0.0021
3669.0,0.0021
3668.0,0.0021
3667.0,0.002
3666.0,0.002
3665.0,0.0021
3664.0,0.0021
3663.0,0.0021
3662.0,0.0021
3661.0,0.0021
3660.0,0.0021
3659.0,0.002
3658.0,0.002
3657.0,0.002
3656.0,0.0021
3655.0,0.0022
3654.0,0.0024
3653.0,0.0026
3652.0,0.0028
3651.0,0.0027
3650.0,0.0027
3649.0,0.0029
3648.0,0.003
3647.0,0.0029
3646.0,0.0027
3645.0,0.0025
3644.0,0.0024
3643.0,0.0023
3642.0,0.0023
3641.0,0.0023
3640.0,0.0023
3639.0,0.0023
3638.0,0.0024
3637.0,0.0024
3636.0,0.0025
3635.0,0.0024
3634.0,0.0023
3633.0,0.0021
3632.0,0.002
3631.0,0.0019
3630.0,0.0018
3629.0,0.0017
3628.0,0.0018
3627.0,0.0019
3626.0,0.002
3625.0,0.0021
3624.0,0.0022
3623.0,0.0023
3622.0,0.0025
3621.0,0.0027
3620.0,0.0029
3619.0,0.0031
3618.0,0.0033
3617.0,0.0034
3616.0,0.0035
3615.0,0.0035
3614.0,0.0032
3613.0,0.0028
3612.0,0.0025
3611.0,0.0023
3610.0,0.0022
3609.0,0.0023
3608.0,0.0024
3607.0,0.0026
3606.0,0.0028
3605.0,0.003
3604.0,0.0031
3603.0,0.0031
3602.0,0.0031
3601.0,0.003
3600.0,0.003
3599.0,0.0031
3598.0,0.0031
3597.0,0.0031
3596.0,0.0031
3595.0,0.0032
3594.0,0.0033
3593.0,0.0035
3592.0,0.0036
3591.0,0.0037
3590.0,0.0038
3589.0,0.0039
3588.0,0.004
3587.0,0.004
3586.0,0.004
3585.0,0.004
3584.0,0.004
3583.0,0.0039
3582.0,0.004
3581.0,0.0041
3580.0,0.0042
3579.0,0.0043
3578.0,0.0043
3577.0,0.0043
3576.0,0.0043
3575.0,0.0044
3574.0,0.0044
3573.0,0.0045
3572.0,0.0045
3571.0,0.0046
3570.0,0.0047
3569.0,0.0048
3568.0,0.0049
3567.0,0.005
3566.0,0.0051
3565.0,0.0052
3564.0,0.0052
3563.0,0.0052
3562.0,0.0053
3561.0,0.0053
3560.0,0.0052
3559.0,0.0052
3558.0,0.0052
3557.0,0.0052
3556.0,0.0053
3555.0,0.0054
3554.0,0.0056
3553.0,0.0057
3552.0,0.0059
3551.0,0.0059
3550.0,0.0058
3549.0,0.0058
3548.0,0.0057
3547.0,0.0058
3546.0,0.0058
3545.0,0.0059
3544.0,0.006
3543.0,0.0061
3542.0,0.0062
3541.0,0.0062
3540.0,0.0063
3539.0,0.0063
3538.0,0.0062
3537.0,0.0062
3536.0,0.0061
3535.0,0.0061
3534.0,0.0061
3533.0,0.0062
3532.0,0.0064
3531.0,0.0065
3530.0,0.0066
3529.0,0.0067
3528.0,0.0067
3527.0,0.0067
3526.0,0.0067
3525.0,0.0067
3524.0,0.0066
3523.0,0.0067
3522.0,0.0067
3521.0,0.0067
3520.0,0.0067
3519.0,0.0067
3518.0,0.0066
3517.0,0.0066
3516.0,0.0066
3515.0,0.0066
3514.0,0.0067
3513.0,0.0068
3512.0,0.0069
3511.0,0.0069
3510.0,0.0069
3509.0,0.0069
3508.0,0.0068
3507.0,0.0068
3506.0,0.0068
3505.0,0.0067
3504.0,0.0067
3503.0,0.0067
3502.0,0.0067
3501.0,0.0067
3500.0,0.0067
3499.0,0.0067
3498.0,0.0066
3497.0,0.0066
3496.0,0.0065
3495.0,0.0065
3494.0,0.0066
3493.0,0.0067
3492.0,0.0067
3491.0,0.0067
3490.0,0.0066
3489.0,0.0066
3488.0,0.0066
3487.0,0.0067
3486.0,0.0068
3485.0,0.0069
3484.0,0.0069
3483.0,0.0069
3482.0,0.0068
3481.0,0.0068
3480.0,0.0068
3479.0,0.0068
3478.0,0.0069
3477.0,0.0069
3476.0,0.007
3475.0,0.007
3474.0,0.007
3473.0,0.0069
3472.0,0.0069
3471.0,0.0068
3470.0,0.0067
3469.0,0.0067
3468.0,0.0067
3467.0,0.0067
3466.0,0.0067
3465.0,0.0068
3464.0,0.0068
3463.0,0.0068
3462.0,0.0068
3461.0,0.0069
3460.0,0.0069
3459.0,0.007
3458.0,0.0069
3457.0,0.0069
3456.0,0.0069
3455.0,0.0069
3454.0,0.0069
3453.0,0.0069
3452.0,0.007
3451.0,0.007
3450.0,0.0071
3449.0,0.0072
3448.0,0.0073
3447.0,0.0074
3446.0,0.0074
3445.0,0.0073
3444.0,0.0073
3443.0,0.0072
3442.0,0.0072
3441.0,0.0072
3440.0,0.0072
3439.0,0.0072
3438.0,0.0073
3437.0,0.0073
3436.0,0.0074
3435.0,0.0075
3434.0,0.0076
3433.0,0.0077
3432.0,0.0078
3431.0,0.0079
3430.0,0.0079
3429.0,0.0079
3428.0,0.0079
3427.0,0.0078
3426.0,0.0079
3425.0,0.0079
3424.0,0.008
3423.0,0.0081
3422.0,0.0082
3421.0,0.0083
3420.0,0.0083
3419.0,0.0083
3418.0,0.0083
3417.0,0.0084
3416.0,0.0084
3415.0,0.0084
3414.0,0.0083
3413.0,0.0083
3412.0,0.0082
3411.0,0.0083
3410.0,0.0084
3409.0,0.0085
3408.0,0.0086
3407.0,0.0087
3406.0,0.0088
3405.0,0.0088
3404.0,0.0089
3403.0,0.0088
3402.0,0.0088
3401.0,0.0088
3400.0,0.0087
3399.0,0.0087
3398.0,0.0087
3397.0,0.0087
3396.0,0.0086
3395.0,0.0086
3394.0,0.0086
3393.0,0.0086
3392.0,0.0086
3391.0,0.0085
3390.0,0.0084
3389.0,0.0083
3388.0,0.0082
3387.0,0.0083
3386.0,0.0083
3385.0,0.0083
3384.0,0.0083
3383.0,0.0082
3382.0,0.0081
3381.0,0.008
3380.0,0.008
3379.0,0.008
3378.0,0.0079
3377.0,0.0079
3376.0,0.0078
3375.0,0.0078
3374.0,0.0078
3373.0,0.0077
3372.0,0.0077
3371.0,0.0077
3370.0,0.0077
3369.0,0.0077
3368.0,0.0077
3367.0,0.0077
3366.0,0.0077
3365.0,0.0077
3364.0,0.0076
3363.0,0.0076
3362.0,0.0075
3361.0,0.0075
3360.0,0.0074
3359.0,0.0073
3358.0,0.0073
3357.0,0.0072
3356.0,0.0072
3355.0,0.0072
3354.0,0.0072
3353.0,0.0072
3352.0,0.0071
3351.0,0.007
3350.0,0.0069
3349.0,0.0069
3348.0,0.007
3347.0,0.0072
3346.0,0.0073
3345.0,0.0074
3344.0,0.0074
3343.0,0.0074
3342.0,0.0073
3341.0,0.0071
3340.0,0.0071
3339.0,0.0071
3338.0,0.0072
3337.0,0.0072
3336.0,0.0073
3335.0,0.0073
3334.0,0.0072
3333.0,0.0072
3332.0,0.0071
3331.0,0.0072
3330.0,0.0072
3329.0,0.0071
3328.0,0.007
3327.0,0.0069
3326.0,0.0069
3325.0,0.007
3324.0,0.007
3323.0,0.007
3322.0,0.007
3321.0,0.007
3320.0,0.007
3319.0,0.007
3318.0,0.007
3317.0,0.007
3316.0,0.007
3315.0,0.007
3314.0,0.0069
3313.0,0.0069
3312.0,0.0068
3311.0,0.0068
3310.0,0.0067
3309.0,0.0067
3308.0,0.0067
3307.0,0.0067
3306.0,0.0068
3305.0,0.0069
3304.0,0.0071
3303.0,0.0071
3302.0,0.007
3301.0,0.0069
3300.0,0.0068
3299.0,0.0068
3298.0,0.0067
3297.0,0.0067
3296.0,0.0065
3295.0,0.0065
3294.0,0.0064
3293.0,0.0065
3292.0,0.0066
3291.0,0.0067
3290.0,0.0068
3289.0,0.0068
3288.0,0.0067
3287.0,0.0066
3286.0,0.0064
3285.0,0.0063
3284.0,0.0063
3283.0,0.0063
3282.0,0.0064
3281.0,0.0065
3280.0,0.0067
3279.0,0.0068
3278.0,0.0068
3277.0,0.0066
3276.0,0.0065
3275.0,0.0064
3274.0,0.0064
3273.0,0.0064
3272.0,0.0064
3271.0,0.0064
3270.0,0.0063
3269.0,0.0063
3268.0,0.0063
3267.0,0.0064
3266.0,0.0064
3265.0,0.0064
3264.0,0.0064
3263.0,0.0064
3262.0,0.0063
3261.0,0.0063
3260.0,0.0063
3259.0,0.0064
3258.0,0.0065
3257.0,0.0065
3256.0,0.0065
3255.0,0.0065
3254.0,0.0064
3253.0,0.0064
3252.0,0.0063
3251.0,0.0064
3250.0,0.0064
3249.0,0.0064
3248.0,0.0063
3247.0,0.0062
3246.0,0.0061
3245.0,0.0062
3244.0,0.0063
3243.0,0.0065
3242.0,0.0066
3241.0,0.0067
3240.0,0.0067
3239.0,0.0066
3238.0,0.0065
3237.0,0.0064
3236.0,0.0063
3235.0,0.0062
3234.0,0.0062
3233.0,0.0062
3232.0,0.0061
3231.0,0.0062
3230.0,0.0062
3229.0,0.0062
3228.0,0.0062
3227.0,0.0062
3226.0,0.0061
3225.0,0.0062
3224.0,0.0061
3223.0,0.006
3222.0,0.0059
3221.0,0.0058
3220.0,0.0058
3219.0,0.006
3218.0,0.0061
3217.0,0.0063
3216.0,0.0063
3215.0,0.0063
3214.0,0.0062
3213.0,0.0061
3212.0,0.006
3211.0,0.006
3210.0,0.0059
3209.0,0.0059
3208.0,0.006
3207.0,0.006
3206.0,0.006
3205.0,0.0059
3204.0,0.0058
3203.0,0.0057
3202.0,0.0057
3201.0,0.0057
3200.0,0.0057
3199.0,0.0057
3198.0,0.0057
3197.0,0.0057
3196.0,0.0057
3195.0,0.0058
3194.0,0.0058
3193.0,0.0059
3192.0,0.006
3191.0,0.006
3190.0,0.006
3189.0,0.006
3188.0,0.0059
3187.0,0.0058
3186.0,0.0057
3185.0,0.0057
3184.0,0.0056
3183.0,0.0056
3182.0,0.0056
3181.0,0.0056
3180.0,0.0057
3179.0,0.0058
3178.0,0.0059
3177.0,0.006
3176.0,0.006
3175.0,0.0059
3174.0,0.0059
3173.0,0.0058
3172.0,0.0057
3171.0,0.0056
3170.0,0.0056
3169.0,0.0055
3168.0,0.0055
3167.0,0.0055
3166.0,0.0055
3165.0,0.0055
3164.0,0.0056
3163.0,0.0056
3162.0,0.0057
3161.0,0.0057
3160.0,0.0058
3159.0,0.0057
3158.0,0.0057
3157.0,0.0056
3156.0,0.0055
3155.0,0.0055
3154.0,0.0055
3153.0,0.0055
3152.0,0.0055
3151.0,0.0054
3150.0,0.0054
3149.0,0.0055
3148.0,0.0055
3147.0,0.0055
3146.0,0.0055
3145.0,0.0056
3144.0,0.0056
3143.0,0.0056
3142.0,0.0055
3141.0,0.0054
3140.0,0.0053
3139.0,0.0053
3138.0,0.0053
3137.0,0.0053
3136.0,0.0054
3135.0,0.0054
3134.0,0.0055
3133.0,0.0055
3132.0,0.0055
3131.0,0.0054
3130.0,0.0054
3129.0,0.0054
3128.0,0.0054
3127.0,0.0054
3126.0,0.0055
3125.0,0.0055
3124.0,0.0055
3123.0,0.0054
3122.0,0.0053
3121.0,0.0053
3120.0,0.0053
3119.0,0.0054
3118.0,0.0054
3117.0,0.0055
3116.0,0.0055
3115.0,0.0056
3114.0,0.0056
3113.0,0.0056
3112.0,0.0056
3111.0,0.0055
3110.0,0.0054
3109.0,0.0054
3108.0,0.0054
3107.0,0.0054
3106.0,0.0054
3105.0,0.0054
3104.0,0.0054
3103.0,0.0054
3102.0,0.0054
3101.0,0.0054
3100.0,0.0054
3099.0,0.0054
3098.0,0.0055
3097.0,0.0055
3096.0,0.0056
3095.0,0.0056
3094.0,0.0055
3093.0,0.0055
3092.0,0.0055
3091.0,0.0055
3090.0,0.0055
3089.0,0.0055
3088.0,0.0055
3087.0,0.0056
3086.0,0.0057
3085.0,0.0057
3084.0,0.0057
3083.0,0.0057
3082.0,0.0056
3081.0,0.0055
3080.0,0.0055
3079.0,0.0055
3078.0,0.0055
3077.0,0.0055
3076.0,0.0054
3075.0,0.0054
3074.0,0.0054
3073.0,0.0054
3072.0,0.0055
3071.0,0.0055
3070.0,0.0056
3069.0,0.0056
3068.0,0.0055
3067.0,0.0055
3066.0,0.0054
3065.0,0.0054
3064.0,0.0054
3063.0,0.0055
3062.0,0.0055
3061.0,0.0054
3060.0,0.0054
3059.0,0.0055
3058.0,0.0055
3057.0,0.0056
3056.0,0.0056
3055.0,0.0055
3054.0,0.0055
3053.0,0.0055
3052.0,0.0055
3051.0,0.0055
3050.0,0.0055
3049.0,0.0055
3048.0,0.0055
3047.0,0.0054
3046.0,0.0053
3045.0,0.0053
3044.0,0.0053
3043.0,0.0053
3042.0,0.0052
3041.0,0.0052
3040.0,0.0051
3039.0,0.005
3038.0,0.0049
3037.0,0.0049
3036.0,0.005
3035.0,0.0051
3034.0,0.0051
3033.0,0.0052
3032.0,0.0051
3031.0,0.0051
3030.0,0.0051
3029.0,0.0051
3028.0,0.0051
3027.0,0.0051
3026.0,0.0051
3025.0,0.0052
3024.0,0.0052
3023.0,0.0052
3022.0,0.0052
3021.0,0.0053
3020.0,0.0054
3019.0,0.0054
3018.0,0.0054
3017.0,0.0054
3016.0,0.0053
3015.0,0.0052
3014.0,0.0052
3013.0,0.0053
3012.0,0.0053
3011.0,0.0053
3010.0,0.0053
3009.0,0.0053
3008.0,0.0053
3007.0,0.0053
3006.0,0.0053
3005.0,0.0053
3004.0,0.0054
3003.0,0.0054
3002.0,0.0054
3001.0,0.0055
3000.0,0.0055
2999.0,0.0056
2998.0,0.0056
2997.0,0.0056
2996.0,0.0055
2995.0,0.0055
2994.0,0.0055
2993.0,0.0055
2992.0,0.0056
2991.0,0.0057
2990.0,0.0057
2989.0,0.0058
2988.0,0.0058
2987.0,0.0058
2986.0,0.0058
2985.0,0.0058
2984.0,0.0058
2983.0,0.0059
2982.0,0.006
2981.0,0.0062
2980.0,0.0062
2979.0,0.0063
2978.0,0.0063
2977.0,0.0064
2976.0,0.0066
2975.0,0.0068
2974.0,0.0069
2973.0,0.007
2972.0,0.007
2971.0,0.007
2970.0,0.007
2969.0,0.007
2968.0,0.007
2967.0,0.007
2966.0,0.0071
2965.0,0.0073
2964.0,0.0074
2963.0,0.0074
2962.0,0.0074
2961.0,0.0074
2960.0,0.0074
2959.0,0.0075
2958.0,0.0075
2957.0,0.0074
2956.0,0.0073
2955.0,0.0073
2954.0,0.0072
2953.0,0.0072
2952.0,0.0072
2951.0,0.0071
2950.0,0.0071
2949.0,0.007
2948.0,0.007
2947.0,0.0069
2946.0,0.0069
2945.0,0.0068
2944.0,0.0068
2943.0,0.0067
2942.0,0.0067
2941.0,0.0067
2940.0,0.0066
2939.0,0.0065
2938.0,0.0065
2937.0,0.0064
2936.0,0.0064
2935.0,0.0063
2934.0,0.0063
2933.0,0.0063
2932.0,0.0063
2931.0,0.0062
2930.0,0.0062
2929.0,0.0061
2928.0,0.0061
2927.0,0.0061
2926.0,0.0061
2925.0,0.0061
2924.0,0.0061
2923.0,0.0062
2922.0,0.0062
2921.0,0.0061
2920.0,0.0061
2919.0,0.006
2918.0,0.006
2917.0,0.0061
2916.0,0.0061
2915.0,0.0062
2914.0,0.0062
2913.0,0.0062
2912.0,0.0063
2911.0,0.0064
2910.0,0.0066
2909.0,0.0067
2908.0,0.0067
2907.0,0.0067
2906.0,0.0067
2905.0,0.0067
2904.0,0.0066
2903.0,0.0066
2902.0,0.0065
2901.0,0.0065
2900.0,0.0064
2899.0,0.0064
2898.0,0.0064
2897.0,0.0063
2896.0,0.0063
2895.0,0.0063
2894.0,0.0062
2893.0,0.0062
2892.0,0.0062
2891.0,0.0062
2890.0,0.0062
2889.0,0.0062
2888.0,0.0062
2887.0,0.0062
2886.0,0.0062
2885.0,0.0062
2884.0,0.0062
2883.0,0.0062
2882.0,0.0062
2881.0,0.0062
2880.0,0.0062
2879.0,0.0062
2878.0,0.0062
2877.0,0.0062
2876.0,0.0062
2875.0,0.0061
2874.0,0.0061
2873.0,0.0061
2872.0,0.0061
2871.0,0.0061
2870.0,0.0061
2869.0,0.0061
2868.0,0.0061
2867.0,0.0061
2866.0,0.0061
2865.0,0.0061
2864.0,0.0062
2863.0,0.0063
2862.0,0.0063
2861.0,0.0063
2860.0,0.0063
2859.0,0.0063
2858.0,0.0062
2857.0,0.0061
2856.0,0.0061
2855.0,0.0062
2854.0,0.0062
2853.0,0.0063
2852.0,0.0063
2851.0,0.0063
2850.0,0.0062
2849.0,0.0061
2848.0,0.006
2847.0,0.006
2846.0,0.006
2845.0,0.006
2844.0,0.006
2843.0,0.0059
2842.0,0.0059
2841.0,0.0058
2840.0,0.0058
2839.0,0.0058
2838.0,0.0058
2837.0,0.0057
2836.0,0.0057
2835.0,0.0058
2834.0,0.0058
2833.0,0.0058
2832.0,0.0058
2831.0,0.0057
2830.0,0.0057
2829.0,0.0057
2828.0,0.0057
2827.0,0.0057
2826.0,0.0058
2825.0,0.0058
2824.0,0.0059
2823.0,0.0058
2822.0,0.0058
2821.0,0.0057
2820.0,0.0056
2819.0,0.0056
2818.0,0.0056
2817.0,0.0056
2816.0,0.0057
2815.0,0.0057
2814.0,0.0057
2813.0,0.0056
2812.0,0.0056
2811.0,0.0056
2810.0,0.0057
2809.0,0.0057
2808.0,0.0058
2807.0,0.0058
2806.0,0.0058
2805.0,0.0057
2804.0,0.0057
2803.0,0.0057
2802.0,0.0057
2801.0,0.0057
2800.0,0.0057
2799.0,0.0057
2798.0,0.0057
2797.0,0.0057
2796.0,0.0057
2795.0,0.0057
2794.0,0.0057
2793.0,0.0057
2792.0,0.0057
2791.0,0.0056
2790.0,0.0055
2789.0,0.0056
2788.0,0.0056
2787.0,0.0057
2786.0,0.0057
2785.0,0.0057
2784.0,0.0056
2783.0,0.0056
2782.0,0.0056
2781.0,0.0056
2780.0,0.0056
2779.0,0.0056
2778.0,0.0056
2777.0,0.0056
2776.0,0.0056
2775.0,0.0056
2774.0,0.0056
2773.0,0.0056
2772.0,0.0056
2771.0,0.0056
2770.0,0.0056
2769.0,0.0056
2768.0,0.0056
2767.0,0.0056
2766.0,0.0056
2765.0,0.0056
2764.0,0.0056
2763.0,0.0056
2762.0,0.0056
2761.0,0.0056
2760.0,0.0056
2759.0,0.0056
2758.0,0.0056
2757.0,0.0057
2756.0,0.0057
2755.0,0.0057
2754.0,0.0057
2753.0,0.0056
2752.0,0.0056
2751.0,0.0055
2750.0,0.0055
2749.0,0.0054
2748.0,0.0054
2747.0,0.0055
2746.0,0.0055
2745.0,0.0056
2744.0,0.0056
2743.0,0.0056
2742.0,0.0056
2741.0,0.0056
2740.0,0.0056
2739.0,0.0056
2738.0,0.0056
2737.0,0.0055
2736.0,0.0055
2735.0,0.0055
2734.0,0.0055
2733.0,0.0055
2732.0,0.0056
2731.0,0.0056
2730.0,0.0056
2729.0,0.0056
2728.0,0.0056
2727.0,0.0056
2726.0,0.0056
2725.0,0.0055
2724.0,0.0055
2723.0,0.0054
2722.0,0.0055
2721.0,0.0055
2720.0,0.0056
2719.0,0.0056
2718.0,0.0057
2717.0,0.0056
2716.0,0.0056
2715.0,0.0055
2714.0,0.0055
2713.0,0.0055
2712.0,0.0055
2711.0,0.0055
2710.0,0.0055
2709.0,0.0055
2708.0,0.0056
2707.0,0.0056
2706.0,0.0056
2705.0,0.0055
2704.0,0.0055
2703.0,0.0055
2702.0,0.0055
2701.0,0.0055
2700.0,0.0055
2699.0,0.0054
2698.0,0.0054
2697.0,0.0054
2696.0,0.0054
2695.0,0.0054
2694.0,0.0054
2693.0,0.0055
2692.0,0.0055
2691.0,0.0056
2690.0,0.0056
2689.0,0.0056
2688.0,0.0056
2687.0,0.0056
2686.0,0.0056
2685.0,0.0056
2684.0,0.0056
2683.0,0.0055
2682.0,0.0056
2681.0,0.0056
2680.0,0.0056
2679.0,0.0056
2678.0,0.0056
2677.0,0.0056
2676.0,0.0056
2675.0,0.0056
2674.0,0.0056
2673.0,0.0056
2672.0,0.0055
2671.0,0.0055
2670.0,0.0055
2669.0,0.0055
2668.0,0.0055
2667.0,0.0055
2666.0,0.0054
2665.0,0.0054
2664.0,0.0055
2663.0,0.0055
2662.0,0.0056
2661.0,0.0056
2660.0,0.0055
2659.0,0.0054
2658.0,0.0054
2657.0,0.0054
2656.0,0.0054
2655.0,0.0055
2654.0,0.0055
2653.0,0.0055
2652.0,0.0055
2651.0,0.0055
2650.0,0.0054
2649.0,0.0054
2648.0,0.0054
2647.0,0.0054
2646.0,0.0053
2645.0,0.0053
2644.0,0.0053
2643.0,0.0053
2642.0,0.0053
2641.0,0.0053
2640.0,0.0053
2639.0,0.0053
2638.0,0.0053
2637.0,0.0053
2636.0,0.0053
2635.0,0.0053
2634.0,0.0052
2633.0,0.0053
2632.0,0.0053
2631.0,0.0053
2630.0,0.0054
2629.0,0.0054
2628.0,0.0054
2627.0,0.0054
2626.0,0.0054
2625.0,0.0054
2624.0,0.0054
2623.0,0.0055
2622.0,0.0055
2621.0,0.0055
2620.0,0.0055
2619.0,0.0054
2618.0,0.0054
2617.0,0.0054
2616.0,0.0054
2615.0,0.0054
2614.0,0.0054
2613.0,0.0055
2612.0,0.0055
2611.0,0.0055
2610.0,0.0055
2609.0,0.0055
2608.0,0.0054
2607.0,0.0054
2606.0,0.0054
2605.0,0.0054
2604.0,0.0053
2603.0,0.0053
2602.0,0.0054
2601.0,0.0054
2600.0,0.0055
2599.0,0.0055
2598.0,0.0055
2597.0,0.0055
2596.0,0.0054
2595.0,0.0054
2594.0,0.0054
2593.0,0.0054
2592.0,0.0055
2591.0,0.0055
2590.0,0.0055
2589.0,0.0055
2588.0,0.0055
2587.0,0.0055
2586.0,0.0055
2585.0,0.0055
2584.0,0.0054
2583.0,0.0055
2582.0,0.0055
2581.0,0.0054
2580.0,0.0054
2579.0,0.0054
2578.0,0.0053
2577.0,0.0054
2576.0,0.0054
2575.0,0.0054
2574.0,0.0055
2573.0,0.0055
2572.0,0.0055
2571.0,0.0055
2570.0,0.0055
2569.0,0.0054
2568.0,0.0054
2567.0,0.0055
2566.0,0.0055
2565.0,0.0055
2564.0,0.0055
2563.0,0.0055
2562.0,0.0055
2561.0,0.0055
2560.0,0.0055
2559.0,0.0055
2558.0,0.0055
2557.0,0.0055
2556.0,0.0055
2555.0,0.0055
2554.0,0.0055
2553.0,0.0055
2552.0,0.0055
2551.0,0.0055
2550.0,0.0055
2549.0,0.0056
2548.0,0.0055
2547.0,0.0055
2546.0,0.0054
2545.0,0.0054
2544.0,0.0054
2543.0,0.0054
2542.0,0.0054
2541.0,0.0054
2540.0,0.0054
2539.0,0.0054
2538.0,0.0054
2537.0,0.0054
2536.0,0.0054
2535.0,0.0054
2534.0,0.0054
2533.0,0.0054
2532.0,0.0054
2531.0,0.0055
2530.0,0.0055
2529.0,0.0055
2528.0,0.0055
2527.0,0.0054
2526.0,0.0054
2525.0,0.0054
2524.0,0.0055
2523.0,0.0055
2522.0,0.0055
2521.0,0.0055
2520.0,0.0055
2519.0,0.0054
2518.0,0.0054
2517.0,0.0054
2516.0,0.0053
2515.0,0.0053
2514.0,0.0053
2513.0,0.0053
2512.0,0.0054
2511.0,0.0054
2510.0,0.0054
2509.0,0.0053
2508.0,0.0053
2507.0,0.0053
2506.0,0.0054
2505.0,0.0054
2504.0,0.0054
2503.0,0.0054
2502.0,0.0054
2501.0,0.0054
2500.0,0.0053
2499.0,0.0053
2498.0,0.0054
2497.0,0.0054
2496.0,0.0054
2495.0,0.0055
2494.0,0.0055
2493.0,0.0055
2492.0,0.0054
2491.0,0.0054
2490.0,0.0054
2489.0,0.0054
2488.0,0.0054
2487.0,0.0054
2486.0,0.0054
2485.0,0.0053
2484.0,0.0053
2483.0,0.0052
2482.0,0.0052
2481.0,0.0052
2480.0,0.0053
2479.0,0.0053
2478.0,0.0053
2477.0,0.0053
2476.0,0.0053
2475.0,0.0053
2474.0,0.0053
2473.0,0.0053
2472.0,0.0053
2471.0,0.0052
2470.0,0.0052
2469.0,0.0051
2468.0,0.0051
2467.0,0.0052
2466.0,0.0052
2465.0,0.0052
2464.0,0.0052
2463.0,0.0052
2462.0,0.0051
2461.0,0.0051
2460.0,0.0051
2459.0,0.0051
2458.0,0.0051
2457.0,0.0051
2456.0,0.0051
2455.0,0.0051
2454.0,0.0051
2453.0,0.0051
2452.0,0.0051
2451.0,0.0051
2450.0,0.0051
2449.0,0.005
2448.0,0.005
2447.0,0.005
2446.0,0.005
2445.0,0.005
2444.0,0.0051
2443.0,0.0051
2442.0,0.0051
2441.0,0.005
2440.0,0.005
2439.0,0.005
2438.0,0.005
2437.0,0.005
2436.0,0.005
2435.0,0.005
2434.0,0.005
2433.0,0.005
2432.0,0.005
2431.0,0.005
2430.0,0.005
2429.0,0.005
2428.0,0.005
2427.0,0.0049
2426.0,0.0049
2425.0,0.0049
2424.0,0.0049
2423.0,0.0049
2422.0,0.0049
2421.0,0.0049
2420.0,0.005
2419.0,0.005
2418.0,0.0051
2417.0,0.0051
2416.0,0.0051
2415.0,0.0051
2414.0,0.005
2413.0,0.0049
2412.0,0.0049
2411.0,0.005
2410.0,0.005
2409.0,0.0051
2408.0,0.0051
2407.0,0.0051
2406.0,0.0051
2405.0,0.0051
2404.0,0.0051
2403.0,0.0052
2402.0,0.0052
2401.0,0.0051
2400.0,0.005
2399.0,0.005
2398.0,0.005
2397.0,0.005
2396.0,0.005
2395.0,0.005
2394.0,0.005
2393.0,0.005
2392.0,0.005
2391.0,0.005
2390.0,0.0049
2389.0,0.0048
2388.0,0.0048
2387.0,0.0048
2386.0,0.0048
2385.0,0.0049
2384.0,0.0051
2383.0,0.0055
2382.0,0.0058
2381.0,0.006
2380.0,0.0059
2379.0,0.0055
2378.0,0.0044
2377.0,0.0027
2376.0,0.0002
2375.0,-0.0028
2374.0,-0.006
2373.0,-0.0088
2372.0,-0.0105
2371.0,-0.0108
2370.0,-0.0098
2369.0,-0.008
2368.0,-0.0062
2367.0,-0.0047
2366.0,-0.0035
2365.0,-0.0021
2364.0,-0.0007
2363.0,0.0004
2362.0,0.0012
2361.0,0.0015
2360.0,0.0005
2359.0,-0.002
2358.0,-0.005
2357.0,-0.0073
2356.0,-0.0089
2355.0,-0.0101
2354.0,-0.0102
2353.0,-0.0087
2352.0,-0.0065
2351.0,-0.0051
2350.0,-0.0049
2349.0,-0.0057
2348.0,-0.007
2347.0,-0.0085
2346.0,-0.0102
2345.0,-0.0116
2344.0,-0.0127
2343.0,-0.013
2342.0,-0.012
2341.0,-0.0101
2340.0,-0.0085
2339.0,-0.0074
2338.0,-0.0066
2337.0,-0.0059
2336.0,-0.0054
2335.0,-0.0049
2334.0,-0.004
2333.0,-0.0026
2332.0,-0.0009
2331.0,0.0001
2330.0,0.0002
2329.0,-0.0004
2328.0,-0.0012
2327.0,-0.0017
2326.0,-0.0016
2325.0,-0.001
2324.0,-0.0002
2323.0,0.0004
2322.0,0.0006
2321.0,0.0005
2320.0,0.0003
2319.0,0.0001
2318.0,0.0002
2317.0,0.0005
2316.0,0.0011
2315.0,0.0019
2314.0,0.0029
2313.0,0.0039
2312.0,0.0046
2311.0,0.0051
2310.0,0.0055
2309.0,0.0059
2308.0,0.0064
2307.0,0.0067
2306.0,0.0069
2305.0,0.0068
2304.0,0.0064
2303.0,0.006
2302.0,0.0057
2301.0,0.0055
2300.0,0.0054
2299.0,0.0052
2298.0,0.005
2297.0,0.0048
2296.0,0.0046
2295.0,0.0045
2294.0,0.0044
2293.0,0.0045
2292.0,0.0045
2291.0,0.0046
2290.0,0.0047
2289.0,0.0048
2288.0,0.0049
2287.0,0.0049
2286.0,0.0049
2285.0,0.0048
2284.0,0.0047
2283.0,0.0046
2282.0,0.0045
2281.0,0.0044
2280.0,0.0044
2279.0,0.0044
2278.0,0.0043
2277.0,0.0043
2276.0,0.0043
2275.0,0.0042
2274.0,0.0041
2273.0,0.0041
2272.0,0.0041
2271.0,0.0042
2270.0,0.0044
2269.0,0.0044
2268.0,0.0045
2267.0,0.0045
2266.0,0.0044
2265.0,0.0043
2264.0,0.0043
2263.0,0.0043
2262.0,0.0044
2261.0,0.0044
2260.0,0.0045
2259.0,0.0046
2258.0,0.0046
2257.0,0.0046
2256.0,0.0046
2255.0,0.0047
2254.0,0.0047
2253.0,0.0048
2252.0,0.0048
2251.0,0.0048
2250.0,0.0048
2249.0,0.0048
2248.0,0.0049
2247.0,0.0049
2246.0,0.0048
2245.0,0.0048
2244.0,0.0048
2243.0,0.0048
2242.0,0.0048
2241.0,0.0048
2240.0,0.0048
2239.0,0.0048
2238.0,0.0048
2237.0,0.0048
2236.0,0.0048
2235.0,0.0048
2234.0,0.0048
2233.0,0.0048
2232.0,0.0048
2231.0,0.0048
2230.0,0.0048
2229.0,0.0048
2228.0,0.0048
2227.0,0.0048
2226.0,0.0048
2225.0,0.0048
2224.0,0.0049
2223.0,0.0049
2222.0,0.0048
2221.0,0.0048
2220.0,0.0047
2219.0,0.0047
2218.0,0.0046
2217.0,0.0046
2216.0,0.0046
2215.0,0.0046
2214.0,0.0046
2213.0,0.0047
2212.0,0.0047
2211.0,0.0046
2210.0,0.0046
2209.0,0.0046
2208.0,0.0047
2207.0,0.0047
2206.0,0.0047
2205.0,0.0047
2204.0,0.0047
2203.0,0.0047
2202.0,0.0047
2201.0,0.0047
2200.0,0.0047
2199.0,0.0047
2198.0,0.0047
2197.0,0.0046
2196.0,0.0046
2195.0,0.0046
2194.0,0.0046
2193.0,0.0046
2192.0,0.0045
2191.0,0.0045
2190.0,0.0045
2189.0,0.0044
2188.0,0.0044
2187.0,0.0045
2186.0,0.0045
2185.0,0.0045
2184.0,0.0044
2183.0,0.0044
2182.0,0.0044
2181.0,0.0043
2180.0,0.0043
2179.0,0.0043
2178.0,0.0043
2177.0,0.0043
2176.0,0.0043
2175.0,0.0043
2174.0,0.0043
2173.0,0.0043
2172.0,0.0042
2171.0,0.0042
2170.0,0.0042
2169.0,0.0042
2168.0,0.0043
2167.0,0.0043
2166.0,0.0043
2165.0,0.0043
2164.0,0.0043
2163.0,0.0043
2162.0,0.0043
2161.0,0.0043
2160.0,0.0043
2159.0,0.0043
2158.0,0.0042
2157.0,0.0042
2156.0,0.0042
2155.0,0.0042
2154.0,0.0042
2153.0,0.0042
2152.0,0.0042
2151.0,0.0042
2150.0,0.0042
2149.0,0.0042
2148.0,0.0042
2147.0,0.0042
2146.0,0.0042
2145.0,0.0042
2144.0,0.0042
2143.0,0.0042
2142.0,0.0043
2141.0,0.0042
2140.0,0.0042
2139.0,0.0042
2138.0,0.0042
2137.0,0.0042
2136.0,0.0042
2135.0,0.0042
2134.0,0.0042
2133.0,0.0042
2132.0,0.0042
2131.0,0.0043
2130.0,0.0043
2129.0,0.0043
2128.0,0.0044
2127.0,0.0043
2126.0,0.0043
2125.0,0.0042
2124.0,0.0042
2123.0,0.0042
2122.0,0.0042
2121.0,0.0042
2120.0,0.0042
2119.0,0.0042
2118.0,0.0042
2117.0,0.0043
2116.0,0.0044
2115.0,0.0044
2114.0,0.0044
2113.0,0.0044
2112.0,0.0044
2111.0,0.0043
2110.0,0.0043
2109.0,0.0042
2108.0,0.0042
2107.0,0.0042
2106.0,0.0043
2105.0,0.0043
2104.0,0.0043
2103.0,0.0042
2102.0,0.0042
2101.0,0.0042
2100.0,0.0042
2099.0,0.0042
2098.0,0.0042
2097.0,0.0042
2096.0,0.0042
2095.0,0.0042
2094.0,0.0041
2093.0,0.0041
2092.0,0.0041
2091.0,0.004
2090.0,0.004
2089.0,0.004
2088.0,0.004
2087.0,0.004
2086.0,0.004
2085.0,0.004
2084.0,0.004
2083.0,0.004
2082.0,0.004
2081.0,0.004
2080.0,0.0039
2079.0,0.0039
2078.0,0.0039
2077.0,0.0039
2076.0,0.0039
2075.0,0.0039
2074.0,0.0039
2073.0,0.0039
2072.0,0.0038
2071.0,0.0038
2070.0,0.0038
2069.0,0.0037
2068.0,0.0037
2067.0,0.0037
2066.0,0.0036
2065.0,0.0036
2064.0,0.0036
2063.0,0.0036
2062.0,0.0036
2061.0,0.0036
2060.0,0.0036
2059.0,0.0036
2058.0,0.0036
2057.0,0.0035
2056.0,0.0034
2055.0,0.0034
2054.0,0.0034
2053.0,0.0034
2052.0,0.0034
2051.0,0.0034
2050.0,0.0034
2049.0,0.0034
2048.0,0.0034
2047.0,0.0034
2046.0,0.0033
2045.0,0.0033
2044.0,0.0033
2043.0,0.0033
2042.0,0.0033
2041.0,0.0033
2040.0,0.0032
2039.0,0.0031
2038.0,0.0031
2037.0,0.003
2036.0,0.003
2035.0,0.003
2034.0,0.003
2033.0,0.003
2032.0,0.003
2031.0,0.003
2030.0,0.003
2029.0,0.0029
2028.0,0.0029
2027.0,0.0029
2026.0,0.0029
2025.0,0.0029
2024.0,0.0029
2023.0,0.0029
2022.0,0.0029
2021.0,0.0028
2020.0,0.0027
2019.0,0.0027
2018.0,0.0028
2017.0,0.0028
2016.0,0.0029
2015.0,0.0029
2014.0,0.0029
2013.0,0.0028
2012.0,0.0028
2011.0,0.0028
2010.0,0.0028
2009.0,0.0028
2008.0,0.0028
2007.0,0.0028
2006.0,0.0028
2005.0,0.0028
2004.0,0.0028
2003.0,0.0028
2002.0,0.0028
2001.0,0.0028
2000.0,0.0029
1999.0,0.0029
1998.0,0.0029
1997.0,0.0028
1996.0,0.0028
1995.0,0.0027
1994.0,0.0027
1993.0,0.0027
1992.0,0.0027
1991.0,0.0028
1990.0,0.0028
1989.0,0.0028
1988.0,0.0028
1987.0,0.0028
1986.0,0.0028
1985.0,0.0028
1984.0,0.0028
1983.0,0.0028
1982.0,0.0028
1981.0,0.0028
1980.0,0.0028
1979.0,0.0028
1978.0,0.0027
1977.0,0.0027
1976.0,0.0026
1975.0,0.0027
1974.0,0.0027
1973.0,0.0028
1972.0,0.0028
1971.0,0.0028
1970.0,0.0028
1969.0,0.0027
1968.0,0.0028
1967.0,0.0028
1966.0,0.0029
1965.0,0.0029
1964.0,0.0029
1963.0,0.0029
1962.0,0.003
1961.0,0.003
1960.0,0.003
1959.0,0.0031
1958.0,0.0031
1957.0,0.0031
1956.0,0.0031
1955.0,0.0032
1954.0,0.0032
1953.0,0.0032
1952.0,0.0032
1951.0,0.0031
1950.0,0.003
1949.0,0.003
1948.0,0.003
1947.0,0.003
1946.0,0.003
1945.0,0.003
1944.0,0.003
1943.0,0.0029
1942.0,0.0028
1941.0,0.0027
1940.0,0.0027
1939.0,0.0026
1938.0,0.0026
1937.0,0.0026
1936.0,0.0026
1935.0,0.0025
1934.0,0.0025
1933.0,0.0024
1932.0,0.0023
1931.0,0.0022
1930.0,0.0021
1929.0,0.002
1928.0,0.002
1927.0,0.002
1926.0,0.002
1925.0,0.002
1924.0,0.0019
1923.0,0.0019
1922.0,0.0018
1921.0,0.0017
1920.0,0.0017
1919.0,0.0016
1918.0,0.0015
1917.0,0.0015
1916.0,0.0015
1915.0,0.0015
1914.0,0.0015
1913.0,0.0014
1912.0,0.0014
1911.0,0.0013
1910.0,0.0013
1909.0,0.0012
1908.0,0.0012
1907.0,0.0012
1906.0,0.0011
1905.0,0.0011
1904.0,0.0011
1903.0,0.001
1902.0,0.001
1901.0,0.001
1900.0,0.0009
1899.0,0.0009
1898.0,0.0009
1897.0,0.0008
1896.0,0.0007
1895.0,0.0007
1894.0,0.0007
1893.0,0.0007
1892.0,0.0007
1891.0,0.0007
1890.0,0.0007
1889.0,0.0006
1888.0,0.0005
1887.0,0.0004
1886.0,0.0004
1885.0,0.0003
1884.0,0.0003
1883.0,0.0003
1882.0,0.0002
1881.0,0.0001
1880.0,0.0
1879.0,-0.0
1878.0,-0.0
1877.0,-0.0
1876.0,-0.0
1875.0,-0.0001
1874.0,-0.0001
1873.0,-0.0002
1872.0,-0.0002
1871.0,-0.0003
1870.0,-0.0003
1869.0,-0.0004
1868.0,-0.0003
1867.0,-0.0003
1866.0,-0.0003
1865.0,-0.0004
1864.0,-0.0005
1863.0,-0.0005
1862.0,-0.0006
1861.0,-0.0006
1860.0,-0.0006
1859.0,-0.0006
1858.0,-0.0006
1857.0,-0.0006
1856.0,-0.0006
1855.0,-0.0007
1854.0,-0.0007
1853.0,-0.0007
1852.0,-0.0007
1851.0,-0.0007
1850.0,-0.0007
1849.0,-0.0007
1848.0,-0.0007
1847.0,-0.0008
1846.0,-0.0009
1845.0,-0.001
1844.0,-0.0011
1843.0,-0.0011
1842.0,-0.001
1841.0,-0.0009
1840.0,-0.0009
1839.0,-0.0009
1838.0,-0.0009
1837.0,-0.0009
1836.0,-0.0009
1835.0,-0.0009
1834.0,-0.0009
1833.0,-0.0009
1832.0,-0.0009
1831.0,-0.0008
1830.0,-0.0008
1829.0,-0.0008
1828.0,-0.0008
1827.0,-0.0008
1826.0,-0.0008
1825.0,-0.001
1824.0,-0.001
1823.0,-0.0011
1822.0,-0.0011
1821.0,-0.0011
1820.0,-0.0012
1819.0,-0.0012
1818.0,-0.0013
1817.0,-0.0013
1816.0,-0.0014
1815.0,-0.0014
1814.0,-0.0014
1813.0,-0.0014
1812.0,-0.0014
1811.0,-0.0015
1810.0,-0.0016
1809.0,-0.0017
1808.0,-0.0019
1807.0,-0.002
1806.0,-0.0021
1805.0,-0.0021
1804.0,-0.0022
1803.0,-0.0022
1802.0,-0.0024
1801.0,-0.0025
1800.0,-0.0026
1799.0,-0.0027
1798.0,-0.0028
1797.0,-0.0029
1796.0,-0.003
1795.0,-0.0031
1794.0,-0.0032
1793.0,-0.0033
1792.0,-0.0034
1791.0,-0.0034
1790.0,-0.0034
1789.0,-0.0035
1788.0,-0.0035
1787.0,-0.0036
1786.0,-0.0038
1785.0,-0.0039
1784.0,-0.004
1783.0,-0.0039
1782.0,-0.0039
1781.0,-0.0039
1780.0,-0.004
1779.0,-0.0041
1778.0,-0.0041
1777.0,-0.0042
1776.0,-0.0043
1775.0,-0.0043
1774.0,-0.0043
1773.0,-0.0045
1772.0,-0.0046
1771.0,-0.0047
1770.0,-0.0048
1769.0,-0.0049
1768.0,-0.0049
1767.0,-0.0049
1766.0,-0.0047
1765.0,-0.0046
1764.0,-0.0045
1763.0,-0.0045
1762.0,-0.0044
1761.0,-0.0044
1760.0,-0.0043
1759.0,-0.004
1758.0,-0.0037
1757.0,-0.0034
1756.0,-0.0031
1755.0,-0.0027
1754.0,-0.0022
1753.0,-0.0017
1752.0,-0.0012
1751.0,-0.0003
1750.0,0.0009
1749.0,0.0021
1748.0,0.0036
1747.0,0.0053
1746.0,0.0072
1745.0,0.0093
1744.0,0.0119
1743.0,0.0148
1742.0,0.0177
1741.0,0.021
1740.0,0.0248
1739.0,0.0289
1738.0,0.0323
1737.0,0.035
1736.0,0.0378
1735.0,0.0422
1734.0,0.0482
1733.0,0.0534
1732.0,0.0572
1731.0,0.061
1730.0,0.0651
1729.0,0.0692
1728.0,0.0729
1727.0,0.0764
1726.0,0.0799
1725.0,0.0835
1724.0,0.0871
1723.0,0.0907
1722.0,0.0939
1721.0,0.0966
1720.0,0.0991
1719.0,0.1019
1718.0,0.1053
1717.0,0.1084
1716.0,0.1107
1715.0,0.1122
1714.0,0.113
1713.0,0.1126
1712.0,0.1109
1711.0,0.1083
1710.0,0.105
1709.0,0.1011
1708.0,0.0968
1707.0,0.0917
1706.0,0.0858
1705.0,0.0804
1704.0,0.0766
1703.0,0.0737
1702.0,0.0703
1701.0,0.0655
1700.0,0.0606
1699.0,0.0576
1698.0,0.0559
1697.0,0.054
1696.0,0.0517
1695.0,0.0495
1694.0,0.0481
1693.0,0.0471
1692.0,0.0462
1691.0,0.045
1690.0,0.0439
1689.0,0.043
1688.0,0.0425
1687.0,0.0421
1686.0,0.0414
1685.0,0.0405
1684.0,0.0396
1683.0,0.0388
1682.0,0.038
1681.0,0.0374
1680.0,0.0368
1679.0,0.0361
1678.0,0.0353
1677.0,0.0345
1676.0,0.0335
1675.0,0.0325
1674.0,0.0318
1673.0,0.0313
1672.0,0.0309
1671.0,0.0302
1670.0,0.0293
1669.0,0.0287
1668.0,0.0281
1667.0,0.0276
1666.0,0.0271
1665.0,0.0266
1664.0,0.0259
1663.0,0.0251
1662.0,0.0245
1661.0,0.024
1660.0,0.0236
1659.0,0.0232
1658.0,0.0229
1657.0,0.0227
1656.0,0.0225
1655.0,0.0223
1654.0,0.0217
1653.0,0.0211
1652.0,0.0205
1651.0,0.0201
1650.0,0.02
1649.0,0.0199
1648.0,0.0195
1647.0,0.019
1646.0,0.0187
1645.0,0.0185
1644.0,0.0183
1643.0,0.0182
1642.0,0.018
1641.0,0.0179
1640.0,0.0178
1639.0,0.0176
1638.0,0.0174
1637.0,0.0172
1636.0,0.017
1635.0,0.017
1634.0,0.0168
1633.0,0.0167
1632.0,0.0166
1631.0,0.0165
1630.0,0.0164
1629.0,0.0164
1628.0,0.0165
1627.0,0.0165
1626.0,0.0165
1625.0,0.0165
1624.0,0.0165
1623.0,0.0166
1622.0,0.0167
1621.0,0.0167
1620.0,0.0167
1619.0,0.0166
1618.0,0.0164
1617.0,0.0164
1616.0,0.0164
1615.0,0.0163
1614.0,0.0162
1613.0,0.016
1612.0,0.0158
1611.0,0.0154
1610.0,0.0151
1609.0,0.0148
1608.0,0.0145
1607.0,0.0142
1606.0,0.0139
1605.0,0.0136
1604.0,0.0132
1603.0,0.0129
1602.0,0.0126
1601.0,0.0123
1600.0,0.0121
1599.0,0.0118
1598.0,0.0115
1597.0,0.0113
1596.0,0.011
1595.0,0.0109
1594.0,0.0107
1593.0,0.0106
1592.0,0.0105
1591.0,0.0104
1590.0,0.0103
1589.0,0.0103
1588.0,0.0103
1587.0,0.0102
1586.0,0.0103
1585.0,0.0104
1584.0,0.0107
1583.0,0.0111
1582.0,0.0116
1581.0,0.0121
1580.0,0.0127
1579.0,0.0131
1578.0,0.0132
1577.0,0.0132
1576.0,0.0129
1575.0,0.0126
1574.0,0.0123
1573.0,0.012
1572.0,0.0117
1571.0,0.0112
1570.0,0.0108
1569.0,0.0104
1568.0,0.01
1567.0,0.0098
1566.0,0.0095
1565.0,0.0093
1564.0,0.0092
1563.0,0.0091
1562.0,0.0091
1561.0,0.0092
1560.0,0.0091
1559.0,0.0088
1558.0,0.0085
1557.0,0.008
1556.0,0.0077
1555.0,0.0076
1554.0,0.0075
1553.0,0.0074
1552.0,0.0074
1551.0,0.0074
1550.0,0.0073
1549.0,0.0071
1548.0,0.007
1547.0,0.0068
1546.0,0.0066
1545.0,0.0064
1544.0,0.0061
1543.0,0.0059
1542.0,0.0057
1541.0,0.0058
1540.0,0.0062
1539.0,0.0062
1538.0,0.0059
1537.0,0.0057
1536.0,0.0057
1535.0,0.0057
1534.0,0.0057
1533.0,0.0058
1532.0,0.0059
1531.0,0.0059
1530.0,0.0058
1529.0,0.0058
1528.0,0.0057
1527.0,0.0056
1526.0,0.0055
1525.0,0.0054
1524.0,0.0053
1523.0,0.0051
1522.0,0.0049
1521.0,0.0049
1520.0,0.0049
1519.0,0.0049
1518.0,0.0047
1517.0,0.0046
1516.0,0.0044
1515.0,0.0042
1514.0,0.0041
1513.0,0.0041
1512.0,0.0043
1511.0,0.0047
1510.0,0.0055
1509.0,0.0066
1508.0,0.0088
1507.0,0.0125
1506.0,0.0149
1505.0,0.0149
1504.0,0.0142
1503.0,0.0132
1502.0,0.0119
1501.0,0.0104
1500.0,0.009
1499.0,0.0077
1498.0,0.0065
1497.0,0.0056
1496.0,0.0049
1495.0,0.0045
1494.0,0.0042
1493.0,0.004
1492.0,0.0038
1491.0,0.0037
1490.0,0.0035
1489.0,0.0036
1488.0,0.0039
1487.0,0.0041
1486.0,0.0043
1485.0,0.0045
1484.0,0.0049
1483.0,0.0053
1482.0,0.0057
1481.0,0.0062
1480.0,0.0067
1479.0,0.0071
1478.0,0.0075
1477.0,0.0079
1476.0,0.0083
1475.0,0.0085
1474.0,0.0085
1473.0,0.0087
1472.0,0.009
1471.0,0.009
1470.0,0.0089
1469.0,0.0087
1468.0,0.0086
1467.0,0.0085
1466.0,0.0085
1465.0,0.0086
1464.0,0.0088
1463.0,0.0091
1462.0,0.0094
1461.0,0.0098
1460.0,0.01
1459.0,0.0101
1458.0,0.0101
1457.0,0.0103
1456.0,0.0107
1455.0,0.0109
1454.0,0.011
1453.0,0.011
1452.0,0.0109
1451.0,0.0107
1450.0,0.0105
1449.0,0.0102
1448.0,0.0099
1447.0,0.0097
1446.0,0.0094
1445.0,0.0092
1444.0,0.0091
1443.0,0.0089
1442.0,0.0087
1441.0,0.0085
1440.0,0.0084
1439.0,0.0081
1438.0,0.0076
1437.0,0.007
1436.0,0.0064
1435.0,0.0059
1434.0,0.0055
1433.0,0.005
1432.0,0.0045
1431.0,0.0039
1430.0,0.0033
1429.0,0.0028
1428.0,0.0023
1427.0,0.0021
1426.0,0.0019
1425.0,0.0017
1424.0,0.0016
1423.0,0.0017
1422.0,0.0018
1421.0,0.002
1420.0,0.0027
1419.0,0.0041
1418.0,0.0059
1417.0,0.008
1416.0,0.0104
1415.0,0.0135
1414.0,0.0171
1413.0,0.0214
1412.0,0.0259
1411.0,0.0302
1410.0,0.0334
1409.0,0.0355
1408.0,0.0362
1407.0,0.0355
1406.0,0.0334
1405.0,0.0305
1404.0,0.0274
1403.0,0.0247
1402.0,0.0224
1401.0,0.0203
1400.0,0.0182
1399.0,0.0161
1398.0,0.0145
1397.0,0.0134
1396.0,0.0123
1395.0,0.0112
1394.0,0.0103
1393.0,0.0096
1392.0,0.0092
1391.0,0.0088
1390.0,0.0085
1389.0,0.0082
1388.0,0.0079
1387.0,0.0078
1386.0,0.0078
1385.0,0.0079
1384.0,0.008
1383.0,0.008
1382.0,0.0081
1381.0,0.0082
1380.0,0.0083
1379.0,0.0084
1378.0,0.0086
1377.0,0.0089
1376.0,0.0091
1375.0,0.0094
1374.0,0.0097
1373.0,0.0099
1372.0,0.0099
1371.0,0.0098
1370.0,0.0096
1369.0,0.0092
1368.0,0.0087
1367.0,0.0081
1366.0,0.0075
1365.0,0.0068
1364.0,0.006
1363.0,0.0052
1362.0,0.0044
1361.0,0.0039
1360.0,0.0036
1359.0,0.0033
1358.0,0.0032
1357.0,0.0033
1356.0,0.0034
1355.0,0.0037
1354.0,0.0041
1353.0,0.0047
1352.0,0.0055
1351.0,0.0065
1350.0,0.0078
1349.0,0.0094
1348.0,0.0114
1347.0,0.0139
1346.0,0.017
1345.0,0.0205
1344.0,0.0244
1343.0,0.0285
1342.0,0.0325
1341.0,0.0363
1340.0,0.0395
1339.0,0.0415
1338.0,0.0418
1337.0,0.0406
1336.0,0.038
1335.0,0.0345
1334.0,0.0302
1333.0,0.0257
1332.0,0.0212
1331.0,0.0172
1330.0,0.0139
1329.0,0.0112
1328.0,0.0093
1327.0,0.0079
1326.0,0.0071
1325.0,0.0066
1324.0,0.0063
1323.0,0.0062
1322.0,0.0063
1321.0,0.0066
1320.0,0.0069
1319.0,0.0072
1318.0,0.0076
1317.0,0.0081
1316.0,0.0086
1315.0,0.0091
1314.0,0.0098
1313.0,0.0106
1312.0,0.0114
1311.0,0.0123
1310.0,0.0132
1309.0,0.0141
1308.0,0.0151
1307.0,0.0161
1306.0,0.017
1305.0,0.018
1304.0,0.019
1303.0,0.0201
1302.0,0.0213
1301.0,0.0227
1300.0,0.0243
1299.0,0.0262
1298.0,0.0281
1297.0,0.0302
1296.0,0.0323
1295.0,0.0345
1294.0,0.0366
1293.0,0.0386
1292.0,0.0407
1291.0,0.0427
1290.0,0.0445
1289.0,0.0464
1288.0,0.0482
1287.0,0.0499
1286.0,0.0514
1285.0,0.053
1284.0,0.0544
1283.0,0.0559
1282.0,0.0573
1281.0,0.0588
1280.0,0.0604
1279.0,0.0621
1278.0,0.0639
1277.0,0.0658
1276.0,0.068
1275.0,0.0705
1274.0,0.0733
1273.0,0.0765
1272.0,0.0801
1271.0,0.0839
1270.0,0.0878
1269.0,0.0917
1268.0,0.0956
1267.0,0.0994
1266.0,0.1028
1265.0,0.106
1264.0,0.1089
1263.0,0.1114
1262.0,0.1134
1261.0,0.115
1260.0,0.1162
1259.0,0.1172
1258.0,0.1179
1257.0,0.1186
1256.0,0.1196
1255.0,0.1207
1254.0,0.1221
1253.0,0.1238
1252.0,0.1259
1251.0,0.1283
1250.0,0.1309
1249.0,0.1337
1248.0,0.1367
1247.0,0.1397
1246.0,0.1425
1245.0,0.1454
1244.0,0.1482
1243.0,0.1507
1242.0,0.1527
1241.0,0.1544
1240.0,0.1556
1239.0,0.156
1238.0,0.1558
1237.0,0.155
1236.0,0.1537
1235.0,0.1518
1234.0,0.1495
1233.0,0.1468
1232.0,0.1441
1231.0,0.1411
1230.0,0.1379
1229.0,0.1347
1228.0,0.1315
1227.0,0.1282
1226.0,0.1249
1225.0,0.1216
1224.0,0.1184
1223.0,0.1152
1222.0,0.112
1221.0,0.1088
1220.0,0.1057
1219.0,0.1025
1218.0,0.0993
1217.0,0.0962
1216.0,0.0933
1215.0,0.0904
1214.0,0.0876
1213.0,0.085
1212.0,0.0825
1211.0,0.0802
1210.0,0.0779
1209.0,0.0759
1208.0,0.0739
1207.0,0.0719
1206.0,0.0699
1205.0,0.0681
1204.0,0.0663
1203.0,0.0645
1202.0,0.0629
1201.0,0.0612
1200.0,0.0597
1199.0,0.0581
1198.0,0.0565
1197.0,0.055
1196.0,0.0535
1195.0,0.0522
1194.0,0.0508
1193.0,0.0495
1192.0,0.0482
1191.0,0.047
1190.0,0.0458
1189.0,0.0448
1188.0,0.0438
1187.0,0.043
1186.0,0.0422
1185.0,0.0416
1184.0,0.0411
1183.0,0.0406
1182.0,0.0403
1181.0,0.0401
1180.0,0.0402
1179.0,0.0403
1178.0,0.0405
1177.0,0.0407
1176.0,0.0408
1175.0,0.0408
1174.0,0.0406
1173.0,0.0402
1172.0,0.0397
1171.0,0.0388
1170.0,0.0378
1169.0,0.0367
1168.0,0.0356
1167.0,0.0346
1166.0,0.0337
1165.0,0.0329
1164.0,0.0323
1163.0,0.0318
1162.0,0.0315
1161.0,0.0312
1160.0,0.0309
1159.0,0.0308
1158.0,0.0307
1157.0,0.0306
1156.0,0.0307
1155.0,0.0308
1154.0,0.031
1153.0,0.0313
1152.0,0.0318
1151.0,0.0323
1150.0,0.033
1149.0,0.0339
1148.0,0.0349
1147.0,0.0361
1146.0,0.0373
1145.0,0.0387
1144.0,0.0403
1143.0,0.0419
1142.0,0.0436
1141.0,0.0455
1140.0,0.0476
1139.0,0.0499
1138.0,0.0523
1137.0,0.0549
1136.0,0.0578
1135.0,0.0609
1134.0,0.0643
1133.0,0.0679
1132.0,0.0717
1131.0,0.0758
1130.0,0.08
1129.0,0.0842
1128.0,0.0886
1127.0,0.0928
1126.0,0.097
1125.0,0.1011
1124.0,0.1051
1123.0,0.1089
1122.0,0.1123
1121.0,0.1155
1120.0,0.1182
1119.0,0.1205
1118.0,0.122
1117.0,0.1228
1116.0,0.1229
1115.0,0.1224
1114.0,0.1216
1113.0,0.121
1112.0,0.1209
1111.0,0.1217
1110.0,0.1233
1109.0,0.126
1108.0,0.1295
1107.0,0.1335
1106.0,0.1378
1105.0,0.1422
1104.0,0.1465
1103.0,0.1506
1102.0,0.1544
1101.0,0.1578
1100.0,0.1609
1099.0,0.1635
1098.0,0.1656
1097.0,0.1672
1096.0,0.1684
1095.0,0.169
1094.0,0.169
1093.0,0.1686
1092.0,0.1678
1091.0,0.1667
1090.0,0.1652
1089.0,0.1637
1088.0,0.162
1087.0,0.1602
1086.0,0.1583
1085.0,0.1564
1084.0,0.1545
1083.0,0.1524
1082.0,0.15
1081.0,0.1474
1080.0,0.1444
1079.0,0.1411
1078.0,0.1376
1077.0,0.1339
1076.0,0.1303
1075.0,0.1265
1074.0,0.1227
1073.0,0.119
1072.0,0.1154
1071.0,0.1121
1070.0,0.1088
1069.0,0.1058
1068.0,0.103
1067.0,0.1003
1066.0,0.0978
1065.0,0.0954
1064.0,0.0932
1063.0,0.091
1062.0,0.089
1061.0,0.0871
1060.0,0.0853
1059.0,0.0836
1058.0,0.082
1057.0,0.0807
1056.0,0.0796
1055.0,0.0787
1054.0,0.0779
1053.0,0.0773
1052.0,0.0767
1051.0,0.0762
1050.0,0.0759
1049.0,0.0756
1048.0,0.0754
1047.0,0.0752
1046.0,0.075
1045.0,0.0748
1044.0,0.0745
1043.0,0.0741
1042.0,0.0735
1041.0,0.0727
1040.0,0.0719
1039.0,0.0709
1038.0,0.0697
1037.0,0.0685
1036.0,0.0672
1035.0,0.0659
1034.0,0.0644
1033.0,0.0628
1032.0,0.0613
1031.0,0.0598
1030.0,0.0584
1029.0,0.0575
1028.0,0.0573
1027.0,0.0582
1026.0,0.0608
1025.0,0.0652
1024.0,0.0713
1023.0,0.0788
1022.0,0.0873
1021.0,0.0965
1020.0,0.106
1019.0,0.115
1018.0,0.1224
1017.0,0.127
1016.0,0.1282
1015.0,0.1259
1014.0,0.121
1013.0,0.1146
1012.0,0.1081
1011.0,0.102
1010.0,0.0966
1009.0,0.0921
1008.0,0.0884
1007.0,0.0853
1006.0,0.0826
1005.0,0.0802
1004.0,0.0781
1003.0,0.0762
1002.0,0.0744
1001.0,0.0728
1000.0,0.0714
999.0,0.0702
998.0,0.0691
997.0,0.068
996.0,0.067
995.0,0.0661
994.0,0.0653
993.0,0.0646
992.0,0.064
991.0,0.0635
990.0,0.063
989.0,0.0626
988.0,0.0622
987.0,0.0619
986.0,0.0617
985.0,0.0617
984.0,0.0617
983.0,0.062
982.0,0.0623
981.0,0.0629
980.0,0.0637
979.0,0.0645
978.0,0.0655
977.0,0.0666
976.0,0.0677
975.0,0.0688
974.0,0.0698
973.0,0.0705
972.0,0.0711
971.0,0.0715
970.0,0.0715
969.0,0.0714
968.0,0.071
967.0,0.0704
966.0,0.0697
965.0,0.0688
964.0,0.0679
963.0,0.0669
962.0,0.0658
961.0,0.0647
960.0,0.0638
959.0,0.0628
958.0,0.0618
957.0,0.0609
956.0,0.0601
955.0,0.0593
954.0,0.0586
953.0,0.0579
952.0,0.0572
951.0,0.0566
950.0,0.056
949.0,0.0555
948.0,0.055
947.0,0.0545
946.0,0.054
945.0,0.0535
944.0,0.053
943.0,0.0525
942.0,0.0521
941.0,0.0518
940.0,0.0516
939.0,0.0513
938.0,0.051
937.0,0.0507
936.0,0.0504
935.0,0.05
934.0,0.0497
933.0,0.0495
932.0,0.0493
931.0,0.0491
930.0,0.0488
929.0,0.0484
928.0,0.048
927.0,0.0476
926.0,0.0472
925.0,0.0468
924.0,0.0465
923.0,0.0462
922.0,0.0459
921.0,0.0456
920.0,0.0454
919.0,0.0451
918.0,0.0449
917.0,0.0447
916.0,0.0444
915.0,0.0442
914.0,0.044
913.0,0.0438
912.0,0.0438
911.0,0.0439
910.0,0.044
909.0,0.0442
908.0,0.0446
907.0,0.045
906.0,0.0455
905.0,0.046
904.0,0.0464
903.0,0.0468
902.0,0.0471
901.0,0.0474
900.0,0.0476
899.0,0.0478
898.0,0.0479
897.0,0.0479
896.0,0.0478
895.0,0.0476
894.0,0.0472
893.0,0.0469
892.0,0.0467
891.0,0.0464
890.0,0.0462
889.0,0.0461
888.0,0.0462
887.0,0.0466
886.0,0.0472
885.0,0.0482
884.0,0.0496
883.0,0.0514
882.0,0.0538
881.0,0.0566
880.0,0.06
879.0,0.0637
878.0,0.0678
877.0,0.0724
876.0,0.0775
875.0,0.0826
874.0,0.0872
873.0,0.0901
872.0,0.0904
871.0,0.0881
870.0,0.0838
869.0,0.079
868.0,0.0745
867.0,0.0706
866.0,0.0674
865.0,0.065
864.0,0.0633
863.0,0.0621
862.0,0.0613
861.0,0.0607
860.0,0.0603
859.0,0.0599
858.0,0.0596
857.0,0.0595
856.0,0.0597
855.0,0.0601
854.0,0.0606
853.0,0.0612
852.0,0.0618
851.0,0.0626
850.0,0.0636
849.0,0.0646
848.0,0.0655
847.0,0.066
846.0,0.066
845.0,0.0658
844.0,0.0654
843.0,0.065
842.0,0.0643
841.0,0.0635
840.0,0.0625
839.0,0.0615
838.0,0.0606
837.0,0.0598
836.0,0.059
835.0,0.058
834.0,0.057
833.0,0.0561
832.0,0.0552
831.0,0.0545
830.0,0.0537
829.0,0.0531
828.0,0.0526
827.0,0.0521
826.0,0.0515
825.0,0.051
824.0,0.0505
823.0,0.05
822.0,0.0494
821.0,0.0489
820.0,0.0486
819.0,0.0483
818.0,0.048
817.0,0.0478
816.0,0.0476
815.0,0.0475
814.0,0.0473
813.0,0.0473
812.0,0.0472
811.0,0.047
810.0,0.0467
809.0,0.0464
808.0,0.0461
807.0,0.0459
806.0,0.0455
805.0,0.0451
804.0,0.0446
803.0,0.0441
802.0,0.0436
801.0,0.0433
800.0,0.0431
799.0,0.0431
798.0,0.0437
797.0,0.0449
796.0,0.0466
795.0,0.0485
794.0,0.0501
793.0,0.051
792.0,0.051
791.0,0.0502
790.0,0.0489
789.0,0.0475
788.0,0.0461
787.0,0.0448
786.0,0.0437
785.0,0.0427
784.0,0.042
783.0,0.0414
782.0,0.0409
781.0,0.0403
780.0,0.0397
779.0,0.039
778.0,0.0383
777.0,0.0377
776.0,0.0372
775.0,0.0368
774.0,0.0363
773.0,0.0358
772.0,0.0353
771.0,0.0346
770.0,0.0339
769.0,0.0334
768.0,0.0329
767.0,0.0325
766.0,0.0319
765.0,0.0313
764.0,0.0307
763.0,0.03
762.0,0.0293
761.0,0.0287
760.0,0.028
759.0,0.0273
758.0,0.0267
757.0,0.0262
756.0,0.0259
755.0,0.0257
754.0,0.0253
753.0,0.0249
752.0,0.0243
751.0,0.0239
750.0,0.0236
749.0,0.0236
748.0,0.0235
747.0,0.0233
746.0,0.0232
745.0,0.0235
744.0,0.0245
743.0,0.0261
742.0,0.0287
741.0,0.0327
740.0,0.0385
739.0,0.0463
738.0,0.0561
737.0,0.0679
736.0,0.0817
735.0,0.0969
734.0,0.113
733.0,0.1298
732.0,0.147
731.0,0.1647
730.0,0.1827
729.0,0.2015
728.0,0.2205
727.0,0.2381
726.0,0.2521
725.0,0.2606
724.0,0.2626
723.0,0.2581
722.0,0.2485
721.0,0.2359
720.0,0.2226
719.0,0.2099
718.0,0.198
717.0,0.1867
716.0,0.1763
715.0,0.1669
714.0,0.1588
713.0,0.1519
712.0,0.1462
711.0,0.141
710.0,0.1362
709.0,0.1318
708.0,0.1278
707.0,0.1241
706.0,0.1206
705.0,0.1175
704.0,0.1148
703.0,0.1122
702.0,0.1094
701.0,0.1066
700.0,0.1038
699.0,0.1009
698.0,0.0977
697.0,0.0942
696.0,0.0909
695.0,0.0885
694.0,0.0867
693.0,0.0852
692.0,0.0837
691.0,0.0822
690.0,0.0807
689.0,0.0792
688.0,0.078
687.0,0.0776
686.0,0.0779
685.0,0.078
684.0,0.0776
683.0,0.0771
682.0,0.0769
681.0,0.0769
680.0,0.0765
679.0,0.0756
678.0,0.0747
677.0,0.0741
676.0,0.0738
675.0,0.0732
674.0,0.0723
673.0,0.0714
672.0,0.0705
671.0,0.069
670.0,0.066
669.0,0.0628
668.0,0.061
667.0,0.0602
666.0,0.0625
665.0,0.0655
664.0,0.0666
663.0,0.0659
662.0,0.0647
661.0,0.0639
660.0,0.0633
659.0,0.0626
658.0,0.0618
657.0,0.0612
656.0,0.0609
655.0,0.0608
654.0,0.0607
653.0,0.0604
652.0,0.0598
651.0,0.059
650.0,0.0586
649.0,0.0588
648.0,0.0595
647.0,0.0598
646.0,0.0596
645.0,0.0589
644.0,0.0584
643.0,0.0581
642.0,0.0583
641.0,0.0588
640.0,0.0592
639.0,0.0593
638.0,0.0588
637.0,0.0582
636.0,0.0581
635.0,0.0592
634.0,0.0613
633.0,0.0636
632.0,0.0649
631.0,0.0646
630.0,0.0632
629.0,0.0621
628.0,0.0617
627.0,0.0616
626.0,0.0616
625.0,0.0615
624.0,0.0614
623.0,0.0613
622.0,0.0612
621.0,0.0614
620.0,0.062
619.0,0.0624
618.0,0.0625
617.0,0.0623
616.0,0.0622
615.0,0.0622
614.0,0.0624
613.0,0.0629
612.0,0.0637
611.0,0.0645
610.0,0.065
609.0,0.0649
608.0,0.0644
607.0,0.0635
606.0,0.0623
605.0,0.0615
604.0,0.0615
603.0,0.0621
602.0,0.0628
601.0,0.0629
600.0,0.0626
