cm-1,A
4000.0,0.002
3999.0,0.002
3998.0,0.002
3997.0,0.002
3996.0,0.0019
3995.0,0.0019
3994.0,0.0019
3993.0,0.0019
3992.0,0.0019
3991.0,0.0019
3990.0,0.0019
3989.0,0.0019
3988.0,0.0019
3987.0,0.002
3986.0,0.002
3985.0,0.0021
3984.0,0.0021
3983.0,0.0021
3982.0,0.002
3981.0,0.002
3980.0,0.002
3979.0,0.002
3978.0,0.002
3977.0,0.0021
3976.0,0.0021
3975.0,0.0021
3974.0,0.0021
3973.0,0.0021
3972.0,0.0021
3971.0,0.0021
3970.0,0.0021
3969.0,0.002
3968.0,0.002
3967.0,0.002
3966.0,0.002
3965.0,0.002
3964.0,0.0021
3963.0,0.002
3962.0,0.002
3961.0,0.0019
3960.0,0.0019
3959.0,0.0019
3958.0,0.002
3957.0,0.002
3956.0,0.002
3955.0,0.002
3954.0,0.002
3953.0,0.002
3952.0,0.002
3951.0,0.002
3950.0,0.002
3949.0,0.002
3948.0,0.002
3947.0,0.002
3946.0,0.002
3945.0,0.002
3944.0,0.002
3943.0,0.002
3942.0,0.002
3941.0,0.002
3940.0,0.002
3939.0,0.002
3938.0,0.0021
3937.0,0.0022
3936.0,0.0023
3935.0,0.0023
3934.0,0.0023
3933.0,0.0022
3932.0,0.0022
3931.0,0.0022
3930.0,0.0023
3929.0,0.0023
3928.0,0.0023
3927.0,0.0022
3926.0,0.0021
3925.0,0.002
3924.0,0.002
3923.0,0.0021
3922.0,0.0021
3921.0,0.0022
3920.0,0.0023
3919.0,0.0023
3918.0,0.0023
3917.0,0.0022
3916.0,0.0022
3915.0,0.0022
3914.0,0.0022
3913.0,0.0022
3912.0,0.0022
3911.0,0.0023
3910.0,0.0024
3909.0,0.0024
3908.0,0.0025
3907.0,0.0025
3906.0,0.0024
3905.0,0.0023
3904.0,0.0022
3903.0,0.0021
3902.0,0.002
3901.0,0.002
3900.0,0.0021
3899.0,0.0021
3898.0,0.0021
3897.0,0.0022
3896.0,0.0023
3895.0,0.0024
3894.0,0.0025
3893.0,0.0026
3892.0,0.0025
3891.0,0.0025
3890.0,0.0024
3889.0,0.0024
3888.0,0.0024
3887.0,0.0023
3886.0,0.0023
3885.0,0.0022
3884.0,0.0021
3883.0,0.0021
3882.0,0.0022
3881.0,0.0023
3880.0,0.0025
3879.0,0.0025
3878.0,0.0025
3877.0,0.0024
3876.0,0.0023
3875.0,0.0022
3874.0,0.0023
3873.0,0.0023
3872.0,0.0023
3871.0,0.0023
3870.0,0.0024
3869.0,0.0024
3868.0,0.0023
3867.0,0.0022
3866.0,0.0022
3865.0,0.0022
3864.0,0.0022
3863.0,0.0024
3862.0,0.0025
3861.0,0.0025
3860.0,0.0025
3859.0,0.0026
3858.0,0.0026
3857.0,0.0027
3856.0,0.0028
3855.0,0.0027
3854.0,0.0025
3853.0,0.0024
3852.0,0.0024
3851.0,0.0025
3850.0,0.0026
3849.0,0.0027
3848.0,0.0027
3847.0,0.0027
3846.0,0.0026
3845.0,0.0025
3844.0,0.0024
3843.0,0.0023
3842.0,0.0024
3841.0,0.0024
3840.0,0.0025
3839.0,0.0026
3838.0,0.0027
3837.0,0.0027
3836.0,0.0028
3835.0,0.0028
3834.0,0.0028
3833.0,0.0027
3832.0,0.0026
3831.0,0.0026
3830.0,0.0026
3829.0,0.0026
3828.0,0.0026
3827.0,0.0025
3826.0,0.0025
3825.0,0.0025
3824.0,0.0024
3823.0,0.0023
3822.0,0.0022
3821.0,0.0023
3820.0,0.0025
3819.0,0.0026
3818.0,0.0026
3817.0,0.0026
3816.0,0.0025
3815.0,0.0025
3814.0,0.0025
3813.0,0.0025
3812.0,0.0025
3811.0,0.0025
3810.0,0.0025
3809.0,0.0025
3808.0,0.0026
3807.0,0.0027
3806.0,0.0028
3805.0,0.0029
3804.0,0.0029
3803.0,0.0028
3802.0,0.0027
3801.0,0.0028
3800.0,0.0029
3799.0,0.003
3798.0,0.003
3797.0,0.0029
3796.0,0.0028
3795.0,0.0027
3794.0,0.0027
3793.0,0.0027
3792.0,0.0027
3791.0,0.0028
3790.0,0.0028
3789.0,0.0029
3788.0,0.0029
3787.0,0.0029
3786.0,0.0029
3785.0,0.0029
3784.0,0.003
3783.0,0.003
3782.0,0.003
3781.0,0.003
3780.0,0.0029
3779.0,0.0029
3778.0,0.0029
3777.0,0.0028
3776.0,0.0028
3775.0,0.0028
3774.0,0.0028
3773.0,0.0029
3772.0,0.0029
3771.0,0.0028
3770.0,0.0028
3769.0,0.0028
3768.0,0.0028
3767.0,0.0028
3766.0,0.0028
3765.0,0.0028
3764.0,0.0029
3763.0,0.003
3762.0,0.0031
3761.0,0.0031
3760.0,0.0031
3759.0,0.003
3758.0,0.0029
3757.0,0.0029
3756.0,0.0029
3755.0,0.003
3754.0,0.0031
3753.0,0.0031
3752.0,0.0031
3751.0,0.0031
3750.0,0.0031
3749.0,0.0031
3748.0,0.003
3747.0,0.0029
3746.0,0.0029
3745.0,0.0029
3744.0,0.003
3743.0,0.0031
3742.0,0.0031
3741.0,0.0032
3740.0,0.0032
3739.0,0.0033
3738.0,0.0033
3737.0,0.0032
3736.0,0.0032
3735.0,0.0032
3734.0,0.0031
3733.0,0.0031
3732.0,0.003
3731.0,0.003
3730.0,0.003
3729.0,0.003
3728.0,0.0031
3727.0,0.0031
3726.0,0.0031
3725.0,0.0031
3724.0,0.0031
3723.0,0.0031
3722.0,0.0031
3721.0,0.003
3720.0,0.003
3719.0,0.0029
3718.0,0.0029
3717.0,0.0028
3716.0,0.0028
3715.0,0.0027
3714.0,0.0028
3713.0,0.0028
3712.0,0.0029
3711.0,0.003
3710.0,0.003
3709.0,0.0031
3708.0,0.0031
3707.0,0.0032
3706.0,0.0032
3705.0,0.0032
3704.0,0.0032
3703.0,0.0031
3702.0,0.003
3701.0,0.0031
3700.0,0.0031
3699.0,0.0032
3698.0,0.0032
3697.0,0.0032
3696.0,0.0032
3695.0,0.0031
3694.0,0.0031
3693.0,0.0031
3692.0,0.0029
3691.0,0.0028
3690.0,0.0027
3689.0,0.0027
3688.0,0.0026
3687.0,0.0026
3686.0,0.0026
3685.0,0.0026
3684.0,0.0027
3683.0,0.0027
3682.0,0.0026
3681.0,0.0024
3680.0,0.0022
3679.0,0.002
3678.0,0.0018
3677.0,0.0017
3676.0,0.0018
3675.0,0.0019
3674.0,0.0021
3673.0,0.0022
3672.0,0.0022
3671.0,0.0021
3670.0,0.0019
3669.0,0.0019
3668.0,0.0018
3667.0,0.0018
3666.0,0.0018
3665.0,0.0018
3664.0,0.0017
3663.0,0.0016
3662.0,0.0015
3661.0,0.0014
3660.0,0.0013
3659.0,0.0012
3658.0,0.0011
3657.0,0.001
3656.0,0.001
3655.0,0.0009
3654.0,0.0009
3653.0,0.0007
3652.0,0.0004
3651.0,-0.0002
3650.0,-0.0006
3649.0,-0.0006
3648.0,-0.0003
3647.0,-0.0002
3646.0,-0.0003
3645.0,-0.0004
3644.0,-0.0006
3643.0,-0.0007
3642.0,-0.0007
3641.0,-0.0008
3640.0,-0.0008
3639.0,-0.0009
3638.0,-0.001
3637.0,-0.0012
3636.0,-0.0013
3635.0,-0.0015
3634.0,-0.0016
3633.0,-0.0017
3632.0,-0.0018
3631.0,-0.002
3630.0,-0.0021
3629.0,-0.0022
3628.0,-0.0022
3627.0,-0.0023
3626.0,-0.0025
3625.0,-0.0027
3624.0,-0.0029
3623.0,-0.003
3622.0,-0.0031
3621.0,-0.0032
3620.0,-0.0034
3619.0,-0.0037
3618.0,-0.0039
3617.0,-0.0042
3616.0,-0.0045
3615.0,-0.0048
3614.0,-0.005
3613.0,-0.0051
3612.0,-0.0051
3611.0,-0.0052
3610.0,-0.0053
3609.0,-0.0054
3608.0,-0.0056
3607.0,-0.0058
3606.0,-0.006
3605.0,-0.0062
3604.0,-0.0065
3603.0,-0.0067
3602.0,-0.0068
3601.0,-0.0069
3600.0,-0.007
3599.0,-0.007
3598.0,-0.0071
3597.0,-0.0073
3596.0,-0.0075
3595.0,-0.0077
3594.0,-0.008
3593.0,-0.0083
3592.0,-0.0085
3591.0,-0.0087
3590.0,-0.0088
3589.0,-0.0089
3588.0,-0.0089
3587.0,-0.009
3586.0,-0.0092
3585.0,-0.0093
3584.0,-0.0095
3583.0,-0.0096
3582.0,-0.0098
3581.0,-0.01
3580.0,-0.0103
3579.0,-0.0105
3578.0,-0.0107
3577.0,-0.0109
3576.0,-0.011
3575.0,-0.0111
3574.0,-0.0111
3573.0,-0.0112
3572.0,-0.0113
3571.0,-0.0114
3570.0,-0.0116
3569.0,-0.0117
3568.0,-0.0119
3567.0,-0.0121
3566.0,-0.0123
3565.0,-0.0124
3564.0,-0.0125
3563.0,-0.0126
3562.0,-0.0126
3561.0,-0.0127
3560.0,-0.0129
3559.0,-0.013
3558.0,-0.0132
3557.0,-0.0134
3556.0,-0.0135
3555.0,-0.0136
3554.0,-0.0137
3553.0,-0.0138
3552.0,-0.0139
3551.0,-0.0141
3550.0,-0.0142
3549.0,-0.0144
3548.0,-0.0146
3547.0,-0.0147
3546.0,-0.0149
3545.0,-0.015
3544.0,-0.0151
3543.0,-0.0153
3542.0,-0.0154
3541.0,-0.0156
3540.0,-0.0157
3539.0,-0.0159
3538.0,-0.016
3537.0,-0.0161
3536.0,-0.0162
3535.0,-0.0163
3534.0,-0.0164
3533.0,-0.0164
3532.0,-0.0164
3531.0,-0.0165
3530.0,-0.0165
3529.0,-0.0166
3528.0,-0.0168
3527.0,-0.0171
3526.0,-0.0174
3525.0,-0.0178
3524.0,-0.018
3523.0,-0.0182
3522.0,-0.0183
3521.0,-0.0185
3520.0,-0.0188
3519.0,-0.0191
3518.0,-0.0193
3517.0,-0.0194
3516.0,-0.0195
3515.0,-0.0195
3514.0,-0.0196
3513.0,-0.0197
3512.0,-0.0198
3511.0,-0.02
3510.0,-0.0203
3509.0,-0.0205
3508.0,-0.0207
3507.0,-0.0209
3506.0,-0.021
3505.0,-0.0212
3504.0,-0.0213
3503.0,-0.0214
3502.0,-0.0215
3501.0,-0.0216
3500.0,-0.0217
3499.0,-0.0219
3498.0,-0.022
3497.0,-0.0222
3496.0,-0.0224
3495.0,-0.0226
3494.0,-0.0228
3493.0,-0.0231
3492.0,-0.0234
3491.0,-0.0237
3490.0,-0.024
3489.0,-0.0242
3488.0,-0.0244
3487.0,-0.0245
3486.0,-0.0247
3485.0,-0.025
3484.0,-0.0253
3483.0,-0.0256
3482.0,-0.0259
3481.0,-0.0262
3480.0,-0.0265
3479.0,-0.0267
3478.0,-0.0269
3477.0,-0.0271
3476.0,-0.0273
3475.0,-0.0276
3474.0,-0.0279
3473.0,-0.0282
3472.0,-0.0286
3471.0,-0.029
3470.0,-0.0294
3469.0,-0.0298
3468.0,-0.0301
3467.0,-0.0304
3466.0,-0.0306
3465.0,-0.0309
3464.0,-0.0312
3463.0,-0.0315
3462.0,-0.0317
3461.0,-0.032
3460.0,-0.0323
3459.0,-0.0328
3458.0,-0.0332
3457.0,-0.0336
3456.0,-0.0339
3455.0,-0.0341
3454.0,-0.0344
3453.0,-0.0347
3452.0,-0.035
3451.0,-0.0353
3450.0,-0.0356
3449.0,-0.0358
3448.0,-0.036
3447.0,-0.0362
3446.0,-0.0365
3445.0,-0.0369
3444.0,-0.0372
3443.0,-0.0376
3442.0,-0.0378
3441.0,-0.0382
3440.0,-0.0385
3439.0,-0.0388
3438.0,-0.0389
3437.0,-0.039
3436.0,-0.0392
3435.0,-0.0395
3434.0,-0.0399
3433.0,-0.0402
3432.0,-0.0405
3431.0,-0.0406
3430.0,-0.0407
3429.0,-0.0408
3428.0,-0.0409
3427.0,-0.0412
3426.0,-0.0414
3425.0,-0.0416
3424.0,-0.0419
3423.0,-0.0423
3422.0,-0.0428
3421.0,-0.0432
3420.0,-0.0436
3419.0,-0.044
3418.0,-0.0444
3417.0,-0.0447
3416.0,-0.0451
3415.0,-0.0455
3414.0,-0.046
3413.0,-0.0464
3412.0,-0.0469
3411.0,-0.0474
3410.0,-0.0478
3409.0,-0.0482
3408.0,-0.0487
3407.0,-0.0491
3406.0,-0.0494
3405.0,-0.0498
3404.0,-0.0502
3403.0,-0.0505
3402.0,-0.0509
3401.0,-0.0513
3400.0,-0.0516
3399.0,-0.052
3398.0,-0.0526
3397.0,-0.0533
3396.0,-0.054
3395.0,-0.0547
3394.0,-0.0552
3393.0,-0.0557
3392.0,-0.0562
3391.0,-0.0567
3390.0,-0.0572
3389.0,-0.0577
3388.0,-0.0582
3387.0,-0.0588
3386.0,-0.0593
3385.0,-0.0599
3384.0,-0.0604
3383.0,-0.0608
3382.0,-0.0612
3381.0,-0.0617
3380.0,-0.0622
3379.0,-0.0629
3378.0,-0.0635
3377.0,-0.0641
3376.0,-0.0647
3375.0,-0.0652
3374.0,-0.0656
3373.0,-0.066
3372.0,-0.0663
3371.0,-0.0667
3370.0,-0.0672
3369.0,-0.0676
3368.0,-0.068
3367.0,-0.0683
3366.0,-0.0688
3365.0,-0.0692
3364.0,-0.0696
3363.0,-0.0699
3362.0,-0.0701
3361.0,-0.0702
3360.0,-0.0704
3359.0,-0.0707
3358.0,-0.0711
3357.0,-0.0715
3356.0,-0.0719
3355.0,-0.0722
3354.0,-0.0726
3353.0,-0.0729
3352.0,-0.0732
3351.0,-0.0733
3350.0,-0.0734
3349.0,-0.0735
3348.0,-0.0736
3347.0,-0.0738
3346.0,-0.0741
3345.0,-0.0743
3344.0,-0.0745
3343.0,-0.0746
3342.0,-0.0746
3341.0,-0.0746
3340.0,-0.0746
3339.0,-0.0746
3338.0,-0.0746
3337.0,-0.0747
3336.0,-0.0747
3335.0,-0.0748
3334.0,-0.075
3333.0,-0.0751
3332.0,-0.0752
3331.0,-0.0753
3330.0,-0.0753
3329.0,-0.0754
3328.0,-0.0753
3327.0,-0.0753
3326.0,-0.0754
3325.0,-0.0754
3324.0,-0.0755
3323.0,-0.0755
3322.0,-0.0756
3321.0,-0.0756
3320.0,-0.0756
3319.0,-0.0756
3318.0,-0.0755
3317.0,-0.0755
3316.0,-0.0754
3315.0,-0.0754
3314.0,-0.0753
3313.0,-0.0751
3312.0,-0.0749
3311.0,-0.0748
3310.0,-0.0747
3309.0,-0.0747
3308.0,-0.0747
3307.0,-0.0746
3306.0,-0.0745
3305.0,-0.0744
3304.0,-0.0743
3303.0,-0.0742
3302.0,-0.0741
3301.0,-0.074
3300.0,-0.0739
3299.0,-0.0737
3298.0,-0.0736
3297.0,-0.0735
3296.0,-0.0734
3295.0,-0.0733
3294.0,-0.0733
3293.0,-0.0733
3292.0,-0.0732
3291.0,-0.0731
3290.0,-0.0729
3289.0,-0.0727
3288.0,-0.0726
3287.0,-0.0725
3286.0,-0.0724
3285.0,-0.0723
3284.0,-0.0722
3283.0,-0.0721
3282.0,-0.0719
3281.0,-0.0716
3280.0,-0.0714
3279.0,-0.0713
3278.0,-0.0713
3277.0,-0.0714
3276.0,-0.0714
3275.0,-0.0714
3274.0,-0.0714
3273.0,-0.0713
3272.0,-0.0711
3271.0,-0.0708
3270.0,-0.0706
3269.0,-0.0705
3268.0,-0.0704
3267.0,-0.0703
3266.0,-0.0703
3265.0,-0.0702
3264.0,-0.07
3263.0,-0.0699
3262.0,-0.0697
3261.0,-0.0696
3260.0,-0.0695
3259.0,-0.0695
3258.0,-0.0694
3257.0,-0.0693
3256.0,-0.0692
3255.0,-0.0691
3254.0,-0.0691
3253.0,-0.0691
3252.0,-0.069
3251.0,-0.0689
3250.0,-0.0687
3249.0,-0.0686
3248.0,-0.0686
3247.0,-0.0686
3246.0,-0.0687
3245.0,-0.0688
3244.0,-0.0688
3243.0,-0.0687
3242.0,-0.0685
3241.0,-0.0685
3240.0,-0.0684
3239.0,-0.0684
3238.0,-0.0684
3237.0,-0.0683
3236.0,-0.0681
3235.0,-0.0679
3234.0,-0.0678
3233.0,-0.0678
3232.0,-0.0678
3231.0,-0.0677
3230.0,-0.0676
3229.0,-0.0674
3228.0,-0.0672
3227.0,-0.0671
3226.0,-0.0669
3225.0,-0.0667
3224.0,-0.0664
3223.0,-0.0662
3222.0,-0.066
3221.0,-0.0659
3220.0,-0.0658
3219.0,-0.0657
3218.0,-0.0655
3217.0,-0.0654
3216.0,-0.0652
3215.0,-0.0649
3214.0,-0.0647
3213.0,-0.0645
3212.0,-0.0643
3211.0,-0.064
3210.0,-0.0637
3209.0,-0.0635
3208.0,-0.0633
3207.0,-0.0631
3206.0,-0.0629
3205.0,-0.0626
3204.0,-0.0622
3203.0,-0.0618
3202.0,-0.0614
3201.0,-0.0612
3200.0,-0.061
3199.0,-0.0609
3198.0,-0.0607
3197.0,-0.0605
3196.0,-0.0602
3195.0,-0.06
3194.0,-0.0598
3193.0,-0.0596
3192.0,-0.0593
3191.0,-0.059
3190.0,-0.0586
3189.0,-0.0582
3188.0,-0.0578
3187.0,-0.0575
3186.0,-0.0571
3185.0,-0.0568
3184.0,-0.0565
3183.0,-0.0562
3182.0,-0.0559
3181.0,-0.0555
3180.0,-0.0551
3179.0,-0.0547
3178.0,-0.0544
3177.0,-0.0541
3176.0,-0.0539
3175.0,-0.0536
3174.0,-0.0533
3173.0,-0.053
3172.0,-0.0527
3171.0,-0.0524
3170.0,-0.052
3169.0,-0.0515
3168.0,-0.0511
3167.0,-0.0509
3166.0,-0.0507
3165.0,-0.0506
3164.0,-0.0504
3163.0,-0.0501
3162.0,-0.0498
3161.0,-0.0495
3160.0,-0.0492
3159.0,-0.0488
3158.0,-0.0485
3157.0,-0.0481
3156.0,-0.0477
3155.0,-0.0474
3154.0,-0.0471
3153.0,-0.0468
3152.0,-0.0466
3151.0,-0.0464
3150.0,-0.0461
3149.0,-0.0458
3148.0,-0.0455
3147.0,-0.0453
3146.0,-0.045
3145.0,-0.0447
3144.0,-0.0443
3143.0,-0.044
3142.0,-0.0437
3141.0,-0.0434
3140.0,-0.0432
3139.0,-0.0429
3138.0,-0.0426
3137.0,-0.0423
3136.0,-0.042
3135.0,-0.0417
3134.0,-0.0414
3133.0,-0.0411
3132.0,-0.0408
3131.0,-0.0405
3130.0,-0.0401
3129.0,-0.0398
3128.0,-0.0396
3127.0,-0.0394
3126.0,-0.0392
3125.0,-0.0389
3124.0,-0.0386
3123.0,-0.0384
3122.0,-0.0381
3121.0,-0.0378
3120.0,-0.0375
3119.0,-0.0372
3118.0,-0.0369
3117.0,-0.0365
3116.0,-0.0363
3115.0,-0.036
3114.0,-0.0358
3113.0,-0.0355
3112.0,-0.0352
3111.0,-0.0348
3110.0,-0.0346
3109.0,-0.0344
3108.0,-0.0342
3107.0,-0.034
3106.0,-0.0338
3105.0,-0.0336
3104.0,-0.0333
3103.0,-0.0332
3102.0,-0.0329
3101.0,-0.0327
3100.0,-0.0324
3099.0,-0.0321
3098.0,-0.0318
3097.0,-0.0315
3096.0,-0.0313
3095.0,-0.0311
3094.0,-0.0308
3093.0,-0.0305
3092.0,-0.0302
3091.0,-0.03
3090.0,-0.0297
3089.0,-0.0295
3088.0,-0.0293
3087.0,-0.0291
3086.0,-0.0289
3085.0,-0.0288
3084.0,-0.0286
3083.0,-0.0284
3082.0,-0.0282
3081.0,-0.028
3080.0,-0.0278
3079.0,-0.0274
3078.0,-0.0271
3077.0,-0.0269
3076.0,-0.0267
3075.0,-0.0266
3074.0,-0.0264
3073.0,-0.0262
3072.0,-0.0259
3071.0,-0.0257
3070.0,-0.0254
3069.0,-0.0253
3068.0,-0.0252
3067.0,-0.0251
3066.0,-0.025
3065.0,-0.0249
3064.0,-0.0248
3063.0,-0.0246
3062.0,-0.0245
3061.0,-0.0243
3060.0,-0.024
3059.0,-0.0237
3058.0,-0.0234
3057.0,-0.0232
3056.0,-0.0231
3055.0,-0.0229
3054.0,-0.0228
3053.0,-0.0227
3052.0,-0.0226
3051.0,-0.0224
3050.0,-0.0222
3049.0,-0.022
3048.0,-0.0219
3047.0,-0.0218
3046.0,-0.0217
3045.0,-0.0215
3044.0,-0.0213
3043.0,-0.0211
3042.0,-0.0208
3041.0,-0.0207
3040.0,-0.0206
3039.0,-0.0206
3038.0,-0.0204
3037.0,-0.0202
3036.0,-0.02
3035.0,-0.0197
3034.0,-0.0194
3033.0,-0.0192
3032.0,-0.019
3031.0,-0.0189
3030.0,-0.0188
3029.0,-0.0187
3028.0,-0.0187
3027.0,-0.0186
3026.0,-0.0185
3025.0,-0.0184
3024.0,-0.0183
3023.0,-0.0182
3022.0,-0.0181
3021.0,-0.0179
3020.0,-0.0177
3019.0,-0.0175
3018.0,-0.0173
3017.0,-0.0172
3016.0,-0.0171
3015.0,-0.0169
3014.0,-0.0167
3013.0,-0.0166
3012.0,-0.0164
3011.0,-0.0163
3010.0,-0.0163
3009.0,-0.0163
3008.0,-0.0163
3007.0,-0.0162
3006.0,-0.016
3005.0,-0.0158
3004.0,-0.0156
3003.0,-0.0155
3002.0,-0.0154
3001.0,-0.0153
3000.0,-0.0153
2999.0,-0.0152
2998.0,-0.0151
2997.0,-0.0149
2996.0,-0.0147
2995.0,-0.0145
2994.0,-0.0144
2993.0,-0.0143
2992.0,-0.0143
2991.0,-0.0142
2990.0,-0.014
2989.0,-0.0139
2988.0,-0.0138
2987.0,-0.0137
2986.0,-0.0135
2985.0,-0.0134
2984.0,-0.0132
2983.0,-0.0131
2982.0,-0.013
2981.0,-0.0129
2980.0,-0.0128
2979.0,-0.0127
2978.0,-0.0127
2977.0,-0.0127
2976.0,-0.0126
2975.0,-0.0125
2974.0,-0.0124
2973.0,-0.0123
2972.0,-0.0122
2971.0,-0.0122
2970.0,-0.0122
2969.0,-0.0121
2968.0,-0.012
2967.0,-0.0118
2966.0,-0.0116
2965.0,-0.0115
2964.0,-0.0113
2963.0,-0.0113
2962.0,-0.0112
2961.0,-0.0112
2960.0,-0.0112
2959.0,-0.0111
2958.0,-0.011
2957.0,-0.0108
2956.0,-0.0107
2955.0,-0.0107
2954.0,-0.0107
2953.0,-0.0106
2952.0,-0.0105
2951.0,-0.0104
2950.0,-0.0103
2949.0,-0.0102
2948.0,-0.0102
2947.0,-0.0101
2946.0,-0.01
2945.0,-0.01
2944.0,-0.0099
2943.0,-0.0098
2942.0,-0.0098
2941.0,-0.0097
2940.0,-0.0097
2939.0,-0.0096
2938.0,-0.0095
2937.0,-0.0094
2936.0,-0.0093
2935.0,-0.0092
2934.0,-0.009
2933.0,-0.0089
2932.0,-0.0088
2931.0,-0.0088
2930.0,-0.0088
2929.0,-0.0088
2928.0,-0.0087
2927.0,-0.0087
2926.0,-0.0086
2925.0,-0.0086
2924.0,-0.0085
2923.0,-0.0084
2922.0,-0.0083
2921.0,-0.0083
2920.0,-0.0082
2919.0,-0.0082
2918.0,-0.0082
2917.0,-0.0082
2916.0,-0.0081
2915.0,-0.008
2914.0,-0.0079
2913.0,-0.0078
2912.0,-0.0077
2911.0,-0.0076
2910.0,-0.0076
2909.0,-0.0076
2908.0,-0.0075
2907.0,-0.0075
2906.0,-0.0075
2905.0,-0.0074
2904.0,-0.0074
2903.0,-0.0073
2902.0,-0.0073
2901.0,-0.0072
2900.0,-0.0072
2899.0,-0.0071
2898.0,-0.0071
2897.0,-0.007
2896.0,-0.007
2895.0,-0.007
2894.0,-0.0069
2893.0,-0.0068
2892.0,-0.0067
2891.0,-0.0066
2890.0,-0.0065
2889.0,-0.0064
2888.0,-0.0063
2887.0,-0.0064
2886.0,-0.0064
2885.0,-0.0065
2884.0,-0.0065
2883.0,-0.0065
2882.0,-0.0064
2881.0,-0.0064
2880.0,-0.0064
2879.0,-0.0064
2878.0,-0.0064
2877.0,-0.0063
2876.0,-0.0062
2875.0,-0.0061
2874.0,-0.006
2873.0,-0.006
2872.0,-0.0059
2871.0,-0.0059
2870.0,-0.0058
2869.0,-0.0057
2868.0,-0.0056
2867.0,-0.0056
2866.0,-0.0055
2865.0,-0.0056
2864.0,-0.0056
2863.0,-0.0056
2862.0,-0.0056
2861.0,-0.0055
2860.0,-0.0054
2859.0,-0.0053
2858.0,-0.0053
2857.0,-0.0052
2856.0,-0.0052
2855.0,-0.0051
2854.0,-0.0051
2853.0,-0.0051
2852.0,-0.005
2851.0,-0.0049
2850.0,-0.0049
2849.0,-0.0049
2848.0,-0.0049
2847.0,-0.0049
2846.0,-0.005
2845.0,-0.0049
2844.0,-0.0049
2843.0,-0.0048
2842.0,-0.0047
2841.0,-0.0047
2840.0,-0.0046
2839.0,-0.0046
2838.0,-0.0046
2837.0,-0.0045
2836.0,-0.0045
2835.0,-0.0044
2834.0,-0.0044
2833.0,-0.0043
2832.0,-0.0043
2831.0,-0.0043
2830.0,-0.0044
2829.0,-0.0044
2828.0,-0.0043
2827.0,-0.0042
2826.0,-0.0041
2825.0,-0.0041
2824.0,-0.0042
2823.0,-0.0042
2822.0,-0.0042
2821.0,-0.0041
2820.0,-0.004
2819.0,-0.0039
2818.0,-0.0038
2817.0,-0.0038
2816.0,-0.0038
2815.0,-0.0039
2814.0,-0.0039
2813.0,-0.0039
2812.0,-0.0039
2811.0,-0.0039
2810.0,-0.0039
2809.0,-0.0038
2808.0,-0.0038
2807.0,-0.0038
2806.0,-0.0037
2805.0,-0.0036
2804.0,-0.0036
2803.0,-0.0036
2802.0,-0.0036
2801.0,-0.0035
2800.0,-0.0035
2799.0,-0.0034
2798.0,-0.0034
2797.0,-0.0034
2796.0,-0.0034
2795.0,-0.0034
2794.0,-0.0034
2793.0,-0.0033
2792.0,-0.0032
2791.0,-0.0032
2790.0,-0.0033
2789.0,-0.0033
2788.0,-0.0033
2787.0,-0.0032
2786.0,-0.0031
2785.0,-0.003
2784.0,-0.0029
2783.0,-0.0029
2782.0,-0.0029
2781.0,-0.003
2780.0,-0.003
2779.0,-0.003
2778.0,-0.0029
2777.0,-0.0029
2776.0,-0.0029
2775.0,-0.0028
2774.0,-0.0027
2773.0,-0.0027
2772.0,-0.0027
2771.0,-0.0028
2770.0,-0.0028
2769.0,-0.0028
2768.0,-0.0028
2767.0,-0.0028
2766.0,-0.0027
2765.0,-0.0027
2764.0,-0.0026
2763.0,-0.0026
2762.0,-0.0026
2761.0,-0.0026
2760.0,-0.0026
2759.0,-0.0026
2758.0,-0.0026
2757.0,-0.0026
2756.0,-0.0025
2755.0,-0.0025
2754.0,-0.0025
2753.0,-0.0025
2752.0,-0.0025
2751.0,-0.0024
2750.0,-0.0024
2749.0,-0.0024
2748.0,-0.0024
2747.0,-0.0024
2746.0,-0.0024
2745.0,-0.0023
2744.0,-0.0023
2743.0,-0.0022
2742.0,-0.0023
2741.0,-0.0023
2740.0,-0.0024
2739.0,-0.0024
2738.0,-0.0024
2737.0,-0.0024
2736.0,-0.0023
2735.0,-0.0023
2734.0,-0.0023
2733.0,-0.0023
2732.0,-0.0022
2731.0,-0.0022
2730.0,-0.0022
2729.0,-0.0022
2728.0,-0.0022
2727.0,-0.0022
2726.0,-0.0022
2725.0,-0.0022
2724.0,-0.0022
2723.0,-0.0021
2722.0,-0.0021
2721.0,-0.0021
2720.0,-0.0021
2719.0,-0.0021
2718.0,-0.0022
2717.0,-0.0021
2716.0,-0.0021
2715.0,-0.0021
2714.0,-0.0021
2713.0,-0.002
2712.0,-0.002
2711.0,-0.0019
2710.0,-0.0019
2709.0,-0.0019
2708.0,-0.0018
2707.0,-0.0018
2706.0,-0.0017
2705.0,-0.0018
2704.0,-0.0018
2703.0,-0.0018
2702.0,-0.0018
2701.0,-0.0018
2700.0,-0.0017
2699.0,-0.0017
2698.0,-0.0017
2697.0,-0.0017
2696.0,-0.0017
2695.0,-0.0017
2694.0,-0.0017
2693.0,-0.0017
2692.0,-0.0016
2691.0,-0.0016
2690.0,-0.0017
2689.0,-0.0017
2688.0,-0.0017
2687.0,-0.0017
2686.0,-0.0017
2685.0,-0.0017
2684.0,-0.0017
2683.0,-0.0017
2682.0,-0.0016
2681.0,-0.0016
2680.0,-0.0016
2679.0,-0.0016
2678.0,-0.0016
2677.0,-0.0016
2676.0,-0.0016
2675.0,-0.0016
2674.0,-0.0015
2673.0,-0.0015
2672.0,-0.0014
2671.0,-0.0014
2670.0,-0.0015
2669.0,-0.0015
2668.0,-0.0014
2667.0,-0.0014
2666.0,-0.0014
2665.0,-0.0014
2664.0,-0.0014
2663.0,-0.0013
2662.0,-0.0013
2661.0,-0.0013
2660.0,-0.0013
2659.0,-0.0014
2658.0,-0.0013
2657.0,-0.0013
2656.0,-0.0012
2655.0,-0.0012
2654.0,-0.0011
2653.0,-0.0011
2652.0,-0.0011
2651.0,-0.0011
2650.0,-0.0012
2649.0,-0.0013
2648.0,-0.0013
2647.0,-0.0013
2646.0,-0.0012
2645.0,-0.0012
2644.0,-0.0011
2643.0,-0.0011
2642.0,-0.001
2641.0,-0.001
2640.0,-0.001
2639.0,-0.001
2638.0,-0.001
2637.0,-0.001
2636.0,-0.001
2635.0,-0.001
2634.0,-0.001
2633.0,-0.001
2632.0,-0.0009
2631.0,-0.0009
2630.0,-0.0009
2629.0,-0.001
2628.0,-0.001
2627.0,-0.0011
2626.0,-0.0011
2625.0,-0.0011
2624.0,-0.001
2623.0,-0.001
2622.0,-0.001
2621.0,-0.0011
2620.0,-0.0011
2619.0,-0.0011
2618.0,-0.0011
2617.0,-0.0011
2616.0,-0.001
2615.0,-0.001
2614.0,-0.001
2613.0,-0.001
2612.0,-0.001
2611.0,-0.001
2610.0,-0.001
2609.0,-0.001
2608.0,-0.001
2607.0,-0.001
2606.0,-0.001
2605.0,-0.0009
2604.0,-0.0009
2603.0,-0.0009
2602.0,-0.0009
2601.0,-0.0009
2600.0,-0.001
2599.0,-0.001
2598.0,-0.0009
2597.0,-0.0009
2596.0,-0.0009
2595.0,-0.0009
2594.0,-0.0009
2593.0,-0.001
2592.0,-0.0009
2591.0,-0.0009
2590.0,-0.0008
2589.0,-0.0008
2588.0,-0.0008
2587.0,-0.0008
2586.0,-0.0009
2585.0,-0.0009
2584.0,-0.001
2583.0,-0.0009
2582.0,-0.0009
2581.0,-0.0009
2580.0,-0.0009
2579.0,-0.0009
2578.0,-0.0009
2577.0,-0.0009
2576.0,-0.0009
2575.0,-0.0008
2574.0,-0.0008
2573.0,-0.0008
2572.0,-0.0008
2571.0,-0.0008
2570.0,-0.0008
2569.0,-0.0008
2568.0,-0.0008
2567.0,-0.0008
2566.0,-0.0008
2565.0,-0.0008
2564.0,-0.0007
2563.0,-0.0007
2562.0,-0.0006
2561.0,-0.0006
2560.0,-0.0007
2559.0,-0.0007
2558.0,-0.0007
2557.0,-0.0006
2556.0,-0.0007
2555.0,-0.0007
2554.0,-0.0007
2553.0,-0.0007
2552.0,-0.0007
2551.0,-0.0008
2550.0,-0.0008
2549.0,-0.0008
2548.0,-0.0008
2547.0,-0.0008
2546.0,-0.0008
2545.0,-0.0007
2544.0,-0.0007
2543.0,-0.0006
2542.0,-0.0006
2541.0,-0.0006
2540.0,-0.0006
2539.0,-0.0006
2538.0,-0.0007
2537.0,-0.0007
2536.0,-0.0007
2535.0,-0.0008
2534.0,-0.0008
2533.0,-0.0009
2532.0,-0.0009
2531.0,-0.0008
2530.0,-0.0008
2529.0,-0.0007
2528.0,-0.0007
2527.0,-0.0006
2526.0,-0.0006
2525.0,-0.0006
2524.0,-0.0006
2523.0,-0.0006
2522.0,-0.0006
2521.0,-0.0006
2520.0,-0.0006
2519.0,-0.0006
2518.0,-0.0006
2517.0,-0.0006
2516.0,-0.0006
2515.0,-0.0006
2514.0,-0.0007
2513.0,-0.0007
2512.0,-0.0007
2511.0,-0.0007
2510.0,-0.0007
2509.0,-0.0007
2508.0,-0.0008
2507.0,-0.0008
2506.0,-0.0008
2505.0,-0.0008
2504.0,-0.0008
2503.0,-0.0008
2502.0,-0.0007
2501.0,-0.0006
2500.0,-0.0006
2499.0,-0.0006
2498.0,-0.0006
2497.0,-0.0007
2496.0,-0.0007
2495.0,-0.0007
2494.0,-0.0008
2493.0,-0.0008
2492.0,-0.0008
2491.0,-0.0008
2490.0,-0.0009
2489.0,-0.0009
2488.0,-0.0009
2487.0,-0.0009
2486.0,-0.0009
2485.0,-0.0008
2484.0,-0.0008
2483.0,-0.0009
2482.0,-0.0009
2481.0,-0.001
2480.0,-0.001
2479.0,-0.001
2478.0,-0.0009
2477.0,-0.0009
2476.0,-0.0009
2475.0,-0.0009
2474.0,-0.0009
2473.0,-0.0008
2472.0,-0.0008
2471.0,-0.0008
2470.0,-0.0008
2469.0,-0.0008
2468.0,-0.0009
2467.0,-0.0009
2466.0,-0.0009
2465.0,-0.0009
2464.0,-0.0009
2463.0,-0.0009
2462.0,-0.0009
2461.0,-0.0009
2460.0,-0.0009
2459.0,-0.0009
2458.0,-0.0009
2457.0,-0.0009
2456.0,-0.0009
2455.0,-0.0009
2454.0,-0.001
2453.0,-0.0011
2452.0,-0.0011
2451.0,-0.0011
2450.0,-0.001
2449.0,-0.001
2448.0,-0.001
2447.0,-0.001
2446.0,-0.0011
2445.0,-0.0011
2444.0,-0.0012
2443.0,-0.0012
2442.0,-0.0013
2441.0,-0.0013
2440.0,-0.0012
2439.0,-0.0012
2438.0,-0.0012
2437.0,-0.0012
2436.0,-0.0011
2435.0,-0.0012
2434.0,-0.0012
2433.0,-0.0013
2432.0,-0.0013
2431.0,-0.0014
2430.0,-0.0013
2429.0,-0.0013
2428.0,-0.0012
2427.0,-0.0012
2426.0,-0.0012
2425.0,-0.0012
2424.0,-0.0013
2423.0,-0.0013
2422.0,-0.0013
2421.0,-0.0013
2420.0,-0.0012
2419.0,-0.0012
2418.0,-0.0012
2417.0,-0.0013
2416.0,-0.0013
2415.0,-0.0014
2414.0,-0.0014
2413.0,-0.0015
2412.0,-0.0015
2411.0,-0.0015
2410.0,-0.0015
2409.0,-0.0015
2408.0,-0.0015
2407.0,-0.0015
2406.0,-0.0015
2405.0,-0.0015
2404.0,-0.0015
2403.0,-0.0015
2402.0,-0.0015
2401.0,-0.0015
2400.0,-0.0015
2399.0,-0.0015
2398.0,-0.0015
2397.0,-0.0015
2396.0,-0.0015
2395.0,-0.0015
2394.0,-0.0015
2393.0,-0.0015
2392.0,-0.0015
2391.0,-0.0015
2390.0,-0.0016
2389.0,-0.0017
2388.0,-0.0018
2387.0,-0.0018
2386.0,-0.0018
2385.0,-0.0018
2384.0,-0.0017
2383.0,-0.0016
2382.0,-0.0015
2381.0,-0.0014
2380.0,-0.0013
2379.0,-0.0012
2378.0,-0.001
2377.0,-0.0008
2376.0,-0.0006
2375.0,-0.0004
2374.0,-0.0004
2373.0,-0.0005
2372.0,-0.0007
2371.0,-0.0011
2370.0,-0.0015
2369.0,-0.0014
2368.0,-0.0006
2367.0,0.0008
2366.0,0.0021
2365.0,0.0025
2364.0,0.0014
2363.0,-0.0004
2362.0,-0.0016
2361.0,-0.0015
2360.0,-0.0006
2359.0,-0.0001
2358.0,-0.0004
2357.0,-0.0006
2356.0,-0.0003
2355.0,0.0005
2354.0,0.0012
2353.0,0.0013
2352.0,0.001
2351.0,0.0005
2350.0,0.0001
2349.0,-0.0
2348.0,0.0001
2347.0,0.0003
2346.0,0.0004
2345.0,0.0003
2344.0,0.0001
2343.0,-0.0
2342.0,-0.0001
2341.0,-0.0001
2340.0,-0.0002
2339.0,-0.0001
2338.0,0.0002
2337.0,0.0005
2336.0,0.0009
2335.0,0.0011
2334.0,0.001
2333.0,0.0007
2332.0,0.0004
2331.0,0.0002
2330.0,0.0001
2329.0,-0.0002
2328.0,-0.0005
2327.0,-0.0007
2326.0,-0.0007
2325.0,-0.0006
2324.0,-0.0005
2323.0,-0.0006
2322.0,-0.0008
2321.0,-0.0009
2320.0,-0.0009
2319.0,-0.0009
2318.0,-0.0009
2317.0,-0.0009
2316.0,-0.001
2315.0,-0.001
2314.0,-0.0011
2313.0,-0.0012
2312.0,-0.0013
2311.0,-0.0015
2310.0,-0.0017
2309.0,-0.0017
2308.0,-0.0017
2307.0,-0.0017
2306.0,-0.0017
2305.0,-0.0017
2304.0,-0.0018
2303.0,-0.0019
2302.0,-0.0019
2301.0,-0.0018
2300.0,-0.0017
2299.0,-0.0016
2298.0,-0.0016
2297.0,-0.0016
2296.0,-0.0017
2295.0,-0.0017
2294.0,-0.0018
2293.0,-0.0018
2292.0,-0.0019
2291.0,-0.002
2290.0,-0.002
2289.0,-0.0019
2288.0,-0.0019
2287.0,-0.0019
2286.0,-0.002
2285.0,-0.0021
2284.0,-0.0021
2283.0,-0.002
2282.0,-0.002
2281.0,-0.0019
2280.0,-0.0018
2279.0,-0.0018
2278.0,-0.0017
2277.0,-0.0017
2276.0,-0.0017
2275.0,-0.0017
2274.0,-0.0017
2273.0,-0.0017
2272.0,-0.0017
2271.0,-0.0017
2270.0,-0.0017
2269.0,-0.0018
2268.0,-0.0018
2267.0,-0.0018
2266.0,-0.0018
2265.0,-0.0017
2264.0,-0.0017
2263.0,-0.0017
2262.0,-0.0017
2261.0,-0.0018
2260.0,-0.0017
2259.0,-0.0017
2258.0,-0.0017
2257.0,-0.0017
2256.0,-0.0016
2255.0,-0.0016
2254.0,-0.0016
2253.0,-0.0017
2252.0,-0.0017
2251.0,-0.0018
2250.0,-0.0018
2249.0,-0.0018
2248.0,-0.0017
2247.0,-0.0017
2246.0,-0.0017
2245.0,-0.0017
2244.0,-0.0017
2243.0,-0.0016
2242.0,-0.0016
2241.0,-0.0016
2240.0,-0.0016
2239.0,-0.0017
2238.0,-0.0018
2237.0,-0.0018
2236.0,-0.0018
2235.0,-0.0018
2234.0,-0.0018
2233.0,-0.0018
2232.0,-0.0017
2231.0,-0.0017
2230.0,-0.0018
2229.0,-0.0018
2228.0,-0.0018
2227.0,-0.0018
2226.0,-0.0018
2225.0,-0.0018
2224.0,-0.0018
2223.0,-0.0017
2222.0,-0.0017
2221.0,-0.0017
2220.0,-0.0017
2219.0,-0.0017
2218.0,-0.0017
2217.0,-0.0017
2216.0,-0.0017
2215.0,-0.0016
2214.0,-0.0017
2213.0,-0.0017
2212.0,-0.0017
2211.0,-0.0016
2210.0,-0.0016
2209.0,-0.0017
2208.0,-0.0017
2207.0,-0.0017
2206.0,-0.0017
2205.0,-0.0017
2204.0,-0.0017
2203.0,-0.0016
2202.0,-0.0016
2201.0,-0.0016
2200.0,-0.0016
2199.0,-0.0017
2198.0,-0.0017
2197.0,-0.0018
2196.0,-0.0018
2195.0,-0.0017
2194.0,-0.0017
2193.0,-0.0017
2192.0,-0.0017
2191.0,-0.0018
2190.0,-0.0018
2189.0,-0.0019
2188.0,-0.0019
2187.0,-0.0019
2186.0,-0.0018
2185.0,-0.0018
2184.0,-0.0018
2183.0,-0.0018
2182.0,-0.0017
2181.0,-0.0018
2180.0,-0.0018
2179.0,-0.0018
2178.0,-0.0018
2177.0,-0.0018
2176.0,-0.0017
2175.0,-0.0018
2174.0,-0.0018
2173.0,-0.0019
2172.0,-0.0019
2171.0,-0.0019
2170.0,-0.0019
2169.0,-0.0018
2168.0,-0.0018
2167.0,-0.0018
2166.0,-0.0019
2165.0,-0.0019
2164.0,-0.002
2163.0,-0.002
2162.0,-0.002
2161.0,-0.0021
2160.0,-0.0021
2159.0,-0.0021
2158.0,-0.0021
2157.0,-0.0021
2156.0,-0.0021
2155.0,-0.0021
2154.0,-0.0021
2153.0,-0.0021
2152.0,-0.0021
2151.0,-0.0021
2150.0,-0.0021
2149.0,-0.0021
2148.0,-0.0021
2147.0,-0.0021
2146.0,-0.0021
2145.0,-0.002
2144.0,-0.002
2143.0,-0.002
2142.0,-0.002
2141.0,-0.002
2140.0,-0.002
2139.0,-0.002
2138.0,-0.002
2137.0,-0.002
2136.0,-0.002
2135.0,-0.002
2134.0,-0.002
2133.0,-0.002
2132.0,-0.002
2131.0,-0.002
2130.0,-0.002
2129.0,-0.0021
2128.0,-0.0021
2127.0,-0.0021
2126.0,-0.0021
2125.0,-0.0021
2124.0,-0.0021
2123.0,-0.0021
2122.0,-0.0021
2121.0,-0.0021
2120.0,-0.0021
2119.0,-0.0021
2118.0,-0.0021
2117.0,-0.0021
2116.0,-0.0021
2115.0,-0.0021
2114.0,-0.0022
2113.0,-0.0022
2112.0,-0.0022
2111.0,-0.0021
2110.0,-0.0021
2109.0,-0.0021
2108.0,-0.0021
2107.0,-0.0021
2106.0,-0.0021
2105.0,-0.0021
2104.0,-0.0022
2103.0,-0.0022
2102.0,-0.0023
2101.0,-0.0023
2100.0,-0.0022
2099.0,-0.0022
2098.0,-0.0022
2097.0,-0.0022
2096.0,-0.0022
2095.0,-0.0023
2094.0,-0.0023
2093.0,-0.0024
2092.0,-0.0024
2091.0,-0.0024
2090.0,-0.0024
2089.0,-0.0024
2088.0,-0.0024
2087.0,-0.0024
2086.0,-0.0024
2085.0,-0.0024
2084.0,-0.0024
2083.0,-0.0024
2082.0,-0.0024
2081.0,-0.0024
2080.0,-0.0024
2079.0,-0.0025
2078.0,-0.0025
2077.0,-0.0025
2076.0,-0.0025
2075.0,-0.0024
2074.0,-0.0024
2073.0,-0.0024
2072.0,-0.0024
2071.0,-0.0025
2070.0,-0.0025
2069.0,-0.0025
2068.0,-0.0024
2067.0,-0.0024
2066.0,-0.0024
2065.0,-0.0024
2064.0,-0.0024
2063.0,-0.0024
2062.0,-0.0024
2061.0,-0.0024
2060.0,-0.0025
2059.0,-0.0024
2058.0,-0.0024
2057.0,-0.0024
2056.0,-0.0024
2055.0,-0.0023
2054.0,-0.0023
2053.0,-0.0022
2052.0,-0.0023
2051.0,-0.0023
2050.0,-0.0023
2049.0,-0.0024
2048.0,-0.0023
2047.0,-0.0023
2046.0,-0.0023
2045.0,-0.0023
2044.0,-0.0022
2043.0,-0.0023
2042.0,-0.0023
2041.0,-0.0023
2040.0,-0.0023
2039.0,-0.0023
2038.0,-0.0023
2037.0,-0.0023
2036.0,-0.0023
2035.0,-0.0023
2034.0,-0.0023
2033.0,-0.0023
2032.0,-0.0023
2031.0,-0.0023
2030.0,-0.0023
2029.0,-0.0023
2028.0,-0.0023
2027.0,-0.0022
2026.0,-0.0022
2025.0,-0.0022
2024.0,-0.0022
2023.0,-0.0022
2022.0,-0.0022
2021.0,-0.0022
2020.0,-0.0022
2019.0,-0.0022
2018.0,-0.0021
2017.0,-0.0021
2016.0,-0.0021
2015.0,-0.0021
2014.0,-0.0021
2013.0,-0.0021
2012.0,-0.002
2011.0,-0.002
2010.0,-0.002
2009.0,-0.002
2008.0,-0.0019
2007.0,-0.0019
2006.0,-0.0019
2005.0,-0.0019
2004.0,-0.0019
2003.0,-0.0019
2002.0,-0.0018
2001.0,-0.0019
2000.0,-0.0019
1999.0,-0.0019
1998.0,-0.0019
1997.0,-0.002
1996.0,-0.002
1995.0,-0.002
1994.0,-0.002
1993.0,-0.0019
1992.0,-0.0018
1991.0,-0.0018
1990.0,-0.0017
1989.0,-0.0018
1988.0,-0.0018
1987.0,-0.0018
1986.0,-0.0018
1985.0,-0.0018
1984.0,-0.0017
1983.0,-0.0017
1982.0,-0.0017
1981.0,-0.0017
1980.0,-0.0017
1979.0,-0.0017
1978.0,-0.0017
1977.0,-0.0017
1976.0,-0.0017
1975.0,-0.0017
1974.0,-0.0017
1973.0,-0.0017
1972.0,-0.0017
1971.0,-0.0017
1970.0,-0.0016
1969.0,-0.0016
1968.0,-0.0016
1967.0,-0.0016
1966.0,-0.0016
1965.0,-0.0016
1964.0,-0.0015
1963.0,-0.0015
1962.0,-0.0015
1961.0,-0.0016
1960.0,-0.0016
1959.0,-0.0016
1958.0,-0.0016
1957.0,-0.0016
1956.0,-0.0016
1955.0,-0.0016
1954.0,-0.0016
1953.0,-0.0015
1952.0,-0.0015
1951.0,-0.0015
1950.0,-0.0015
1949.0,-0.0015
1948.0,-0.0015
1947.0,-0.0014
1946.0,-0.0014
1945.0,-0.0015
1944.0,-0.0015
1943.0,-0.0015
1942.0,-0.0016
1941.0,-0.0015
1940.0,-0.0015
1939.0,-0.0014
1938.0,-0.0014
1937.0,-0.0014
1936.0,-0.0014
1935.0,-0.0014
1934.0,-0.0013
1933.0,-0.0013
1932.0,-0.0013
1931.0,-0.0014
1930.0,-0.0014
1929.0,-0.0013
1928.0,-0.0013
1927.0,-0.0013
1926.0,-0.0013
1925.0,-0.0013
1924.0,-0.0013
1923.0,-0.0013
1922.0,-0.0012
1921.0,-0.0012
1920.0,-0.0012
1919.0,-0.0013
1918.0,-0.0013
1917.0,-0.0013
1916.0,-0.0013
1915.0,-0.0013
1914.0,-0.0013
1913.0,-0.0013
1912.0,-0.0012
1911.0,-0.0012
1910.0,-0.0012
1909.0,-0.0011
1908.0,-0.0011
1907.0,-0.0012
1906.0,-0.0012
1905.0,-0.0012
1904.0,-0.0012
1903.0,-0.0012
1902.0,-0.0012
1901.0,-0.0012
1900.0,-0.0012
1899.0,-0.0011
1898.0,-0.0011
1897.0,-0.0011
1896.0,-0.0011
1895.0,-0.0011
1894.0,-0.0011
1893.0,-0.0011
1892.0,-0.0011
1891.0,-0.0011
1890.0,-0.0011
1889.0,-0.0011
1888.0,-0.0011
1887.0,-0.0011
1886.0,-0.0011
1885.0,-0.0011
1884.0,-0.0011
1883.0,-0.0011
1882.0,-0.0011
1881.0,-0.0011
1880.0,-0.0011
1879.0,-0.0011
1878.0,-0.0011
1877.0,-0.0011
1876.0,-0.001
1875.0,-0.0011
1874.0,-0.0011
1873.0,-0.0011
1872.0,-0.0012
1871.0,-0.0011
1870.0,-0.0011
1869.0,-0.001
1868.0,-0.0009
1867.0,-0.0009
1866.0,-0.0009
1865.0,-0.001
1864.0,-0.0011
1863.0,-0.0011
1862.0,-0.0011
1861.0,-0.001
1860.0,-0.001
1859.0,-0.001
1858.0,-0.001
1857.0,-0.001
1856.0,-0.0009
1855.0,-0.001
1854.0,-0.001
1853.0,-0.001
1852.0,-0.001
1851.0,-0.0011
1850.0,-0.0011
1849.0,-0.0011
1848.0,-0.0011
1847.0,-0.001
1846.0,-0.0009
1845.0,-0.0009
1844.0,-0.0009
1843.0,-0.0009
1842.0,-0.0009
1841.0,-0.0009
1840.0,-0.0009
1839.0,-0.0009
1838.0,-0.0009
1837.0,-0.0009
1836.0,-0.0009
1835.0,-0.0009
1834.0,-0.0009
1833.0,-0.0008
1832.0,-0.0008
1831.0,-0.0009
1830.0,-0.0009
1829.0,-0.0009
1828.0,-0.0009
1827.0,-0.0009
1826.0,-0.0009
1825.0,-0.0009
1824.0,-0.001
1823.0,-0.001
1822.0,-0.0009
1821.0,-0.0009
1820.0,-0.0009
1819.0,-0.0009
1818.0,-0.0009
1817.0,-0.0009
1816.0,-0.0009
1815.0,-0.0009
1814.0,-0.0009
1813.0,-0.001
1812.0,-0.001
1811.0,-0.001
1810.0,-0.0009
1809.0,-0.0008
1808.0,-0.0008
1807.0,-0.0009
1806.0,-0.0009
1805.0,-0.001
1804.0,-0.001
1803.0,-0.001
1802.0,-0.0009
1801.0,-0.0009
1800.0,-0.0008
1799.0,-0.0009
1798.0,-0.0009
1797.0,-0.0009
1796.0,-0.001
1795.0,-0.001
1794.0,-0.001
1793.0,-0.001
1792.0,-0.001
1791.0,-0.001
1790.0,-0.001
1789.0,-0.0009
1788.0,-0.001
1787.0,-0.001
1786.0,-0.001
1785.0,-0.001
1784.0,-0.001
1783.0,-0.001
1782.0,-0.001
1781.0,-0.001
1780.0,-0.0011
1779.0,-0.0011
1778.0,-0.0011
1777.0,-0.0011
1776.0,-0.0011
1775.0,-0.0011
1774.0,-0.0011
1773.0,-0.0011
1772.0,-0.0012
1771.0,-0.0012
1770.0,-0.0012
1769.0,-0.0011
1768.0,-0.0011
1767.0,-0.0012
1766.0,-0.0012
1765.0,-0.0012
1764.0,-0.0012
1763.0,-0.0012
1762.0,-0.0012
1761.0,-0.0013
1760.0,-0.0013
1759.0,-0.0013
1758.0,-0.0013
1757.0,-0.0014
1756.0,-0.0014
1755.0,-0.0014
1754.0,-0.0014
1753.0,-0.0015
1752.0,-0.0015
1751.0,-0.0015
1750.0,-0.0015
1749.0,-0.0015
1748.0,-0.0016
1747.0,-0.0016
1746.0,-0.0017
1745.0,-0.0018
1744.0,-0.0018
1743.0,-0.0019
1742.0,-0.0019
1741.0,-0.0019
1740.0,-0.0019
1739.0,-0.0019
1738.0,-0.002
1737.0,-0.002
1736.0,-0.0021
1735.0,-0.0021
1734.0,-0.0022
1733.0,-0.0023
1732.0,-0.0024
1731.0,-0.0026
1730.0,-0.0027
1729.0,-0.0028
1728.0,-0.0029
1727.0,-0.0029
1726.0,-0.003
1725.0,-0.0031
1724.0,-0.0032
1723.0,-0.0034
1722.0,-0.0035
1721.0,-0.0036
1720.0,-0.0037
1719.0,-0.0038
1718.0,-0.004
1717.0,-0.0042
1716.0,-0.0043
1715.0,-0.0044
1714.0,-0.0046
1713.0,-0.0048
1712.0,-0.005
1711.0,-0.0052
1710.0,-0.0054
1709.0,-0.0055
1708.0,-0.0057
1707.0,-0.0059
1706.0,-0.0061
1705.0,-0.0064
1704.0,-0.0066
1703.0,-0.0068
1702.0,-0.007
1701.0,-0.0073
1700.0,-0.0077
1699.0,-0.0079
1698.0,-0.008
1697.0,-0.0082
1696.0,-0.0084
1695.0,-0.0087
1694.0,-0.009
1693.0,-0.0092
1692.0,-0.0094
1691.0,-0.0096
1690.0,-0.0099
1689.0,-0.0102
1688.0,-0.0104
1687.0,-0.0106
1686.0,-0.0107
1685.0,-0.011
1684.0,-0.0116
1683.0,-0.0122
1682.0,-0.0127
1681.0,-0.0134
1680.0,-0.0141
1679.0,-0.0148
1678.0,-0.0154
1677.0,-0.0161
1676.0,-0.017
1675.0,-0.0181
1674.0,-0.0189
1673.0,-0.0195
1672.0,-0.0202
1671.0,-0.021
1670.0,-0.0219
1669.0,-0.0228
1668.0,-0.0235
1667.0,-0.024
1666.0,-0.0244
1665.0,-0.0248
1664.0,-0.0255
1663.0,-0.0262
1662.0,-0.027
1661.0,-0.0276
1660.0,-0.0281
1659.0,-0.0286
1658.0,-0.029
1657.0,-0.0293
1656.0,-0.0295
1655.0,-0.0297
1654.0,-0.0302
1653.0,-0.0311
1652.0,-0.0318
1651.0,-0.0321
1650.0,-0.0322
1649.0,-0.0322
1648.0,-0.0323
1647.0,-0.0324
1646.0,-0.0324
1645.0,-0.0324
1644.0,-0.0324
1643.0,-0.0325
1642.0,-0.0325
1641.0,-0.0326
1640.0,-0.0326
1639.0,-0.0327
1638.0,-0.0326
1637.0,-0.0326
1636.0,-0.0328
1635.0,-0.0329
1634.0,-0.0329
1633.0,-0.0327
1632.0,-0.0325
1631.0,-0.0323
1630.0,-0.0319
1629.0,-0.0314
1628.0,-0.0308
1627.0,-0.0304
1626.0,-0.0299
1625.0,-0.0294
1624.0,-0.0288
1623.0,-0.0283
1622.0,-0.0279
1621.0,-0.0275
1620.0,-0.0273
1619.0,-0.027
1618.0,-0.0266
1617.0,-0.0263
1616.0,-0.0261
1615.0,-0.0259
1614.0,-0.0258
1613.0,-0.0255
1612.0,-0.0253
1611.0,-0.025
1610.0,-0.0247
1609.0,-0.0243
1608.0,-0.0239
1607.0,-0.0236
1606.0,-0.0232
1605.0,-0.0228
1604.0,-0.0224
1603.0,-0.0219
1602.0,-0.0215
1601.0,-0.0211
1600.0,-0.0207
1599.0,-0.0204
1598.0,-0.02
1597.0,-0.0196
1596.0,-0.0192
1595.0,-0.0189
1594.0,-0.0185
1593.0,-0.0181
1592.0,-0.0177
1591.0,-0.0173
1590.0,-0.017
1589.0,-0.0166
1588.0,-0.0163
1587.0,-0.016
1586.0,-0.0157
1585.0,-0.0154
1584.0,-0.0151
1583.0,-0.0148
1582.0,-0.0145
1581.0,-0.0143
1580.0,-0.0141
1579.0,-0.0139
1578.0,-0.0137
1577.0,-0.0134
1576.0,-0.013
1575.0,-0.0127
1574.0,-0.0125
1573.0,-0.0124
1572.0,-0.0122
1571.0,-0.012
1570.0,-0.0118
1569.0,-0.0116
1568.0,-0.0115
1567.0,-0.0113
1566.0,-0.0111
1565.0,-0.0109
1564.0,-0.0107
1563.0,-0.0105
1562.0,-0.0104
1561.0,-0.0101
1560.0,-0.0099
1559.0,-0.0097
1558.0,-0.0095
1557.0,-0.0095
1556.0,-0.0095
1555.0,-0.0095
1554.0,-0.0095
1553.0,-0.0094
1552.0,-0.0092
1551.0,-0.0091
1550.0,-0.009
1549.0,-0.0089
1548.0,-0.0088
1547.0,-0.0087
1546.0,-0.0086
1545.0,-0.0085
1544.0,-0.0083
1543.0,-0.0082
1542.0,-0.0082
1541.0,-0.0081
1540.0,-0.008
1539.0,-0.0078
1538.0,-0.0078
1537.0,-0.0077
1536.0,-0.0077
1535.0,-0.0076
1534.0,-0.0076
1533.0,-0.0075
1532.0,-0.0075
1531.0,-0.0074
1530.0,-0.0073
1529.0,-0.0073
1528.0,-0.0072
1527.0,-0.0072
1526.0,-0.0072
1525.0,-0.0072
1524.0,-0.0073
1523.0,-0.0073
1522.0,-0.0073
1521.0,-0.0072
1520.0,-0.0071
1519.0,-0.007
1518.0,-0.007
1517.0,-0.007
1516.0,-0.007
1515.0,-0.0069
1514.0,-0.0068
1513.0,-0.0068
1512.0,-0.0067
1511.0,-0.0066
1510.0,-0.0066
1509.0,-0.0065
1508.0,-0.0064
1507.0,-0.0063
1506.0,-0.0062
1505.0,-0.0062
1504.0,-0.0063
1503.0,-0.0064
1502.0,-0.0064
1501.0,-0.0064
1500.0,-0.0064
1499.0,-0.0064
1498.0,-0.0064
1497.0,-0.0064
1496.0,-0.0064
1495.0,-0.0063
1494.0,-0.0063
1493.0,-0.0063
1492.0,-0.0063
1491.0,-0.0063
1490.0,-0.0062
1489.0,-0.0062
1488.0,-0.0062
1487.0,-0.0062
1486.0,-0.0062
1485.0,-0.0062
1484.0,-0.0062
1483.0,-0.0061
1482.0,-0.0062
1481.0,-0.0062
1480.0,-0.0062
1479.0,-0.0062
1478.0,-0.0062
1477.0,-0.0062
1476.0,-0.0061
1475.0,-0.0061
1474.0,-0.006
1473.0,-0.006
1472.0,-0.0059
1471.0,-0.0059
1470.0,-0.006
1469.0,-0.006
1468.0,-0.006
1467.0,-0.0061
1466.0,-0.0061
1465.0,-0.0061
1464.0,-0.006
1463.0,-0.006
1462.0,-0.006
1461.0,-0.006
1460.0,-0.006
1459.0,-0.006
1458.0,-0.0061
1457.0,-0.0062
1456.0,-0.0062
1455.0,-0.0063
1454.0,-0.0063
1453.0,-0.0062
1452.0,-0.0062
1451.0,-0.0062
1450.0,-0.0062
1449.0,-0.0063
1448.0,-0.0063
1447.0,-0.0063
1446.0,-0.0063
1445.0,-0.0063
1444.0,-0.0062
1443.0,-0.0062
1442.0,-0.0062
1441.0,-0.0062
1440.0,-0.0062
1439.0,-0.0062
1438.0,-0.0062
1437.0,-0.0062
1436.0,-0.0062
1435.0,-0.0062
1434.0,-0.0062
1433.0,-0.0062
1432.0,-0.0062
1431.0,-0.0061
1430.0,-0.0061
1429.0,-0.0061
1428.0,-0.006
1427.0,-0.006
1426.0,-0.006
1425.0,-0.006
1424.0,-0.006
1423.0,-0.006
1422.0,-0.0059
1421.0,-0.0059
1420.0,-0.0058
1419.0,-0.0059
1418.0,-0.0059
1417.0,-0.0059
1416.0,-0.0058
1415.0,-0.0058
1414.0,-0.0057
1413.0,-0.0056
1412.0,-0.0056
1411.0,-0.0056
1410.0,-0.0056
1409.0,-0.0057
1408.0,-0.0057
1407.0,-0.0057
1406.0,-0.0058
1405.0,-0.0059
1404.0,-0.006
1403.0,-0.006
1402.0,-0.0061
1401.0,-0.0061
1400.0,-0.0061
1399.0,-0.0061
1398.0,-0.0062
1397.0,-0.0062
1396.0,-0.0062
1395.0,-0.0063
1394.0,-0.0063
1393.0,-0.0063
1392.0,-0.0063
1391.0,-0.0063
1390.0,-0.0062
1389.0,-0.0062
1388.0,-0.0063
1387.0,-0.0063
1386.0,-0.0064
1385.0,-0.0064
1384.0,-0.0064
1383.0,-0.0064
1382.0,-0.0065
1381.0,-0.0065
1380.0,-0.0065
1379.0,-0.0066
1378.0,-0.0066
1377.0,-0.0066
1376.0,-0.0066
1375.0,-0.0065
1374.0,-0.0065
1373.0,-0.0065
1372.0,-0.0064
1371.0,-0.0064
1370.0,-0.0063
1369.0,-0.0063
1368.0,-0.0062
1367.0,-0.0062
1366.0,-0.0061
1365.0,-0.0061
1364.0,-0.006
1363.0,-0.006
1362.0,-0.0059
1361.0,-0.0059
1360.0,-0.0058
1359.0,-0.0058
1358.0,-0.0057
1357.0,-0.0057
1356.0,-0.0056
1355.0,-0.0056
1354.0,-0.0056
1353.0,-0.0055
1352.0,-0.0055
1351.0,-0.0054
1350.0,-0.0053
1349.0,-0.0053
1348.0,-0.0052
1347.0,-0.0051
1346.0,-0.0051
1345.0,-0.0051
1344.0,-0.0051
1343.0,-0.0051
1342.0,-0.0051
1341.0,-0.0051
1340.0,-0.0051
1339.0,-0.0051
1338.0,-0.005
1337.0,-0.005
1336.0,-0.0049
1335.0,-0.0049
1334.0,-0.0049
1333.0,-0.0049
1332.0,-0.0048
1331.0,-0.0048
1330.0,-0.0048
1329.0,-0.0048
1328.0,-0.0048
1327.0,-0.0048
1326.0,-0.0048
1325.0,-0.0047
1324.0,-0.0047
1323.0,-0.0047
1322.0,-0.0046
1321.0,-0.0046
1320.0,-0.0047
1319.0,-0.0047
1318.0,-0.0047
1317.0,-0.0046
1316.0,-0.0046
1315.0,-0.0046
1314.0,-0.0045
1313.0,-0.0045
1312.0,-0.0045
1311.0,-0.0045
1310.0,-0.0045
1309.0,-0.0044
1308.0,-0.0043
1307.0,-0.0043
1306.0,-0.0043
1305.0,-0.0043
1304.0,-0.0043
1303.0,-0.0043
1302.0,-0.0043
1301.0,-0.0043
1300.0,-0.0042
1299.0,-0.0042
1298.0,-0.0042
1297.0,-0.0042
1296.0,-0.0042
1295.0,-0.0042
1294.0,-0.0042
1293.0,-0.0041
1292.0,-0.0041
1291.0,-0.0041
1290.0,-0.0041
1289.0,-0.004
1288.0,-0.004
1287.0,-0.004
1286.0,-0.004
1285.0,-0.0039
1284.0,-0.0039
1283.0,-0.0039
1282.0,-0.0039
1281.0,-0.0039
1280.0,-0.0039
1279.0,-0.0039
1278.0,-0.0038
1277.0,-0.0038
1276.0,-0.0038
1275.0,-0.0038
1274.0,-0.0038
1273.0,-0.0038
1272.0,-0.0037
1271.0,-0.0037
1270.0,-0.0037
1269.0,-0.0037
1268.0,-0.0037
1267.0,-0.0037
1266.0,-0.0036
1265.0,-0.0036
1264.0,-0.0036
1263.0,-0.0036
1262.0,-0.0036
1261.0,-0.0036
1260.0,-0.0035
1259.0,-0.0035
1258.0,-0.0034
1257.0,-0.0034
1256.0,-0.0034
1255.0,-0.0033
1254.0,-0.0033
1253.0,-0.0032
1252.0,-0.0031
1251.0,-0.0031
1250.0,-0.0031
1249.0,-0.003
1248.0,-0.003
1247.0,-0.003
1246.0,-0.0029
1245.0,-0.0028
1244.0,-0.0028
1243.0,-0.0027
1242.0,-0.0027
1241.0,-0.0026
1240.0,-0.0026
1239.0,-0.0027
1238.0,-0.0027
1237.0,-0.0027
1236.0,-0.0026
1235.0,-0.0025
1234.0,-0.0024
1233.0,-0.0023
1232.0,-0.0022
1231.0,-0.0022
1230.0,-0.0021
1229.0,-0.0021
1228.0,-0.0021
1227.0,-0.0021
1226.0,-0.0021
1225.0,-0.002
1224.0,-0.0019
1223.0,-0.0018
1222.0,-0.0018
1221.0,-0.0018
1220.0,-0.0018
1219.0,-0.0018
1218.0,-0.0017
1217.0,-0.0016
1216.0,-0.0015
1215.0,-0.0015
1214.0,-0.0015
1213.0,-0.0015
1212.0,-0.0014
1211.0,-0.0014
1210.0,-0.0014
1209.0,-0.0013
1208.0,-0.0012
1207.0,-0.0012
1206.0,-0.0011
1205.0,-0.001
1204.0,-0.001
1203.0,-0.001
1202.0,-0.001
1201.0,-0.001
1200.0,-0.001
1199.0,-0.001
1198.0,-0.0009
1197.0,-0.0009
1196.0,-0.0008
1195.0,-0.0009
1194.0,-0.0009
1193.0,-0.001
1192.0,-0.0011
1191.0,-0.0011
1190.0,-0.0011
1189.0,-0.0012
1188.0,-0.0012
1187.0,-0.0013
1186.0,-0.0013
1185.0,-0.0014
1184.0,-0.0014
1183.0,-0.0014
1182.0,-0.0015
1181.0,-0.0015
1180.0,-0.0015
1179.0,-0.0016
1178.0,-0.0017
1177.0,-0.0018
1176.0,-0.0019
1175.0,-0.0019
1174.0,-0.002
1173.0,-0.002
1172.0,-0.0021
1171.0,-0.0021
1170.0,-0.0021
1169.0,-0.0021
1168.0,-0.0021
1167.0,-0.0021
1166.0,-0.0021
1165.0,-0.0021
1164.0,-0.002
1163.0,-0.0019
1162.0,-0.0018
1161.0,-0.0017
1160.0,-0.0017
1159.0,-0.0017
1158.0,-0.0018
1157.0,-0.0019
1156.0,-0.002
1155.0,-0.002
1154.0,-0.0021
1153.0,-0.0022
1152.0,-0.0022
1151.0,-0.0023
1150.0,-0.0024
1149.0,-0.0026
1148.0,-0.0027
1147.0,-0.0028
1146.0,-0.0029
1145.0,-0.003
1144.0,-0.0031
1143.0,-0.0033
1142.0,-0.0034
1141.0,-0.0036
1140.0,-0.0038
1139.0,-0.004
1138.0,-0.0043
1137.0,-0.0047
1136.0,-0.0051
1135.0,-0.0056
1134.0,-0.0061
1133.0,-0.0065
1132.0,-0.0068
1131.0,-0.0071
1130.0,-0.0075
1129.0,-0.0079
1128.0,-0.0083
1127.0,-0.0086
1126.0,-0.0089
1125.0,-0.0091
1124.0,-0.0092
1123.0,-0.0092
1122.0,-0.0091
1121.0,-0.009
1120.0,-0.0089
1119.0,-0.0088
1118.0,-0.0085
1117.0,-0.0082
1116.0,-0.0078
1115.0,-0.0074
1114.0,-0.007
1113.0,-0.0066
1112.0,-0.0061
1111.0,-0.0057
1110.0,-0.0054
1109.0,-0.0051
1108.0,-0.0049
1107.0,-0.0046
1106.0,-0.0044
1105.0,-0.0042
1104.0,-0.0041
1103.0,-0.0041
1102.0,-0.004
1101.0,-0.004
1100.0,-0.004
1099.0,-0.0041
1098.0,-0.0042
1097.0,-0.0041
1096.0,-0.0041
1095.0,-0.004
1094.0,-0.004
1093.0,-0.004
1092.0,-0.0039
1091.0,-0.0039
1090.0,-0.0038
1089.0,-0.0038
1088.0,-0.0039
1087.0,-0.0039
1086.0,-0.004
1085.0,-0.004
1084.0,-0.004
1083.0,-0.0039
1082.0,-0.0038
1081.0,-0.0037
1080.0,-0.0037
1079.0,-0.0037
1078.0,-0.0037
1077.0,-0.0037
1076.0,-0.0037
1075.0,-0.0036
1074.0,-0.0034
1073.0,-0.0032
1072.0,-0.0031
1071.0,-0.0029
1070.0,-0.0028
1069.0,-0.0026
1068.0,-0.0025
1067.0,-0.0024
1066.0,-0.0024
1065.0,-0.0022
1064.0,-0.0021
1063.0,-0.002
1062.0,-0.0019
1061.0,-0.0019
1060.0,-0.0018
1059.0,-0.0018
1058.0,-0.0018
1057.0,-0.0018
1056.0,-0.0019
1055.0,-0.0018
1054.0,-0.0018
1053.0,-0.0018
1052.0,-0.0017
1051.0,-0.0016
1050.0,-0.0016
1049.0,-0.0017
1048.0,-0.0017
1047.0,-0.0017
1046.0,-0.0016
1045.0,-0.0015
1044.0,-0.0015
1043.0,-0.0015
1042.0,-0.0016
1041.0,-0.0017
1040.0,-0.0017
1039.0,-0.0018
1038.0,-0.0018
1037.0,-0.0018
1036.0,-0.0018
1035.0,-0.0018
1034.0,-0.0017
1033.0,-0.0017
1032.0,-0.0017
1031.0,-0.0017
1030.0,-0.0017
1029.0,-0.0017
1028.0,-0.0017
1027.0,-0.0017
1026.0,-0.0017
1025.0,-0.0018
1024.0,-0.0018
1023.0,-0.0018
1022.0,-0.0019
1021.0,-0.002
1020.0,-0.0021
1019.0,-0.0021
1018.0,-0.0021
1017.0,-0.0021
1016.0,-0.0021
1015.0,-0.0022
1014.0,-0.0023
1013.0,-0.0024
1012.0,-0.0024
1011.0,-0.0024
1010.0,-0.0022
1009.0,-0.002
1008.0,-0.0017
1007.0,-0.0014
1006.0,-0.0013
1005.0,-0.0014
1004.0,-0.0016
1003.0,-0.0019
1002.0,-0.0021
1001.0,-0.0022
1000.0,-0.0023
999.0,-0.0023
998.0,-0.0024
997.0,-0.0025
996.0,-0.0026
995.0,-0.0027
994.0,-0.0028
993.0,-0.0029
992.0,-0.003
991.0,-0.003
990.0,-0.0031
989.0,-0.0031
988.0,-0.003
987.0,-0.0029
986.0,-0.0029
985.0,-0.003
984.0,-0.003
983.0,-0.0031
982.0,-0.0032
981.0,-0.0033
980.0,-0.0034
979.0,-0.0035
978.0,-0.0035
977.0,-0.0036
976.0,-0.0036
975.0,-0.0036
974.0,-0.0036
973.0,-0.0036
972.0,-0.0036
971.0,-0.0036
970.0,-0.0036
969.0,-0.0036
968.0,-0.0036
967.0,-0.0037
966.0,-0.0037
965.0,-0.0038
964.0,-0.0038
963.0,-0.0038
962.0,-0.004
961.0,-0.0041
960.0,-0.0041
959.0,-0.0041
958.0,-0.0041
957.0,-0.0041
956.0,-0.0041
955.0,-0.0042
954.0,-0.0043
953.0,-0.0043
952.0,-0.0043
951.0,-0.0043
950.0,-0.0043
949.0,-0.0042
948.0,-0.0043
947.0,-0.0043
946.0,-0.0044
945.0,-0.0045
944.0,-0.0046
943.0,-0.0047
942.0,-0.0048
941.0,-0.0048
940.0,-0.0048
939.0,-0.0047
938.0,-0.0046
937.0,-0.0046
936.0,-0.0047
935.0,-0.0048
934.0,-0.0049
933.0,-0.0051
932.0,-0.0052
931.0,-0.0052
930.0,-0.0052
929.0,-0.0053
928.0,-0.0053
927.0,-0.0054
926.0,-0.0054
925.0,-0.0053
924.0,-0.0054
923.0,-0.0055
922.0,-0.0056
921.0,-0.0056
920.0,-0.0057
919.0,-0.0058
918.0,-0.0059
917.0,-0.006
916.0,-0.006
915.0,-0.0061
914.0,-0.0061
913.0,-0.0062
912.0,-0.0062
911.0,-0.0063
910.0,-0.0063
909.0,-0.0063
908.0,-0.0063
907.0,-0.0063
906.0,-0.0064
905.0,-0.0066
904.0,-0.0067
903.0,-0.0068
902.0,-0.0069
901.0,-0.0069
900.0,-0.0069
899.0,-0.0069
898.0,-0.007
897.0,-0.0071
896.0,-0.0071
895.0,-0.0072
894.0,-0.0072
893.0,-0.0072
892.0,-0.0072
891.0,-0.0073
890.0,-0.0074
889.0,-0.0076
888.0,-0.0077
887.0,-0.0077
886.0,-0.0078
885.0,-0.0078
884.0,-0.0079
883.0,-0.008
882.0,-0.0081
881.0,-0.0083
880.0,-0.0084
879.0,-0.0085
878.0,-0.0085
877.0,-0.0086
876.0,-0.0086
875.0,-0.0087
874.0,-0.0089
873.0,-0.0091
872.0,-0.0093
871.0,-0.0094
870.0,-0.0095
869.0,-0.0096
868.0,-0.0097
867.0,-0.0098
866.0,-0.0098
865.0,-0.0098
864.0,-0.0099
863.0,-0.0099
862.0,-0.01
861.0,-0.0102
860.0,-0.0103
859.0,-0.0105
858.0,-0.0107
857.0,-0.0108
856.0,-0.0108
855.0,-0.0109
854.0,-0.0108
853.0,-0.0108
852.0,-0.0108
851.0,-0.011
850.0,-0.0113
849.0,-0.0115
848.0,-0.0115
847.0,-0.0116
846.0,-0.0117
845.0,-0.0118
844.0,-0.0119
843.0,-0.0121
842.0,-0.0122
841.0,-0.0124
840.0,-0.0126
839.0,-0.0128
838.0,-0.013
837.0,-0.013
836.0,-0.0129
835.0,-0.0129
834.0,-0.0131
833.0,-0.0133
832.0,-0.0135
831.0,-0.0136
830.0,-0.0137
829.0,-0.0139
828.0,-0.0141
827.0,-0.0143
826.0,-0.0145
825.0,-0.0148
824.0,-0.0149
823.0,-0.0151
822.0,-0.0152
821.0,-0.0155
820.0,-0.0158
819.0,-0.016
818.0,-0.0162
817.0,-0.0164
816.0,-0.0165
815.0,-0.0166
814.0,-0.0168
813.0,-0.017
812.0,-0.0173
811.0,-0.0175
810.0,-0.0177
809.0,-0.0181
808.0,-0.0184
807.0,-0.0186
806.0,-0.0188
805.0,-0.0189
804.0,-0.019
803.0,-0.0191
802.0,-0.0192
801.0,-0.0192
800.0,-0.0193
799.0,-0.0194
798.0,-0.0195
797.0,-0.0197
796.0,-0.02
795.0,-0.0203
794.0,-0.0207
793.0,-0.021
792.0,-0.0213
791.0,-0.0215
790.0,-0.0217
789.0,-0.0219
788.0,-0.0222
787.0,-0.0225
786.0,-0.0228
785.0,-0.023
784.0,-0.0231
783.0,-0.0233
782.0,-0.0235
781.0,-0.0237
780.0,-0.024
779.0,-0.0243
778.0,-0.0247
777.0,-0.0251
776.0,-0.0254
775.0,-0.0256
774.0,-0.0258
773.0,-0.026
772.0,-0.0262
771.0,-0.0265
770.0,-0.0269
769.0,-0.0272
768.0,-0.0275
767.0,-0.0278
766.0,-0.028
765.0,-0.0281
764.0,-0.0281
763.0,-0.0282
762.0,-0.0284
761.0,-0.0287
760.0,-0.0291
759.0,-0.0294
758.0,-0.0298
757.0,-0.03
756.0,-0.0303
755.0,-0.0306
754.0,-0.0308
753.0,-0.031
752.0,-0.0313
751.0,-0.0316
750.0,-0.032
749.0,-0.0324
748.0,-0.0328
747.0,-0.0332
746.0,-0.0334
745.0,-0.0335
744.0,-0.0336
743.0,-0.0338
742.0,-0.0342
741.0,-0.0346
740.0,-0.0349
739.0,-0.0351
738.0,-0.0352
737.0,-0.0354
736.0,-0.0357
735.0,-0.0361
734.0,-0.0365
733.0,-0.0369
732.0,-0.0373
731.0,-0.0377
730.0,-0.0379
729.0,-0.038
728.0,-0.0381
727.0,-0.0381
726.0,-0.0383
725.0,-0.0386
724.0,-0.0391
723.0,-0.0395
722.0,-0.0397
721.0,-0.0399
720.0,-0.0401
719.0,-0.0402
718.0,-0.0403
717.0,-0.0405
716.0,-0.0408
715.0,-0.0411
714.0,-0.0412
713.0,-0.0413
712.0,-0.0412
711.0,-0.0413
710.0,-0.0414
709.0,-0.0417
708.0,-0.0421
707.0,-0.0422
706.0,-0.0422
705.0,-0.0421
704.0,-0.0423
703.0,-0.0428
702.0,-0.0435
701.0,-0.0439
700.0,-0.044
699.0,-0.0437
698.0,-0.0432
697.0,-0.043
696.0,-0.0432
695.0,-0.0435
694.0,-0.0435
693.0,-0.0429
692.0,-0.0423
691.0,-0.042
690.0,-0.0424
689.0,-0.0433
688.0,-0.0443
687.0,-0.0452
686.0,-0.0457
685.0,-0.0457
684.0,-0.0453
683.0,-0.0446
682.0,-0.0438
681.0,-0.043
680.0,-0.0423
679.0,-0.0416
678.0,-0.0406
677.0,-0.0396
676.0,-0.039
675.0,-0.0393
674.0,-0.0402
673.0,-0.0415
672.0,-0.0425
671.0,-0.0433
670.0,-0.0437
669.0,-0.0431
668.0,-0.0418
667.0,-0.0417
666.0,-0.0425
665.0,-0.0432
664.0,-0.0437
663.0,-0.0439
662.0,-0.0441
661.0,-0.0444
660.0,-0.0449
659.0,-0.0453
658.0,-0.0454
657.0,-0.0456
656.0,-0.0459
655.0,-0.0462
654.0,-0.0458
653.0,-0.0449
652.0,-0.0439
651.0,-0.0434
650.0,-0.0437
649.0,-0.0441
648.0,-0.044
647.0,-0.0436
646.0,-0.0436
645.0,-0.0445
644.0,-0.0455
643.0,-0.0459
642.0,-0.0455
641.0,-0.0449
640.0,-0.0447
639.0,-0.0446
638.0,-0.0447
637.0,-0.0451
636.0,-0.046
635.0,-0.0472
634.0,-0.0483
633.0,-0.0486
632.0,-0.0484
631.0,-0.0477
630.0,-0.0469
629.0,-0.0461
628.0,-0.0458
627.0,-0.0457
626.0,-0.0458
625.0,-0.046
624.0,-0.0462
623.0,-0.0465
622.0,-0.0467
621.0,-0.047
620.0,-0.0474
619.0,-0.0476
618.0,-0.0472
617.0,-0.0465
616.0,-0.0458
615.0,-0.0454
614.0,-0.0452
613.0,-0.0456
612.0,-0.0466
611.0,-0.048
610.0,-0.049
609.0,-0.0486
608.0,-0.047
607.0,-0.0452
606.0,-0.0445
605.0,-0.0453
604.0,-0.0468
603.0,-0.0476
602.0,-0.0467
601.0,-0.0448
600.0,-0.0435
