nm,Intensity
791.377,4451.48
791.652,4482.46
791.927,4462.36
792.202,4450.66
792.477,4446.7
792.752,4453.5
793.027,4448.04
793.301,4437.22
793.576,4438.22
793.851,4445.4
794.126,4428.4
794.401,4426.5
794.676,4411.64
794.951,4406.3
795.225,4416.32
795.5,4415.64
795.775,4428.2
796.05,4426.84
796.325,4443.3
796.599,4428.74
796.874,4419.3
797.149,4404.04
797.424,4408.72
797.698,4410.62
797.973,4411.52
798.248,4393.3
798.523,4400.36
798.797,4389.98
799.072,4406.42
799.347,4395.3
799.622,4389.4
799.896,4383.98
800.171,4379.46
800.446,4376.48
800.72,4382.0
800.995,4376.8
801.27,4382.1
801.544,4369.48
801.819,4365.0
802.094,4365.82
802.368,4367.26
802.643,4366.9
802.918,4374.22
803.192,4371.82
803.467,4359.54
803.742,4370.46
804.016,4371.24
804.291,4367.52
804.565,4368.94
804.84,4364.0
805.114,4361.56
805.389,4367.78
805.664,4358.84
805.938,4341.18
806.213,4340.52
806.487,4344.64
806.762,4335.26
807.036,4342.32
807.311,4338.4
807.585,4328.16
807.86,4319.74
808.134,4329.3
808.409,4336.48
808.683,4327.56
808.958,4321.58
809.232,4315.92
809.507,4326.34
809.781,4341.14
810.056,4340.94
810.33,4345.84
810.605,4359.84
810.879,4350.08
811.153,4332.54
811.428,4326.8
811.702,4334.74
811.977,4340.12
812.251,4319.94
812.525,4304.98
812.8,4307.0
813.074,4306.96
813.349,4308.64
813.623,4299.16
813.897,4308.64
814.172,4307.04
814.446,4296.68
814.72,4303.08
814.995,4303.14
815.269,4320.4
815.543,4331.82
815.818,4378.34
816.092,4459.6
816.366,4552.84
816.64,4564.66
816.915,4518.06
817.189,4437.4
817.463,4360.48
817.737,4315.96
818.012,4287.74
818.286,4285.78
818.56,4283.24
818.834,4277.6
819.109,4274.52
819.383,4264.54
819.657,4264.5
819.931,4270.26
820.205,4257.58
820.48,4248.58
820.754,4258.0
821.028,4255.72
821.302,4248.62
821.576,4247.28
821.85,4243.88
822.125,4248.78
822.399,4251.76
822.673,4244.9
822.947,4243.72
823.221,4240.1
823.495,4252.32
823.769,4260.38
824.043,4262.1
824.317,4251.52
824.591,4278.26
824.865,4288.66
825.14,4287.4
825.414,4263.1
825.688,4242.94
825.962,4234.34
826.236,4215.76
826.51,4209.58
826.784,4212.12
827.058,4202.04
827.332,4204.66
827.606,4211.92
827.88,4207.32
828.154,4202.86
828.428,4200.76
828.702,4192.4
828.976,4193.6
829.249,4193.52
829.523,4194.78
829.797,4185.48
830.071,4187.94
830.345,4187.24
830.619,4182.26
830.893,4188.04
831.167,4184.72
831.441,4185.62
831.715,4182.42
831.988,4171.78
832.262,4163.62
832.536,4161.4
832.81,4169.08
833.084,4169.44
833.358,4174.46
833.632,4176.0
833.905,4173.84
834.179,4164.58
834.453,4160.02
834.727,4154.12
835.001,4160.78
835.274,4172.92
835.548,4166.76
835.822,4159.66
836.096,4149.18
836.369,4152.94
836.643,4154.04
836.917,4161.5
837.191,4168.46
837.464,4170.34
837.738,4186.9
838.012,4191.06
838.285,4186.6
838.559,4174.36
838.833,4162.54
839.106,4158.46
839.38,4151.38
839.654,4157.62
839.927,4168.74
840.201,4171.76
840.475,4169.96
840.748,4162.18
841.022,4152.98
841.295,4141.84
841.569,4138.34
841.843,4140.64
842.116,4131.88
842.39,4130.14
842.663,4135.16
842.937,4133.0
843.211,4124.3
843.484,4123.7
843.758,4123.1
844.031,4133.78
844.305,4125.32
844.578,4118.34
844.852,4125.82
845.125,4126.56
845.399,4116.86
845.672,4112.22
845.946,4123.76
846.219,4112.3
846.493,4107.04
846.766,4112.0
847.039,4119.36
847.313,4117.86
847.586,4111.58
847.86,4118.74
848.133,4123.46
848.407,4111.36
848.68,4113.36
848.953,4122.32
849.227,4114.56
849.5,4119.06
849.773,4125.42
850.047,4120.92
850.32,4126.78
850.593,4137.96
850.867,4148.22
851.14,4171.22
851.413,4244.44
851.687,4427.66
851.96,4618.04
852.233,4735.18
852.507,4699.82
852.78,4508.38
853.053,4358.46
853.326,4228.66
853.6,4146.2
853.873,4118.36
854.146,4105.24
854.419,4104.24
854.693,4105.76
854.966,4097.78
855.239,4091.78
855.512,4094.98
855.785,4093.9
856.059,4094.36
856.332,4086.5
856.605,4084.4
856.878,4079.02
857.151,4083.42
857.424,4092.62
857.698,4094.86
857.971,4083.9
858.244,4085.08
858.517,4085.46
858.79,4085.5
859.063,4090.94
859.336,4084.74
859.609,4083.48
859.882,4081.2
860.155,4087.16
860.428,4088.52
860.701,4089.42
860.974,4091.46
861.247,4095.78
861.52,4107.44
861.793,4116.98
862.066,4112.68
862.339,4115.56
862.612,4117.4
862.885,4112.96
863.158,4111.84
863.431,4105.3
863.704,4096.6
863.977,4085.62
864.25,4079.74
864.523,4076.24
864.796,4078.96
865.069,4072.24
865.342,4065.98
865.615,4063.28
865.888,4059.98
866.16,4060.38
866.433,4063.8
866.706,4067.68
866.979,4059.3
867.252,4055.92
867.525,4071.02
867.798,4073.98
868.07,4066.84
868.343,4067.8
868.616,4064.68
868.889,4061.26
869.162,4061.54
869.434,4063.16
869.707,4058.16
869.98,4050.52
870.253,4064.2
870.525,4058.88
870.798,4049.3
871.071,4046.64
871.344,4050.18
871.616,4047.3
871.889,4050.16
872.162,4044.0
872.434,4048.44
872.707,4048.62
872.98,4049.8
873.252,4051.72
873.525,4053.94
873.798,4055.16
874.07,4055.74
874.343,4053.38
874.615,4055.12
874.888,4046.04
875.161,4049.66
875.433,4056.92
875.706,4061.96
875.978,4069.38
876.251,4065.9
876.524,4061.42
876.796,4060.92
877.069,4055.82
877.341,4048.46
877.614,4043.18
877.886,4044.72
878.159,4043.16
878.431,4046.42
878.704,4043.88
878.976,4038.4
879.249,4036.84
879.521,4035.24
879.794,4025.96
880.066,4025.18
880.338,4024.54
880.611,4026.6
880.883,4021.02
881.156,4022.0
881.428,4023.56
881.7,4022.14
881.973,4015.04
882.245,4017.88
882.518,4017.0
882.79,4017.68
883.062,4015.22
883.335,4021.26
883.607,4025.62
883.879,4020.6
884.152,4020.42
884.424,4022.66
884.696,4028.34
884.968,4030.82
885.241,4038.98
885.513,4036.8
885.785,4042.58
886.058,4040.32
886.33,4034.9
886.602,4033.0
886.874,4026.42
887.146,4023.12
887.419,4013.36
887.691,4013.04
887.963,4004.86
888.235,4010.22
888.507,4002.82
888.78,3997.82
889.052,3994.82
889.324,3990.66
889.596,3989.88
889.868,3991.96
890.14,3990.28
890.412,3990.4
890.684,3989.06
890.957,3986.94
891.229,3988.8
891.501,3988.88
891.773,3988.32
892.045,3987.3
892.317,3983.22
892.589,3982.0
892.861,3981.88
893.133,3980.0
893.405,3981.72
893.677,3977.84
893.949,3977.12
894.221,3971.92
894.493,3970.84
894.765,3966.96
895.037,3970.14
895.309,3972.44
895.581,3970.9
895.853,3969.58
896.125,3972.92
896.397,3969.02
896.668,3964.96
896.94,3968.98
897.212,3971.24
897.484,3964.44
897.756,3959.24
898.028,3955.42
898.3,3957.3
898.571,3959.32
898.843,3958.4
899.115,3955.8
899.387,3953.5
899.659,3953.56
899.931,3952.94
900.202,3950.02
900.474,3954.06
900.746,3954.8
901.018,3948.72
901.289,3946.84
901.561,3946.62
901.833,3942.96
902.105,3946.82
902.376,3948.02
902.648,3949.94
902.92,3946.94
903.191,3942.92
903.463,3940.62
903.735,3945.1
904.006,3945.12
904.278,3937.08
904.55,3938.8
904.821,3939.68
905.093,3937.8
905.365,3936.6
905.636,3934.48
905.908,3934.52
906.179,3930.82
906.451,3927.42
906.722,3933.42
906.994,3930.68
907.266,3929.16
907.537,3928.26
907.809,3928.76
908.08,3929.12
908.352,3927.42
908.623,3922.42
908.895,3920.36
909.166,3921.7
909.438,3926.22
909.709,3922.84
909.981,3922.1
910.252,3921.78
910.523,3918.86
910.795,3917.34
911.066,3918.36
911.338,3915.32
911.609,3912.34
911.881,3914.06
912.152,3915.96
912.423,3912.8
912.695,3912.2
912.966,3911.66
913.237,3913.28
913.509,3911.0
913.78,3911.36
914.051,3907.4
914.323,3906.98
914.594,3903.12
914.865,3898.88
915.136,3904.94
915.408,3902.74
915.679,3903.16
915.95,3901.22
916.221,3903.42
916.493,3899.44
916.764,3897.78
917.035,3899.04
917.306,3898.84
917.578,3900.76
917.849,3896.94
918.12,3896.78
918.391,3893.94
918.662,3895.0
918.933,3894.4
919.204,3894.76
919.476,3893.5
919.747,3890.42
920.018,3888.92
920.289,3888.66
920.56,3887.54
920.831,3886.64
921.102,3889.66
921.373,3890.06
921.644,3885.34
921.915,3885.64
922.186,3880.9
922.457,3882.92
922.728,3883.14
922.999,3882.92
923.27,3881.82
923.541,3883.56
923.812,3879.82
924.083,3877.6
924.354,3875.96
924.625,3877.06
924.896,3876.36
925.167,3873.62
925.438,3874.14
925.709,3876.88
925.98,3874.46
926.251,3871.8
926.522,3871.44
926.792,3872.22
927.063,3869.0
927.334,3869.84
927.605,3869.08
927.876,3867.96
928.147,3868.28
928.417,3867.26
928.688,3867.48
928.959,3865.04
929.23,3864.94
929.501,3866.32
929.771,3862.56
930.042,3861.46
930.313,3861.5
930.584,3861.6
930.854,3859.42
931.125,3860.48
931.396,3856.06
931.666,3856.76
931.937,3854.56
932.208,3926.48
932.478,3904.02
932.749,3869.84
933.02,3856.02
933.29,3854.66
933.561,3852.14
933.832,3853.98
934.102,3852.12
934.373,3851.28
934.643,3850.7
934.914,3850.1
935.184,3849.8
935.455,3851.04
935.726,3847.26
935.996,3845.76
936.267,3846.74
936.537,3844.98
936.808,3844.84
937.078,3845.18
937.349,3844.6
937.619,3846.14
937.89,3844.42
938.16,3844.8
938.43,3843.84
938.701,3842.12
938.971,3842.64
939.242,3843.52
939.512,3843.5
939.782,3843.4
940.053,3843.76
940.323,3843.36
940.594,3839.76
940.864,3840.98
941.134,3839.08
941.405,3839.72
941.675,3839.7
941.945,3838.18
942.216,3838.92
942.486,3837.6
942.756,3838.78
943.026,3838.06
943.297,3834.06
943.567,3835.6
943.837,3831.86
944.107,3831.64
944.378,3830.5
944.648,3830.28
944.918,3831.96
945.188,3833.18
945.458,3834.6
945.729,3832.6
945.999,3832.98
946.269,3831.22
946.539,3831.0
946.809,3829.72
947.079,3828.54
947.349,3829.82
947.62,3832.1
947.89,3831.12
948.16,3829.0
948.43,3828.74
948.7,3829.28
948.97,3828.36
949.24,3826.96
949.51,3826.24
949.78,3825.68
950.05,3826.86
950.32,3826.06
950.59,3825.62
950.86,3825.52
951.13,3825.06
951.4,3822.14
951.67,3823.3
951.94,3824.12
952.21,3824.46
952.48,3822.34
952.75,3823.88
953.02,3824.02
953.289,3821.02
953.559,3821.14
953.829,3822.08
954.099,3820.84
954.369,3822.02
954.639,3822.58
954.909,3818.5
955.178,3818.28
955.448,3818.1
955.718,3819.58
955.988,3818.46
956.257,3819.04
956.527,3817.62
956.797,3818.28
957.067,3817.76
957.336,3816.98
957.606,3816.72
957.876,3816.56
958.146,3816.08
958.415,3815.6
958.685,3816.82
958.955,3815.7
959.224,3815.28
959.494,3813.76
959.764,3814.0
960.033,3812.8
960.303,3812.64
960.572,3814.4
960.842,3813.9
961.112,3811.9
961.381,3812.12
961.651,3812.68
961.92,3812.48
962.19,3810.76
962.459,3810.72
962.729,3811.78
962.998,3811.62
963.268,3810.34
963.537,3810.04
963.807,3807.86
964.076,3810.02
964.346,3808.86
964.615,3810.5
964.885,3808.78
965.154,3807.44
965.424,3809.9
965.693,3808.72
965.962,3809.48
966.232,3810.22
966.501,3808.34
966.771,3807.14
967.04,3806.68
967.309,3807.12
967.579,3806.48
967.848,3808.0
968.117,3805.4
968.387,3806.72
968.656,3805.22
968.925,3805.18
969.194,3803.22
969.464,3804.72
969.733,3804.02
970.002,3803.68
970.271,3804.42
970.541,3804.72
970.81,3804.98
971.079,3803.52
971.348,3802.22
971.617,3803.76
971.887,3803.72
972.156,3803.86
972.425,3805.36
972.694,3803.92
972.963,3803.06
973.232,3801.46
973.501,3800.68
973.77,3801.84
974.04,3801.32
974.309,3801.76
974.578,3800.3
974.847,3800.14
975.116,3801.0
975.385,3801.58
975.654,3800.72
975.923,3799.76
976.192,3799.4
976.461,3798.68
976.73,3798.68
976.999,3800.58
977.268,3798.94
977.537,3799.28
977.806,3798.42
978.074,3798.18
978.343,3799.18
978.612,3799.88
978.881,3797.8
979.15,3797.84
979.419,3797.14
979.688,3797.54
979.957,3796.22
980.225,3796.24
980.494,3797.62
980.763,3797.44
981.032,3796.86
981.301,3796.96
981.569,3796.72
981.838,3797.7
982.107,3797.66
982.376,3797.06
982.644,3795.64
982.913,3794.36
983.182,3795.52
983.451,3796.58
983.719,3795.54
983.988,3795.24
984.257,3795.78
984.525,3795.8
984.794,3795.38
985.063,3794.42
985.331,3794.62
985.6,3794.52
985.868,3794.92
986.137,3794.66
986.406,3795.1
986.674,3794.84
986.943,3793.78
987.211,3794.92
987.48,3793.42
987.748,3794.2
988.017,3793.16
988.285,3793.6
988.554,3793.94
988.822,3794.08
989.091,3793.44
989.359,3795.08
989.628,3793.46
989.896,3793.38
990.164,3792.08
990.433,3792.82
990.701,3792.1
990.97,3792.76
991.238,3792.52
991.506,3792.76
991.775,3792.56
992.043,3793.28
992.311,3792.22
992.58,3791.12
992.848,3791.7
993.116,3791.66
993.385,3791.58
993.653,3792.76
993.921,3792.14
994.19,3791.26
994.458,3792.1
994.726,3791.6
994.994,3790.7
995.262,3791.78
995.531,3790.36
995.799,3790.64
996.067,3792.38
996.335,3790.52
996.603,3789.62
996.872,3790.72
997.14,3789.46
997.408,3791.48
997.676,3791.04
997.944,3792.26
998.212,3790.84
998.48,3791.88
998.748,3791.38
999.016,3791.24
999.284,3791.0
999.552,3789.56
999.82,3789.78
1000.09,3791.14
1000.36,3788.62
1000.62,3788.42
1000.89,3788.78
1001.16,3789.54
1001.43,3788.82
1001.7,3787.74
1001.96,3787.12
1002.23,3788.06
1002.5,3787.24
1002.77,3787.92
1003.04,3787.0
1003.3,3787.32
1003.57,3787.4
1003.84,3787.78
1004.11,3787.24
1004.38,3786.84
1004.64,3786.28
1004.91,3786.18
1005.18,3786.38
1005.45,3786.2
1005.71,3784.96
1005.98,3785.08
1006.25,3786.66
1006.52,3786.7
1006.79,3784.76
1007.05,3786.96
1007.32,3786.38
1007.59,3785.84
1007.86,3786.36
1008.12,3787.14
1008.39,3787.04
1008.66,3787.9
1008.93,3788.5
1009.19,3789.92
1009.46,3789.18
1009.73,3791.82
1010.0,3790.14
1010.26,3791.22
1010.53,3790.7
1010.8,3791.64
1011.07,3792.44
1011.33,3791.5
1011.6,3791.14
1011.87,3792.94
1012.14,3792.44
1012.4,3793.66
1012.67,3793.44
1012.94,3794.52
1013.21,3794.28
1013.47,3795.22
1013.74,3795.4
1014.01,3796.64
1014.28,3797.34
1014.54,3797.6
1014.81,3796.92
1015.08,3797.16
1015.35,3797.22
1015.61,3797.96
1015.88,3796.7
1016.15,3797.06
1016.42,3796.68
1016.68,3795.64
1016.95,3795.82
1017.22,3794.0
1017.48,3792.28
1017.75,3792.12
1018.02,3792.26
1018.29,3791.12
1018.55,3790.68
1018.82,3791.82
1019.09,3789.88
1019.36,3788.54
1019.62,3789.2
1019.89,3787.48
1020.16,3787.82
1020.42,3787.84
1020.69,3786.82
1020.96,3786.76
1021.23,3786.14
1021.49,3786.2
1021.76,3787.0
1022.03,3787.02
1022.29,3786.4
1022.56,3785.78
1022.83,3785.28
1023.09,3785.46
1023.36,3785.4
1023.63,3784.94
1023.9,3784.54
1024.16,3783.8
1024.43,3783.3
1024.7,3783.38
1024.96,3782.4
1025.23,3782.6
1025.5,3782.0
1025.76,3781.58
1026.03,3781.68
1026.3,3780.34
1026.56,3780.28
1026.83,3780.16
1027.1,3779.92
1027.37,3780.44
1027.63,3780.1
1027.9,3780.34
1028.17,3780.24
1028.43,3780.3
1028.7,3780.08
1028.97,3778.78
1029.23,3779.84
1029.5,3780.46
1029.77,3779.96
1030.03,3780.22
1030.3,3780.1
1030.57,3780.06
1030.83,3779.5
1031.1,3778.96
1031.37,3779.44
1031.63,3781.18
1031.9,3779.82
1032.17,3780.66
1032.43,3779.04
1032.7,3778.92
1032.97,3780.04
1033.23,3779.8
1033.5,3778.68
1033.77,3779.32
1034.03,3779.48
1034.3,3779.94
1034.57,3778.88
1034.83,3779.9
1035.1,3780.18
1035.36,3780.02
1035.63,3778.82
1035.9,3779.0
1036.16,3779.0
1036.43,3779.22
1036.7,3779.04
1036.96,3779.18
1037.23,3777.92
1037.5,3778.54
1037.76,3778.8
1038.03,3779.18
1038.3,3777.94
1038.56,3779.44
1038.83,3777.98
1039.09,3779.08
1039.36,3778.6
1039.63,3778.94
1039.89,3779.2
1040.16,3778.4
1040.43,3777.9
1040.69,3778.82
1040.96,3778.58
1041.22,3778.52
1041.49,3777.98
1041.76,3777.9
1042.02,3777.64
1042.29,3778.26
1042.55,3778.48
1042.82,3778.4
1043.09,3777.78
1043.35,3777.28
1043.62,3778.22
1043.89,3778.96
1044.15,3778.14
1044.42,3779.4
1044.68,3778.16
1044.95,3777.76
1045.22,3777.78
1045.48,3777.28
1045.75,3778.08
1046.01,3778.06
1046.28,3777.64
1046.55,3778.12
1046.81,3778.38
1047.08,3778.78
1047.34,3778.28
1047.61,3779.2
1047.88,3777.26
1048.14,3777.62
1048.41,3777.1
1048.67,3778.14
1048.94,3778.24
1049.2,3777.72
1049.47,3776.72
1049.74,3777.48
1050.0,3777.54
1050.27,3777.52
1050.53,3777.0
1050.8,3777.12
1051.06,3778.16
1051.33,3777.3
1051.6,3778.86
1051.86,3777.38
1052.13,3777.22
1052.39,3777.3
1052.66,3776.84
1052.92,3777.36
1053.19,3777.02
1053.46,3778.38
1053.72,3777.08
1053.99,3777.94
1054.25,3777.44
1054.52,3776.68
1054.78,3777.52
1055.05,3777.22
1055.32,3777.6
1055.58,3778.3
1055.85,3777.32
1056.11,3777.42
1056.38,3777.78
1056.64,3777.0
1056.91,3777.42
1057.17,3776.48
1057.44,3778.14
1057.7,3777.52
1057.97,3777.28
1058.24,3777.58
1058.5,3776.06
1058.77,3776.24
1059.03,3777.1
1059.3,3777.82
1059.56,3777.72
1059.83,3778.48
1060.09,3777.3
1060.36,3777.9
1060.62,3777.08
1060.89,3777.76
1061.15,3777.08
1061.42,3777.8
1061.68,3776.24
1061.95,3776.96
1062.22,3776.88
1062.48,3777.96
1062.75,3777.58
1063.01,3776.76
1063.28,3777.96
1063.54,3776.2
1063.81,3776.44
1064.07,3778.46
1064.34,3776.74
1064.6,3776.44
1064.87,3777.12
1065.13,3777.68
1065.4,3775.96
1065.66,3776.7
1065.93,3776.66
1066.19,3776.22
1066.46,3776.3
1066.72,3777.44
1066.99,3776.1
1067.25,3775.84
1067.52,3775.64
1067.78,3776.16
1068.05,3776.12
