cm-1,A
4000.0,0.0028
3999.0,0.0028
3998.0,0.0028
3997.0,0.0028
3996.0,0.0028
3995.0,0.0028
3994.0,0.0029
3993.0,0.0029
3992.0,0.0029
3991.0,0.0029
3990.0,0.0029
3989.0,0.0029
3988.0,0.0029
3987.0,0.0029
3986.0,0.0028
3985.0,0.0028
3984.0,0.0028
3983.0,0.0029
3982.0,0.003
3981.0,0.0031
3980.0,0.0031
3979.0,0.0032
3978.0,0.0032
3977.0,0.0031
3976.0,0.0031
3975.0,0.0031
3974.0,0.003
3973.0,0.003
3972.0,0.0029
3971.0,0.0029
3970.0,0.0028
3969.0,0.0028
3968.0,0.0028
3967.0,0.0028
3966.0,0.0027
3965.0,0.0027
3964.0,0.0027
3963.0,0.0027
3962.0,0.0027
3961.0,0.0028
3960.0,0.0029
3959.0,0.0029
3958.0,0.003
3957.0,0.003
3956.0,0.0029
3955.0,0.0029
3954.0,0.0029
3953.0,0.0029
3952.0,0.0029
3951.0,0.0029
3950.0,0.0029
3949.0,0.003
3948.0,0.003
3947.0,0.0029
3946.0,0.0029
3945.0,0.0028
3944.0,0.0028
3943.0,0.0027
3942.0,0.0027
3941.0,0.0027
3940.0,0.0028
3939.0,0.0028
3938.0,0.0029
3937.0,0.003
3936.0,0.003
3935.0,0.0031
3934.0,0.003
3933.0,0.0029
3932.0,0.0029
3931.0,0.0029
3930.0,0.0028
3929.0,0.0028
3928.0,0.0028
3927.0,0.0028
3926.0,0.0028
3925.0,0.0029
3924.0,0.003
3923.0,0.003
3922.0,0.003
3921.0,0.003
3920.0,0.003
3919.0,0.0029
3918.0,0.0029
3917.0,0.0029
3916.0,0.0029
3915.0,0.003
3914.0,0.003
3913.0,0.0031
3912.0,0.0031
3911.0,0.0031
3910.0,0.003
3909.0,0.0029
3908.0,0.0028
3907.0,0.0029
3906.0,0.003
3905.0,0.0031
3904.0,0.003
3903.0,0.0028
3902.0,0.0027
3901.0,0.0027
3900.0,0.0028
3899.0,0.0029
3898.0,0.003
3897.0,0.003
3896.0,0.0029
3895.0,0.0029
3894.0,0.0028
3893.0,0.0028
3892.0,0.0029
3891.0,0.0029
3890.0,0.0028
3889.0,0.0028
3888.0,0.0029
3887.0,0.0029
3886.0,0.003
3885.0,0.003
3884.0,0.0029
3883.0,0.0029
3882.0,0.0029
3881.0,0.003
3880.0,0.003
3879.0,0.003
3878.0,0.003
3877.0,0.003
3876.0,0.0031
3875.0,0.0031
3874.0,0.003
3873.0,0.003
3872.0,0.0029
3871.0,0.003
3870.0,0.0029
3869.0,0.0028
3868.0,0.0027
3867.0,0.0028
3866.0,0.0029
3865.0,0.003
3864.0,0.003
3863.0,0.003
3862.0,0.0029
3861.0,0.0029
3860.0,0.0028
3859.0,0.0028
3858.0,0.0027
3857.0,0.0026
3856.0,0.0026
3855.0,0.0028
3854.0,0.003
3853.0,0.0029
3852.0,0.0027
3851.0,0.0027
3850.0,0.0029
3849.0,0.003
3848.0,0.0031
3847.0,0.0031
3846.0,0.0031
3845.0,0.0029
3844.0,0.0028
3843.0,0.0027
3842.0,0.0027
3841.0,0.0027
3840.0,0.0028
3839.0,0.0029
3838.0,0.0029
3837.0,0.003
3836.0,0.0031
3835.0,0.0032
3834.0,0.0033
3833.0,0.0034
3832.0,0.0033
3831.0,0.0033
3830.0,0.0032
3829.0,0.0032
3828.0,0.0033
3827.0,0.0033
3826.0,0.0032
3825.0,0.0031
3824.0,0.003
3823.0,0.003
3822.0,0.003
3821.0,0.003
3820.0,0.0029
3819.0,0.0028
3818.0,0.0029
3817.0,0.0029
3816.0,0.003
3815.0,0.003
3814.0,0.0031
3813.0,0.0031
3812.0,0.0032
3811.0,0.0031
3810.0,0.003
3809.0,0.003
3808.0,0.003
3807.0,0.003
3806.0,0.003
3805.0,0.003
3804.0,0.0031
3803.0,0.0032
3802.0,0.0032
3801.0,0.0032
3800.0,0.0031
3799.0,0.0032
3798.0,0.0033
3797.0,0.0034
3796.0,0.0033
3795.0,0.0032
3794.0,0.0032
3793.0,0.0032
3792.0,0.0033
3791.0,0.0033
3790.0,0.0033
3789.0,0.0032
3788.0,0.0031
3787.0,0.0031
3786.0,0.003
3785.0,0.003
3784.0,0.003
3783.0,0.003
3782.0,0.0031
3781.0,0.0033
3780.0,0.0034
3779.0,0.0034
3778.0,0.0033
3777.0,0.0033
3776.0,0.0033
3775.0,0.0033
3774.0,0.0033
3773.0,0.0033
3772.0,0.0033
3771.0,0.0032
3770.0,0.0031
3769.0,0.003
3768.0,0.003
3767.0,0.003
3766.0,0.0031
3765.0,0.0032
3764.0,0.0033
3763.0,0.0033
3762.0,0.0033
3761.0,0.0034
3760.0,0.0034
3759.0,0.0034
3758.0,0.0033
3757.0,0.0032
3756.0,0.0032
3755.0,0.0032
3754.0,0.0033
3753.0,0.0034
3752.0,0.0035
3751.0,0.0034
3750.0,0.0032
3749.0,0.003
3748.0,0.003
3747.0,0.003
3746.0,0.0031
3745.0,0.0031
3744.0,0.003
3743.0,0.003
3742.0,0.0031
3741.0,0.0032
3740.0,0.0032
3739.0,0.0032
3738.0,0.0031
3737.0,0.0031
3736.0,0.0032
3735.0,0.0032
3734.0,0.0033
3733.0,0.0034
3732.0,0.0035
3731.0,0.0035
3730.0,0.0034
3729.0,0.0033
3728.0,0.0033
3727.0,0.0032
3726.0,0.0032
3725.0,0.0031
3724.0,0.0031
3723.0,0.0031
3722.0,0.0031
3721.0,0.0032
3720.0,0.0032
3719.0,0.0032
3718.0,0.0033
3717.0,0.0033
3716.0,0.0034
3715.0,0.0034
3714.0,0.0033
3713.0,0.0032
3712.0,0.0032
3711.0,0.0032
3710.0,0.0033
3709.0,0.0033
3708.0,0.0033
3707.0,0.0032
3706.0,0.0032
3705.0,0.0032
3704.0,0.0031
3703.0,0.0031
3702.0,0.0031
3701.0,0.0031
3700.0,0.0031
3699.0,0.003
3698.0,0.003
3697.0,0.0031
3696.0,0.0031
3695.0,0.0032
3694.0,0.0032
3693.0,0.0032
3692.0,0.0032
3691.0,0.0032
3690.0,0.0033
3689.0,0.0034
3688.0,0.0034
3687.0,0.0034
3686.0,0.0035
3685.0,0.0036
3684.0,0.0036
3683.0,0.0037
3682.0,0.0037
3681.0,0.0036
3680.0,0.0035
3679.0,0.0033
3678.0,0.0031
3677.0,0.003
3676.0,0.003
3675.0,0.0029
3674.0,0.0029
3673.0,0.003
3672.0,0.0032
3671.0,0.0033
3670.0,0.0034
3669.0,0.0034
3668.0,0.0034
3667.0,0.0034
3666.0,0.0034
3665.0,0.0033
3664.0,0.0032
3663.0,0.0032
3662.0,0.0031
3661.0,0.0031
3660.0,0.0031
3659.0,0.0032
3658.0,0.0033
3657.0,0.0033
3656.0,0.0033
3655.0,0.0032
3654.0,0.0031
3653.0,0.0029
3652.0,0.0028
3651.0,0.0026
3650.0,0.0025
3649.0,0.0026
3648.0,0.0027
3647.0,0.003
3646.0,0.0032
3645.0,0.0034
3644.0,0.0035
3643.0,0.0036
3642.0,0.0036
3641.0,0.0036
3640.0,0.0037
3639.0,0.0037
3638.0,0.0037
3637.0,0.0036
3636.0,0.0035
3635.0,0.0034
3634.0,0.0033
3633.0,0.0033
3632.0,0.0032
3631.0,0.0033
3630.0,0.0035
3629.0,0.0037
3628.0,0.0037
3627.0,0.0037
3626.0,0.0037
3625.0,0.0038
3624.0,0.0038
3623.0,0.0037
3622.0,0.0035
3621.0,0.0033
3620.0,0.0031
3619.0,0.0031
3618.0,0.0031
3617.0,0.0031
3616.0,0.0032
3615.0,0.0033
3614.0,0.0035
3613.0,0.0036
3612.0,0.0036
3611.0,0.0036
3610.0,0.0036
3609.0,0.0035
3608.0,0.0035
3607.0,0.0035
3606.0,0.0035
3605.0,0.0036
3604.0,0.0037
3603.0,0.0038
3602.0,0.0039
3601.0,0.0039
3600.0,0.0038
3599.0,0.0036
3598.0,0.0035
3597.0,0.0035
3596.0,0.0035
3595.0,0.0035
3594.0,0.0035
3593.0,0.0034
3592.0,0.0034
3591.0,0.0034
3590.0,0.0033
3589.0,0.0034
3588.0,0.0035
3587.0,0.0036
3586.0,0.0036
3585.0,0.0037
3584.0,0.0037
3583.0,0.0036
3582.0,0.0036
3581.0,0.0036
3580.0,0.0036
3579.0,0.0037
3578.0,0.0037
3577.0,0.0037
3576.0,0.0037
3575.0,0.0036
3574.0,0.0036
3573.0,0.0037
3572.0,0.0038
3571.0,0.0038
3570.0,0.0038
3569.0,0.0038
3568.0,0.0037
3567.0,0.0037
3566.0,0.0037
3565.0,0.0037
3564.0,0.0038
3563.0,0.0039
3562.0,0.0039
3561.0,0.0039
3560.0,0.0039
3559.0,0.0038
3558.0,0.0037
3557.0,0.0037
3556.0,0.0036
3555.0,0.0037
3554.0,0.0037
3553.0,0.0038
3552.0,0.0039
3551.0,0.0039
3550.0,0.0039
3549.0,0.0039
3548.0,0.0039
3547.0,0.004
3546.0,0.0039
3545.0,0.0039
3544.0,0.0038
3543.0,0.0038
3542.0,0.0038
3541.0,0.0038
3540.0,0.0037
3539.0,0.0037
3538.0,0.0037
3537.0,0.0037
3536.0,0.0037
3535.0,0.0037
3534.0,0.0037
3533.0,0.0037
3532.0,0.0037
3531.0,0.0038
3530.0,0.0039
3529.0,0.004
3528.0,0.004
3527.0,0.0039
3526.0,0.0038
3525.0,0.0037
3524.0,0.0037
3523.0,0.0037
3522.0,0.0038
3521.0,0.0038
3520.0,0.0039
3519.0,0.004
3518.0,0.004
3517.0,0.004
3516.0,0.0041
3515.0,0.0041
3514.0,0.0041
3513.0,0.0041
3512.0,0.004
3511.0,0.004
3510.0,0.004
3509.0,0.004
3508.0,0.004
3507.0,0.0039
3506.0,0.0038
3505.0,0.0037
3504.0,0.0037
3503.0,0.0038
3502.0,0.0038
3501.0,0.0039
3500.0,0.004
3499.0,0.0041
3498.0,0.0041
3497.0,0.0041
3496.0,0.0041
3495.0,0.0041
3494.0,0.0041
3493.0,0.0041
3492.0,0.0041
3491.0,0.0041
3490.0,0.004
3489.0,0.004
3488.0,0.0041
3487.0,0.0041
3486.0,0.0041
3485.0,0.0042
3484.0,0.0042
3483.0,0.0042
3482.0,0.0042
3481.0,0.0041
3480.0,0.004
3479.0,0.0039
3478.0,0.0039
3477.0,0.0039
3476.0,0.004
3475.0,0.0041
3474.0,0.0042
3473.0,0.0043
3472.0,0.0044
3471.0,0.0044
3470.0,0.0044
3469.0,0.0044
3468.0,0.0044
3467.0,0.0043
3466.0,0.0043
3465.0,0.0042
3464.0,0.0042
3463.0,0.0042
3462.0,0.0041
3461.0,0.0041
3460.0,0.0041
3459.0,0.004
3458.0,0.004
3457.0,0.0041
3456.0,0.0042
3455.0,0.0042
3454.0,0.0043
3453.0,0.0043
3452.0,0.0043
3451.0,0.0043
3450.0,0.0042
3449.0,0.0042
3448.0,0.0041
3447.0,0.0041
3446.0,0.0042
3445.0,0.0042
3444.0,0.0042
3443.0,0.0042
3442.0,0.0043
3441.0,0.0043
3440.0,0.0043
3439.0,0.0042
3438.0,0.0041
3437.0,0.0041
3436.0,0.0041
3435.0,0.0041
3434.0,0.0041
3433.0,0.004
3432.0,0.004
3431.0,0.0041
3430.0,0.0042
3429.0,0.0042
3428.0,0.0043
3427.0,0.0043
3426.0,0.0043
3425.0,0.0042
3424.0,0.0041
3423.0,0.004
3422.0,0.0039
3421.0,0.0038
3420.0,0.0038
3419.0,0.0039
3418.0,0.0041
3417.0,0.0041
3416.0,0.0041
3415.0,0.0041
3414.0,0.0042
3413.0,0.0042
3412.0,0.0042
3411.0,0.0042
3410.0,0.0041
3409.0,0.0041
3408.0,0.0041
3407.0,0.0042
3406.0,0.0043
3405.0,0.0044
3404.0,0.0044
3403.0,0.0043
3402.0,0.0042
3401.0,0.0042
3400.0,0.0041
3399.0,0.0042
3398.0,0.0042
3397.0,0.0042
3396.0,0.0042
3395.0,0.0042
3394.0,0.0042
3393.0,0.0043
3392.0,0.0044
3391.0,0.0044
3390.0,0.0044
3389.0,0.0043
3388.0,0.0042
3387.0,0.0041
3386.0,0.0041
3385.0,0.0041
3384.0,0.0042
3383.0,0.0043
3382.0,0.0044
3381.0,0.0044
3380.0,0.0043
3379.0,0.0043
3378.0,0.0042
3377.0,0.0042
3376.0,0.0042
3375.0,0.0042
3374.0,0.0042
3373.0,0.0041
3372.0,0.004
3371.0,0.004
3370.0,0.0041
3369.0,0.0041
3368.0,0.0042
3367.0,0.0042
3366.0,0.0042
3365.0,0.0042
3364.0,0.0042
3363.0,0.0042
3362.0,0.0043
3361.0,0.0043
3360.0,0.0043
3359.0,0.0042
3358.0,0.0042
3357.0,0.0042
3356.0,0.0042
3355.0,0.0043
3354.0,0.0043
3353.0,0.0043
3352.0,0.0043
3351.0,0.0043
3350.0,0.0043
3349.0,0.0044
3348.0,0.0044
3347.0,0.0044
3346.0,0.0044
3345.0,0.0044
3344.0,0.0044
3343.0,0.0043
3342.0,0.0042
3341.0,0.0041
3340.0,0.0039
3339.0,0.0039
3338.0,0.0039
3337.0,0.004
3336.0,0.0041
3335.0,0.0042
3334.0,0.0043
3333.0,0.0043
3332.0,0.0044
3331.0,0.0043
3330.0,0.0042
3329.0,0.0042
3328.0,0.0042
3327.0,0.0042
3326.0,0.0042
3325.0,0.0042
3324.0,0.0041
3323.0,0.0041
3322.0,0.0041
3321.0,0.0041
3320.0,0.0041
3319.0,0.0041
3318.0,0.0041
3317.0,0.0041
3316.0,0.0041
3315.0,0.0041
3314.0,0.0041
3313.0,0.0041
3312.0,0.0041
3311.0,0.0041
3310.0,0.0041
3309.0,0.004
3308.0,0.0039
3307.0,0.0039
3306.0,0.0039
3305.0,0.0039
3304.0,0.004
3303.0,0.0041
3302.0,0.0041
3301.0,0.0042
3300.0,0.0042
3299.0,0.0042
3298.0,0.0042
3297.0,0.0041
3296.0,0.0041
3295.0,0.0041
3294.0,0.004
3293.0,0.004
3292.0,0.004
3291.0,0.004
3290.0,0.004
3289.0,0.0041
3288.0,0.0041
3287.0,0.0042
3286.0,0.0041
3285.0,0.004
3284.0,0.0039
3283.0,0.0039
3282.0,0.0039
3281.0,0.0039
3280.0,0.004
3279.0,0.004
3278.0,0.0041
3277.0,0.0041
3276.0,0.0041
3275.0,0.0041
3274.0,0.004
3273.0,0.004
3272.0,0.0039
3271.0,0.0039
3270.0,0.0039
3269.0,0.0039
3268.0,0.0039
3267.0,0.0038
3266.0,0.0038
3265.0,0.0038
3264.0,0.0038
3263.0,0.0039
3262.0,0.004
3261.0,0.0041
3260.0,0.0041
3259.0,0.0041
3258.0,0.0041
3257.0,0.0041
3256.0,0.0041
3255.0,0.004
3254.0,0.0039
3253.0,0.0039
3252.0,0.0039
3251.0,0.0038
3250.0,0.0038
3249.0,0.0037
3248.0,0.0037
3247.0,0.0038
3246.0,0.0038
3245.0,0.0039
3244.0,0.004
3243.0,0.0039
3242.0,0.0039
3241.0,0.0038
3240.0,0.0037
3239.0,0.0038
3238.0,0.0039
3237.0,0.0041
3236.0,0.0042
3235.0,0.0043
3234.0,0.0042
3233.0,0.0042
3232.0,0.0041
3231.0,0.004
3230.0,0.0039
3229.0,0.0037
3228.0,0.0037
3227.0,0.0037
3226.0,0.0037
3225.0,0.0037
3224.0,0.0037
3223.0,0.0036
3222.0,0.0037
3221.0,0.0037
3220.0,0.0038
3219.0,0.004
3218.0,0.004
3217.0,0.004
3216.0,0.0039
3215.0,0.0038
3214.0,0.0038
3213.0,0.0038
3212.0,0.0038
3211.0,0.0038
3210.0,0.0038
3209.0,0.0038
3208.0,0.0038
3207.0,0.0037
3206.0,0.0037
3205.0,0.0037
3204.0,0.0037
3203.0,0.0037
3202.0,0.0037
3201.0,0.0037
3200.0,0.0037
3199.0,0.0037
3198.0,0.0038
3197.0,0.0039
3196.0,0.0039
3195.0,0.0039
3194.0,0.0038
3193.0,0.0037
3192.0,0.0037
3191.0,0.0037
3190.0,0.0037
3189.0,0.0037
3188.0,0.0037
3187.0,0.0037
3186.0,0.0037
3185.0,0.0036
3184.0,0.0037
3183.0,0.0037
3182.0,0.0037
3181.0,0.0036
3180.0,0.0036
3179.0,0.0036
3178.0,0.0036
3177.0,0.0037
3176.0,0.0038
3175.0,0.0038
3174.0,0.0037
3173.0,0.0036
3172.0,0.0035
3171.0,0.0035
3170.0,0.0035
3169.0,0.0034
3168.0,0.0034
3167.0,0.0033
3166.0,0.0034
3165.0,0.0035
3164.0,0.0035
3163.0,0.0036
3162.0,0.0037
3161.0,0.0037
3160.0,0.0036
3159.0,0.0036
3158.0,0.0035
3157.0,0.0035
3156.0,0.0036
3155.0,0.0036
3154.0,0.0036
3153.0,0.0035
3152.0,0.0035
3151.0,0.0035
3150.0,0.0035
3149.0,0.0036
3148.0,0.0036
3147.0,0.0036
3146.0,0.0035
3145.0,0.0035
3144.0,0.0035
3143.0,0.0036
3142.0,0.0036
3141.0,0.0036
3140.0,0.0036
3139.0,0.0036
3138.0,0.0036
3137.0,0.0036
3136.0,0.0036
3135.0,0.0036
3134.0,0.0035
3133.0,0.0035
3132.0,0.0034
3131.0,0.0034
3130.0,0.0033
3129.0,0.0033
3128.0,0.0034
3127.0,0.0035
3126.0,0.0036
3125.0,0.0035
3124.0,0.0034
3123.0,0.0034
3122.0,0.0033
3121.0,0.0033
3120.0,0.0033
3119.0,0.0033
3118.0,0.0034
3117.0,0.0034
3116.0,0.0035
3115.0,0.0035
3114.0,0.0034
3113.0,0.0034
3112.0,0.0034
3111.0,0.0034
3110.0,0.0033
3109.0,0.0033
3108.0,0.0032
3107.0,0.0031
3106.0,0.003
3105.0,0.003
3104.0,0.0031
3103.0,0.0032
3102.0,0.0033
3101.0,0.0033
3100.0,0.0033
3099.0,0.0032
3098.0,0.0031
3097.0,0.003
3096.0,0.003
3095.0,0.003
3094.0,0.0031
3093.0,0.0032
3092.0,0.0032
3091.0,0.0032
3090.0,0.0032
3089.0,0.0032
3088.0,0.0032
3087.0,0.0032
3086.0,0.0032
3085.0,0.0032
3084.0,0.0032
3083.0,0.0032
3082.0,0.0031
3081.0,0.0031
3080.0,0.0031
3079.0,0.0031
3078.0,0.0031
3077.0,0.0031
3076.0,0.0031
3075.0,0.0031
3074.0,0.003
3073.0,0.003
3072.0,0.003
3071.0,0.003
3070.0,0.0031
3069.0,0.0031
3068.0,0.0031
3067.0,0.0031
3066.0,0.0032
3065.0,0.0032
3064.0,0.0033
3063.0,0.0032
3062.0,0.0031
3061.0,0.0031
3060.0,0.003
3059.0,0.003
3058.0,0.0031
3057.0,0.0031
3056.0,0.0031
3055.0,0.0031
3054.0,0.0031
3053.0,0.003
3052.0,0.003
3051.0,0.003
3050.0,0.0029
3049.0,0.0029
3048.0,0.0028
3047.0,0.0027
3046.0,0.0027
3045.0,0.0027
3044.0,0.0028
3043.0,0.0029
3042.0,0.0029
3041.0,0.0029
3040.0,0.0028
3039.0,0.0028
3038.0,0.0027
3037.0,0.0027
3036.0,0.0028
3035.0,0.0028
3034.0,0.0029
3033.0,0.0029
3032.0,0.0029
3031.0,0.0029
3030.0,0.0028
3029.0,0.0028
3028.0,0.0028
3027.0,0.0027
3026.0,0.0027
3025.0,0.0027
3024.0,0.0027
3023.0,0.0026
3022.0,0.0026
3021.0,0.0026
3020.0,0.0026
3019.0,0.0026
3018.0,0.0026
3017.0,0.0026
3016.0,0.0026
3015.0,0.0026
3014.0,0.0026
3013.0,0.0025
3012.0,0.0025
3011.0,0.0025
3010.0,0.0025
3009.0,0.0025
3008.0,0.0025
3007.0,0.0024
3006.0,0.0024
3005.0,0.0023
3004.0,0.0023
3003.0,0.0024
3002.0,0.0024
3001.0,0.0025
3000.0,0.0025
2999.0,0.0025
2998.0,0.0025
2997.0,0.0026
2996.0,0.0026
2995.0,0.0026
2994.0,0.0026
2993.0,0.0025
2992.0,0.0025
2991.0,0.0025
2990.0,0.0026
2989.0,0.0027
2988.0,0.0029
2987.0,0.0031
2986.0,0.0032
2985.0,0.0035
2984.0,0.0037
2983.0,0.0039
2982.0,0.0041
2981.0,0.0043
2980.0,0.0046
2979.0,0.005
2978.0,0.0054
2977.0,0.0059
2976.0,0.0064
2975.0,0.007
2974.0,0.0077
2973.0,0.0085
2972.0,0.0095
2971.0,0.0106
2970.0,0.0117
2969.0,0.0128
2968.0,0.0141
2967.0,0.0154
2966.0,0.0168
2965.0,0.0182
2964.0,0.0196
2963.0,0.0208
2962.0,0.0218
2961.0,0.0228
2960.0,0.0236
2959.0,0.0244
2958.0,0.0251
2957.0,0.0258
2956.0,0.0266
2955.0,0.0275
2954.0,0.0285
2953.0,0.0295
2952.0,0.0302
2951.0,0.0306
2950.0,0.0306
2949.0,0.0301
2948.0,0.0291
2947.0,0.0277
2946.0,0.0259
2945.0,0.0241
2944.0,0.0223
2943.0,0.0208
2942.0,0.0197
2941.0,0.019
2940.0,0.0187
2939.0,0.0188
2938.0,0.0192
2937.0,0.0199
2936.0,0.0208
2935.0,0.0219
2934.0,0.0232
2933.0,0.0246
2932.0,0.0262
2931.0,0.0279
2930.0,0.0298
2929.0,0.0316
2928.0,0.0334
2927.0,0.0352
2926.0,0.037
2925.0,0.0388
2924.0,0.0406
2923.0,0.0424
2922.0,0.0443
2921.0,0.0461
2920.0,0.0477
2919.0,0.0489
2918.0,0.0497
2917.0,0.0499
2916.0,0.0495
2915.0,0.0485
2914.0,0.0471
2913.0,0.0455
2912.0,0.0439
2911.0,0.0423
2910.0,0.0408
2909.0,0.0394
2908.0,0.0381
2907.0,0.0369
2906.0,0.0358
2905.0,0.0347
2904.0,0.0336
2903.0,0.0326
2902.0,0.0315
2901.0,0.0306
2900.0,0.0297
2899.0,0.0288
2898.0,0.028
2897.0,0.0272
2896.0,0.0265
2895.0,0.0259
2894.0,0.0253
2893.0,0.0248
2892.0,0.0244
2891.0,0.0241
2890.0,0.0239
2889.0,0.0238
2888.0,0.0238
2887.0,0.0238
2886.0,0.0239
2885.0,0.024
2884.0,0.0241
2883.0,0.0242
2882.0,0.0244
2881.0,0.0247
2880.0,0.0249
2879.0,0.0251
2878.0,0.0253
2877.0,0.0253
2876.0,0.0253
2875.0,0.0251
2874.0,0.025
2873.0,0.0249
2872.0,0.0249
2871.0,0.0249
2870.0,0.0249
2869.0,0.025
2868.0,0.0249
2867.0,0.0247
2866.0,0.0242
2865.0,0.0234
2864.0,0.0223
2863.0,0.0212
2862.0,0.0201
2861.0,0.0192
2860.0,0.0186
2859.0,0.0183
2858.0,0.0183
2857.0,0.0187
2856.0,0.0193
2855.0,0.0203
2854.0,0.0215
2853.0,0.0228
2852.0,0.024
2851.0,0.025
2850.0,0.0257
2849.0,0.026
2848.0,0.026
2847.0,0.0258
2846.0,0.0256
2845.0,0.0255
2844.0,0.0256
2843.0,0.0258
2842.0,0.0262
2841.0,0.0267
2840.0,0.0271
2839.0,0.0273
2838.0,0.0271
2837.0,0.0265
2836.0,0.0255
2835.0,0.0242
2834.0,0.0227
2833.0,0.0211
2832.0,0.0196
2831.0,0.0182
2830.0,0.0169
2829.0,0.0159
2828.0,0.0151
2827.0,0.0144
2826.0,0.0139
2825.0,0.0135
2824.0,0.0131
2823.0,0.0128
2822.0,0.0125
2821.0,0.0122
2820.0,0.012
2819.0,0.0117
2818.0,0.0114
2817.0,0.0113
2816.0,0.0111
2815.0,0.011
2814.0,0.0109
2813.0,0.0107
2812.0,0.0106
2811.0,0.0105
2810.0,0.0104
2809.0,0.0103
2808.0,0.0101
2807.0,0.01
2806.0,0.0098
2805.0,0.0096
2804.0,0.0094
2803.0,0.0092
2802.0,0.0091
2801.0,0.0091
2800.0,0.0091
2799.0,0.0091
2798.0,0.009
2797.0,0.0089
2796.0,0.0089
2795.0,0.0088
2794.0,0.0087
2793.0,0.0086
2792.0,0.0086
2791.0,0.0085
2790.0,0.0084
2789.0,0.0083
2788.0,0.0081
2787.0,0.008
2786.0,0.0079
2785.0,0.0078
2784.0,0.0078
2783.0,0.0078
2782.0,0.0078
2781.0,0.0078
2780.0,0.0077
2779.0,0.0076
2778.0,0.0075
2777.0,0.0074
2776.0,0.0074
2775.0,0.0074
2774.0,0.0074
2773.0,0.0074
2772.0,0.0074
2771.0,0.0074
2770.0,0.0073
2769.0,0.0073
2768.0,0.0072
2767.0,0.0072
2766.0,0.0072
2765.0,0.0072
2764.0,0.0072
2763.0,0.0071
2762.0,0.0071
2761.0,0.007
2760.0,0.0069
2759.0,0.0069
2758.0,0.0069
2757.0,0.007
2756.0,0.007
2755.0,0.0069
2754.0,0.0068
2753.0,0.0068
2752.0,0.0068
2751.0,0.0068
2750.0,0.0069
2749.0,0.0069
2748.0,0.0069
2747.0,0.0068
2746.0,0.0067
2745.0,0.0066
2744.0,0.0066
2743.0,0.0066
2742.0,0.0067
2741.0,0.0068
2740.0,0.0068
2739.0,0.0068
2738.0,0.0068
2737.0,0.0068
2736.0,0.0069
2735.0,0.0069
2734.0,0.0069
2733.0,0.0069
2732.0,0.0068
2731.0,0.0069
2730.0,0.0069
2729.0,0.0069
2728.0,0.007
2727.0,0.0071
2726.0,0.0072
2725.0,0.0072
2724.0,0.0072
2723.0,0.0072
2722.0,0.0072
2721.0,0.0072
2720.0,0.0071
2719.0,0.007
2718.0,0.007
2717.0,0.0069
2716.0,0.0069
2715.0,0.0068
2714.0,0.0068
2713.0,0.0067
2712.0,0.0067
2711.0,0.0066
2710.0,0.0065
2709.0,0.0064
2708.0,0.0064
2707.0,0.0064
2706.0,0.0064
2705.0,0.0065
2704.0,0.0065
2703.0,0.0065
2702.0,0.0065
2701.0,0.0065
2700.0,0.0064
2699.0,0.0064
2698.0,0.0064
2697.0,0.0064
2696.0,0.0064
2695.0,0.0063
2694.0,0.0062
2693.0,0.0062
2692.0,0.0062
2691.0,0.0062
2690.0,0.0061
2689.0,0.0061
2688.0,0.0062
2687.0,0.0062
2686.0,0.0063
2685.0,0.0063
2684.0,0.0062
2683.0,0.0062
2682.0,0.0062
2681.0,0.0063
2680.0,0.0063
2679.0,0.0064
2678.0,0.0065
2677.0,0.0065
2676.0,0.0065
2675.0,0.0064
2674.0,0.0063
2673.0,0.0062
2672.0,0.0061
2671.0,0.0061
2670.0,0.0062
2669.0,0.0062
2668.0,0.0062
2667.0,0.0061
2666.0,0.006
2665.0,0.006
2664.0,0.006
2663.0,0.006
2662.0,0.0061
2661.0,0.0061
2660.0,0.0062
2659.0,0.0061
2658.0,0.0061
2657.0,0.006
2656.0,0.006
2655.0,0.006
2654.0,0.006
2653.0,0.006
2652.0,0.006
2651.0,0.006
2650.0,0.006
2649.0,0.006
2648.0,0.0061
2647.0,0.006
2646.0,0.006
2645.0,0.006
2644.0,0.006
2643.0,0.006
2642.0,0.006
2641.0,0.006
2640.0,0.006
2639.0,0.006
2638.0,0.006
2637.0,0.006
2636.0,0.006
2635.0,0.006
2634.0,0.006
2633.0,0.006
2632.0,0.006
2631.0,0.006
2630.0,0.0059
2629.0,0.0058
2628.0,0.0058
2627.0,0.0059
2626.0,0.0059
2625.0,0.006
2624.0,0.006
2623.0,0.0059
2622.0,0.0059
2621.0,0.0058
2620.0,0.0058
2619.0,0.0059
2618.0,0.0059
2617.0,0.006
2616.0,0.006
2615.0,0.0059
2614.0,0.0059
2613.0,0.0058
2612.0,0.0058
2611.0,0.0058
2610.0,0.0058
2609.0,0.0058
2608.0,0.0058
2607.0,0.0058
2606.0,0.0058
2605.0,0.0058
2604.0,0.0057
2603.0,0.0057
2602.0,0.0057
2601.0,0.0056
2600.0,0.0056
2599.0,0.0056
2598.0,0.0056
2597.0,0.0056
2596.0,0.0056
2595.0,0.0057
2594.0,0.0057
2593.0,0.0057
2592.0,0.0058
2591.0,0.0057
2590.0,0.0057
2589.0,0.0056
2588.0,0.0056
2587.0,0.0056
2586.0,0.0057
2585.0,0.0058
2584.0,0.0058
2583.0,0.0058
2582.0,0.0058
2581.0,0.0058
2580.0,0.0057
2579.0,0.0057
2578.0,0.0056
2577.0,0.0056
2576.0,0.0057
2575.0,0.0057
2574.0,0.0058
2573.0,0.0058
2572.0,0.0058
2571.0,0.0058
2570.0,0.0057
2569.0,0.0057
2568.0,0.0056
2567.0,0.0056
2566.0,0.0056
2565.0,0.0056
2564.0,0.0055
2563.0,0.0055
2562.0,0.0056
2561.0,0.0056
2560.0,0.0056
2559.0,0.0056
2558.0,0.0056
2557.0,0.0056
2556.0,0.0056
2555.0,0.0056
2554.0,0.0056
2553.0,0.0056
2552.0,0.0056
2551.0,0.0056
2550.0,0.0055
2549.0,0.0054
2548.0,0.0054
2547.0,0.0054
2546.0,0.0054
2545.0,0.0054
2544.0,0.0055
2543.0,0.0055
2542.0,0.0055
2541.0,0.0054
2540.0,0.0054
2539.0,0.0053
2538.0,0.0053
2537.0,0.0053
2536.0,0.0053
2535.0,0.0053
2534.0,0.0053
2533.0,0.0053
2532.0,0.0053
2531.0,0.0054
2530.0,0.0054
2529.0,0.0054
2528.0,0.0054
2527.0,0.0054
2526.0,0.0054
2525.0,0.0054
2524.0,0.0053
2523.0,0.0053
2522.0,0.0053
2521.0,0.0053
2520.0,0.0054
2519.0,0.0054
2518.0,0.0054
2517.0,0.0053
2516.0,0.0052
2515.0,0.0051
2514.0,0.0051
2513.0,0.0052
2512.0,0.0053
2511.0,0.0053
2510.0,0.0053
2509.0,0.0052
2508.0,0.0052
2507.0,0.0052
2506.0,0.0052
2505.0,0.0053
2504.0,0.0052
2503.0,0.0052
2502.0,0.0051
2501.0,0.0051
2500.0,0.0051
2499.0,0.0052
2498.0,0.0052
2497.0,0.0052
2496.0,0.0052
2495.0,0.0052
2494.0,0.0052
2493.0,0.0051
2492.0,0.0051
2491.0,0.0051
2490.0,0.0052
2489.0,0.0052
2488.0,0.0052
2487.0,0.0052
2486.0,0.0053
2485.0,0.0052
2484.0,0.0052
2483.0,0.0051
2482.0,0.005
2481.0,0.005
2480.0,0.005
2479.0,0.0051
2478.0,0.0051
2477.0,0.0051
2476.0,0.0051
2475.0,0.0051
2474.0,0.0051
2473.0,0.0051
2472.0,0.0051
2471.0,0.0051
2470.0,0.0051
2469.0,0.0051
2468.0,0.0051
2467.0,0.0051
2466.0,0.0051
2465.0,0.0051
2464.0,0.005
2463.0,0.0051
2462.0,0.0051
2461.0,0.0051
2460.0,0.0051
2459.0,0.005
2458.0,0.005
2457.0,0.005
2456.0,0.005
2455.0,0.0049
2454.0,0.0049
2453.0,0.0049
2452.0,0.0049
2451.0,0.005
2450.0,0.005
2449.0,0.005
2448.0,0.0051
2447.0,0.0051
2446.0,0.0051
2445.0,0.0051
2444.0,0.0051
2443.0,0.0051
2442.0,0.0051
2441.0,0.005
2440.0,0.005
2439.0,0.005
2438.0,0.005
2437.0,0.005
2436.0,0.005
2435.0,0.005
2434.0,0.005
2433.0,0.0051
2432.0,0.0051
2431.0,0.0051
2430.0,0.0051
2429.0,0.0051
2428.0,0.0051
2427.0,0.005
2426.0,0.005
2425.0,0.005
2424.0,0.005
2423.0,0.005
2422.0,0.005
2421.0,0.005
2420.0,0.0051
2419.0,0.0051
2418.0,0.0051
2417.0,0.0052
2416.0,0.0051
2415.0,0.0051
2414.0,0.005
2413.0,0.005
2412.0,0.005
2411.0,0.005
2410.0,0.005
2409.0,0.005
2408.0,0.0049
2407.0,0.005
2406.0,0.005
2405.0,0.005
2404.0,0.0051
2403.0,0.0051
2402.0,0.005
2401.0,0.005
2400.0,0.005
2399.0,0.005
2398.0,0.005
2397.0,0.005
2396.0,0.005
2395.0,0.005
2394.0,0.005
2393.0,0.005
2392.0,0.005
2391.0,0.005
2390.0,0.005
2389.0,0.0051
2388.0,0.0051
2387.0,0.0051
2386.0,0.0051
2385.0,0.0051
2384.0,0.0052
2383.0,0.0053
2382.0,0.0054
2381.0,0.0054
2380.0,0.0054
2379.0,0.0053
2378.0,0.0051
2377.0,0.005
2376.0,0.0049
2375.0,0.0049
2374.0,0.0052
2373.0,0.0058
2372.0,0.0065
2371.0,0.0069
2370.0,0.0067
2369.0,0.0061
2368.0,0.0052
2367.0,0.0045
2366.0,0.0042
2365.0,0.0043
2364.0,0.0047
2363.0,0.0054
2362.0,0.0064
2361.0,0.0075
2360.0,0.0085
2359.0,0.0087
2358.0,0.0078
2357.0,0.0058
2356.0,0.004
2355.0,0.0031
2354.0,0.003
2353.0,0.0032
2352.0,0.0035
2351.0,0.0041
2350.0,0.0048
2349.0,0.0053
2348.0,0.0053
2347.0,0.0051
2346.0,0.0054
2345.0,0.0065
2344.0,0.0078
2343.0,0.0084
2342.0,0.008
2341.0,0.0069
2340.0,0.0057
2339.0,0.0048
2338.0,0.0045
2337.0,0.0046
2336.0,0.0047
2335.0,0.0044
2334.0,0.0037
2333.0,0.0031
2332.0,0.0031
2331.0,0.0038
2330.0,0.0047
2329.0,0.0051
2328.0,0.0052
2327.0,0.0052
2326.0,0.0052
2325.0,0.005
2324.0,0.0046
2323.0,0.0039
2322.0,0.0034
2321.0,0.0034
2320.0,0.0038
2319.0,0.0044
2318.0,0.0049
2317.0,0.005
2316.0,0.0049
2315.0,0.0046
2314.0,0.0043
2313.0,0.0042
2312.0,0.0042
2311.0,0.0044
2310.0,0.0046
2309.0,0.0048
2308.0,0.0048
2307.0,0.0049
2306.0,0.0049
2305.0,0.0049
2304.0,0.0049
2303.0,0.0049
2302.0,0.005
2301.0,0.005
2300.0,0.005
2299.0,0.005
2298.0,0.005
2297.0,0.005
2296.0,0.005
2295.0,0.005
2294.0,0.0049
2293.0,0.0048
2292.0,0.0048
2291.0,0.0048
2290.0,0.0048
2289.0,0.0049
2288.0,0.0049
2287.0,0.0048
2286.0,0.0047
2285.0,0.0047
2284.0,0.0047
2283.0,0.0047
2282.0,0.0048
2281.0,0.0048
2280.0,0.0048
2279.0,0.0048
2278.0,0.0048
2277.0,0.0048
2276.0,0.0048
2275.0,0.0048
2274.0,0.0047
2273.0,0.0047
2272.0,0.0047
2271.0,0.0047
2270.0,0.0046
2269.0,0.0046
2268.0,0.0046
2267.0,0.0046
2266.0,0.0046
2265.0,0.0047
2264.0,0.0048
2263.0,0.0048
2262.0,0.0048
2261.0,0.0048
2260.0,0.0048
2259.0,0.0048
2258.0,0.0048
2257.0,0.0047
2256.0,0.0047
2255.0,0.0046
2254.0,0.0046
2253.0,0.0046
2252.0,0.0046
2251.0,0.0046
2250.0,0.0046
2249.0,0.0046
2248.0,0.0047
2247.0,0.0047
2246.0,0.0047
2245.0,0.0047
2244.0,0.0048
2243.0,0.0048
2242.0,0.0048
2241.0,0.0047
2240.0,0.0046
2239.0,0.0045
2238.0,0.0045
2237.0,0.0045
2236.0,0.0046
2235.0,0.0046
2234.0,0.0046
2233.0,0.0046
2232.0,0.0045
2231.0,0.0045
2230.0,0.0045
2229.0,0.0046
2228.0,0.0046
2227.0,0.0046
2226.0,0.0045
2225.0,0.0045
2224.0,0.0044
2223.0,0.0045
2222.0,0.0045
2221.0,0.0045
2220.0,0.0045
2219.0,0.0045
2218.0,0.0045
2217.0,0.0045
2216.0,0.0045
2215.0,0.0044
2214.0,0.0044
2213.0,0.0045
2212.0,0.0045
2211.0,0.0045
2210.0,0.0045
2209.0,0.0045
2208.0,0.0045
2207.0,0.0045
2206.0,0.0045
2205.0,0.0045
2204.0,0.0045
2203.0,0.0045
2202.0,0.0045
2201.0,0.0046
2200.0,0.0047
2199.0,0.0047
2198.0,0.0046
2197.0,0.0046
2196.0,0.0045
2195.0,0.0045
2194.0,0.0045
2193.0,0.0044
2192.0,0.0044
2191.0,0.0044
2190.0,0.0044
2189.0,0.0045
2188.0,0.0045
2187.0,0.0046
2186.0,0.0046
2185.0,0.0046
2184.0,0.0045
2183.0,0.0045
2182.0,0.0046
2181.0,0.0046
2180.0,0.0046
2179.0,0.0046
2178.0,0.0045
2177.0,0.0045
2176.0,0.0045
2175.0,0.0045
2174.0,0.0045
2173.0,0.0045
2172.0,0.0045
2171.0,0.0045
2170.0,0.0045
2169.0,0.0046
2168.0,0.0045
2167.0,0.0045
2166.0,0.0045
2165.0,0.0045
2164.0,0.0045
2163.0,0.0044
2162.0,0.0044
2161.0,0.0044
2160.0,0.0044
2159.0,0.0044
2158.0,0.0044
2157.0,0.0043
2156.0,0.0043
2155.0,0.0043
2154.0,0.0044
2153.0,0.0044
2152.0,0.0044
2151.0,0.0044
2150.0,0.0044
2149.0,0.0044
2148.0,0.0045
2147.0,0.0045
2146.0,0.0045
2145.0,0.0045
2144.0,0.0045
2143.0,0.0045
2142.0,0.0044
2141.0,0.0045
2140.0,0.0045
2139.0,0.0045
2138.0,0.0044
2137.0,0.0044
2136.0,0.0044
2135.0,0.0044
2134.0,0.0044
2133.0,0.0045
2132.0,0.0045
2131.0,0.0044
2130.0,0.0044
2129.0,0.0044
2128.0,0.0043
2127.0,0.0043
2126.0,0.0044
2125.0,0.0044
2124.0,0.0045
2123.0,0.0045
2122.0,0.0045
2121.0,0.0045
2120.0,0.0045
2119.0,0.0045
2118.0,0.0045
2117.0,0.0045
2116.0,0.0045
2115.0,0.0044
2114.0,0.0044
2113.0,0.0044
2112.0,0.0044
2111.0,0.0044
2110.0,0.0044
2109.0,0.0044
2108.0,0.0045
2107.0,0.0045
2106.0,0.0045
2105.0,0.0045
2104.0,0.0044
2103.0,0.0044
2102.0,0.0043
2101.0,0.0043
2100.0,0.0043
2099.0,0.0043
2098.0,0.0043
2097.0,0.0043
2096.0,0.0043
2095.0,0.0044
2094.0,0.0045
2093.0,0.0045
2092.0,0.0045
2091.0,0.0045
2090.0,0.0044
2089.0,0.0044
2088.0,0.0045
2087.0,0.0045
2086.0,0.0045
2085.0,0.0044
2084.0,0.0044
2083.0,0.0044
2082.0,0.0044
2081.0,0.0045
2080.0,0.0045
2079.0,0.0045
2078.0,0.0044
2077.0,0.0044
2076.0,0.0044
2075.0,0.0044
2074.0,0.0044
2073.0,0.0044
2072.0,0.0044
2071.0,0.0044
2070.0,0.0044
2069.0,0.0045
2068.0,0.0045
2067.0,0.0044
2066.0,0.0044
2065.0,0.0044
2064.0,0.0043
2063.0,0.0043
2062.0,0.0044
2061.0,0.0044
2060.0,0.0044
2059.0,0.0045
2058.0,0.0045
2057.0,0.0045
2056.0,0.0045
2055.0,0.0045
2054.0,0.0045
2053.0,0.0044
2052.0,0.0044
2051.0,0.0044
2050.0,0.0044
2049.0,0.0044
2048.0,0.0044
2047.0,0.0044
2046.0,0.0044
2045.0,0.0045
2044.0,0.0045
2043.0,0.0045
2042.0,0.0045
2041.0,0.0045
2040.0,0.0045
2039.0,0.0045
2038.0,0.0045
2037.0,0.0045
2036.0,0.0045
2035.0,0.0045
2034.0,0.0045
2033.0,0.0045
2032.0,0.0045
2031.0,0.0045
2030.0,0.0045
2029.0,0.0045
2028.0,0.0045
2027.0,0.0045
2026.0,0.0045
2025.0,0.0045
2024.0,0.0044
2023.0,0.0044
2022.0,0.0044
2021.0,0.0044
2020.0,0.0044
2019.0,0.0044
2018.0,0.0044
2017.0,0.0045
2016.0,0.0045
2015.0,0.0045
2014.0,0.0045
2013.0,0.0045
2012.0,0.0045
2011.0,0.0044
2010.0,0.0044
2009.0,0.0044
2008.0,0.0044
2007.0,0.0043
2006.0,0.0043
2005.0,0.0043
2004.0,0.0043
2003.0,0.0043
2002.0,0.0044
2001.0,0.0044
2000.0,0.0044
1999.0,0.0045
1998.0,0.0045
1997.0,0.0045
1996.0,0.0045
1995.0,0.0045
1994.0,0.0044
1993.0,0.0044
1992.0,0.0044
1991.0,0.0044
1990.0,0.0044
1989.0,0.0044
1988.0,0.0045
1987.0,0.0045
1986.0,0.0045
1985.0,0.0046
1984.0,0.0046
1983.0,0.0045
1982.0,0.0045
1981.0,0.0045
1980.0,0.0045
1979.0,0.0044
1978.0,0.0044
1977.0,0.0044
1976.0,0.0044
1975.0,0.0044
1974.0,0.0044
1973.0,0.0044
1972.0,0.0045
1971.0,0.0045
1970.0,0.0045
1969.0,0.0045
1968.0,0.0045
1967.0,0.0045
1966.0,0.0045
1965.0,0.0045
1964.0,0.0045
1963.0,0.0045
1962.0,0.0045
1961.0,0.0045
1960.0,0.0045
1959.0,0.0045
1958.0,0.0045
1957.0,0.0045
1956.0,0.0045
1955.0,0.0045
1954.0,0.0045
1953.0,0.0045
1952.0,0.0045
1951.0,0.0045
1950.0,0.0045
1949.0,0.0045
1948.0,0.0044
1947.0,0.0044
1946.0,0.0044
1945.0,0.0044
1944.0,0.0044
1943.0,0.0044
1942.0,0.0044
1941.0,0.0044
1940.0,0.0044
1939.0,0.0045
1938.0,0.0045
1937.0,0.0046
1936.0,0.0046
1935.0,0.0046
1934.0,0.0046
1933.0,0.0045
1932.0,0.0045
1931.0,0.0045
1930.0,0.0045
1929.0,0.0045
1928.0,0.0045
1927.0,0.0044
1926.0,0.0044
1925.0,0.0044
1924.0,0.0044
1923.0,0.0044
1922.0,0.0045
1921.0,0.0045
1920.0,0.0046
1919.0,0.0046
1918.0,0.0046
1917.0,0.0045
1916.0,0.0045
1915.0,0.0045
1914.0,0.0045
1913.0,0.0045
1912.0,0.0045
1911.0,0.0045
1910.0,0.0044
1909.0,0.0045
1908.0,0.0045
1907.0,0.0045
1906.0,0.0046
1905.0,0.0045
1904.0,0.0045
1903.0,0.0045
1902.0,0.0045
1901.0,0.0045
1900.0,0.0045
1899.0,0.0045
1898.0,0.0045
1897.0,0.0046
1896.0,0.0046
1895.0,0.0047
1894.0,0.0047
1893.0,0.0047
1892.0,0.0046
1891.0,0.0046
1890.0,0.0046
1889.0,0.0046
1888.0,0.0045
1887.0,0.0045
1886.0,0.0045
1885.0,0.0045
1884.0,0.0045
1883.0,0.0045
1882.0,0.0045
1881.0,0.0045
1880.0,0.0045
1879.0,0.0045
1878.0,0.0046
1877.0,0.0046
1876.0,0.0046
1875.0,0.0046
1874.0,0.0046
1873.0,0.0046
1872.0,0.0046
1871.0,0.0046
1870.0,0.0047
1869.0,0.0047
1868.0,0.0046
1867.0,0.0046
1866.0,0.0045
1865.0,0.0045
1864.0,0.0045
1863.0,0.0045
1862.0,0.0045
1861.0,0.0046
1860.0,0.0046
1859.0,0.0046
1858.0,0.0046
1857.0,0.0046
1856.0,0.0046
1855.0,0.0046
1854.0,0.0046
1853.0,0.0047
1852.0,0.0047
1851.0,0.0047
1850.0,0.0047
1849.0,0.0047
1848.0,0.0046
1847.0,0.0046
1846.0,0.0046
1845.0,0.0047
1844.0,0.0046
1843.0,0.0046
1842.0,0.0046
1841.0,0.0047
1840.0,0.0047
1839.0,0.0047
1838.0,0.0047
1837.0,0.0047
1836.0,0.0047
1835.0,0.0047
1834.0,0.0047
1833.0,0.0047
1832.0,0.0047
1831.0,0.0047
1830.0,0.0046
1829.0,0.0046
1828.0,0.0046
1827.0,0.0046
1826.0,0.0046
1825.0,0.0047
1824.0,0.0047
1823.0,0.0047
1822.0,0.0047
1821.0,0.0046
1820.0,0.0046
1819.0,0.0046
1818.0,0.0046
1817.0,0.0046
1816.0,0.0046
1815.0,0.0046
1814.0,0.0046
1813.0,0.0046
1812.0,0.0047
1811.0,0.0047
1810.0,0.0047
1809.0,0.0046
1808.0,0.0046
1807.0,0.0046
1806.0,0.0046
1805.0,0.0046
1804.0,0.0047
1803.0,0.0048
1802.0,0.0049
1801.0,0.0049
1800.0,0.0049
1799.0,0.0048
1798.0,0.0048
1797.0,0.0047
1796.0,0.0047
1795.0,0.0047
1794.0,0.0047
1793.0,0.0047
1792.0,0.0047
1791.0,0.0046
1790.0,0.0046
1789.0,0.0046
1788.0,0.0047
1787.0,0.0048
1786.0,0.0048
1785.0,0.0048
1784.0,0.0048
1783.0,0.0048
1782.0,0.0048
1781.0,0.0048
1780.0,0.0048
1779.0,0.0048
1778.0,0.0048
1777.0,0.0048
1776.0,0.0048
1775.0,0.0048
1774.0,0.0047
1773.0,0.0047
1772.0,0.0046
1771.0,0.0046
1770.0,0.0047
1769.0,0.0048
1768.0,0.0049
1767.0,0.0049
1766.0,0.0048
1765.0,0.0048
1764.0,0.0049
1763.0,0.0049
1762.0,0.0049
1761.0,0.0049
1760.0,0.0048
1759.0,0.0049
1758.0,0.0049
1757.0,0.005
1756.0,0.0051
1755.0,0.0051
1754.0,0.0051
1753.0,0.0051
1752.0,0.0051
1751.0,0.0052
1750.0,0.0053
1749.0,0.0053
1748.0,0.0053
1747.0,0.0053
1746.0,0.0053
1745.0,0.0054
1744.0,0.0055
1743.0,0.0056
1742.0,0.0056
1741.0,0.0056
1740.0,0.0056
1739.0,0.0056
1738.0,0.0056
1737.0,0.0057
1736.0,0.0058
1735.0,0.0058
1734.0,0.0057
1733.0,0.0056
1732.0,0.0055
1731.0,0.0055
1730.0,0.0055
1729.0,0.0054
1728.0,0.0054
1727.0,0.0054
1726.0,0.0054
1725.0,0.0054
1724.0,0.0055
1723.0,0.0054
1722.0,0.0054
1721.0,0.0054
1720.0,0.0054
1719.0,0.0054
1718.0,0.0054
1717.0,0.0054
1716.0,0.0054
1715.0,0.0055
1714.0,0.0055
1713.0,0.0055
1712.0,0.0054
1711.0,0.0054
1710.0,0.0054
1709.0,0.0053
1708.0,0.0053
1707.0,0.0053
1706.0,0.0053
1705.0,0.0053
1704.0,0.0054
1703.0,0.0056
1702.0,0.0057
1701.0,0.0058
1700.0,0.0057
1699.0,0.0055
1698.0,0.0055
1697.0,0.0056
1696.0,0.0056
1695.0,0.0055
1694.0,0.0055
1693.0,0.0055
1692.0,0.0055
1691.0,0.0055
1690.0,0.0056
1689.0,0.0056
1688.0,0.0056
1687.0,0.0056
1686.0,0.0055
1685.0,0.0055
1684.0,0.0056
1683.0,0.0056
1682.0,0.0056
1681.0,0.0057
1680.0,0.0057
1679.0,0.0058
1678.0,0.0058
1677.0,0.0059
1676.0,0.0059
1675.0,0.0059
1674.0,0.0058
1673.0,0.0058
1672.0,0.0059
1671.0,0.006
1670.0,0.0061
1669.0,0.0062
1668.0,0.0062
1667.0,0.0062
1666.0,0.0061
1665.0,0.0061
1664.0,0.006
1663.0,0.006
1662.0,0.006
1661.0,0.006
1660.0,0.0061
1659.0,0.0061
1658.0,0.0061
1657.0,0.0061
1656.0,0.0061
1655.0,0.0061
1654.0,0.0063
1653.0,0.0064
1652.0,0.0062
1651.0,0.0061
1650.0,0.0061
1649.0,0.0061
1648.0,0.0061
1647.0,0.0061
1646.0,0.0061
1645.0,0.0062
1644.0,0.0062
1643.0,0.0062
1642.0,0.0062
1641.0,0.0061
1640.0,0.0061
1639.0,0.0061
1638.0,0.0062
1637.0,0.0063
1636.0,0.0064
1635.0,0.0063
1634.0,0.0062
1633.0,0.0061
1632.0,0.0061
1631.0,0.0061
1630.0,0.0062
1629.0,0.0062
1628.0,0.0062
1627.0,0.0062
1626.0,0.0062
1625.0,0.0061
1624.0,0.0061
1623.0,0.0061
1622.0,0.006
1621.0,0.006
1620.0,0.0061
1619.0,0.0061
1618.0,0.006
1617.0,0.0059
1616.0,0.0058
1615.0,0.0058
1614.0,0.0059
1613.0,0.0059
1612.0,0.0059
1611.0,0.0059
1610.0,0.0059
1609.0,0.0059
1608.0,0.006
1607.0,0.006
1606.0,0.006
1605.0,0.006
1604.0,0.0059
1603.0,0.0059
1602.0,0.0059
1601.0,0.0059
1600.0,0.0059
1599.0,0.0059
1598.0,0.0059
1597.0,0.0059
1596.0,0.0058
1595.0,0.0058
1594.0,0.0059
1593.0,0.0059
1592.0,0.0059
1591.0,0.0059
1590.0,0.0058
1589.0,0.0058
1588.0,0.0058
1587.0,0.0058
1586.0,0.0059
1585.0,0.0058
1584.0,0.0058
1583.0,0.0058
1582.0,0.0058
1581.0,0.0058
1580.0,0.0057
1579.0,0.0057
1578.0,0.0057
1577.0,0.0056
1576.0,0.0056
1575.0,0.0056
1574.0,0.0056
1573.0,0.0057
1572.0,0.0057
1571.0,0.0057
1570.0,0.0056
1569.0,0.0057
1568.0,0.0057
1567.0,0.0057
1566.0,0.0058
1565.0,0.0057
1564.0,0.0057
1563.0,0.0058
1562.0,0.0058
1561.0,0.0057
1560.0,0.0058
1559.0,0.006
1558.0,0.0059
1557.0,0.0058
1556.0,0.0059
1555.0,0.006
1554.0,0.006
1553.0,0.0059
1552.0,0.0059
1551.0,0.0059
1550.0,0.006
1549.0,0.0061
1548.0,0.0061
1547.0,0.006
1546.0,0.006
1545.0,0.0059
1544.0,0.0058
1543.0,0.0058
1542.0,0.0058
1541.0,0.006
1540.0,0.0061
1539.0,0.006
1538.0,0.0058
1537.0,0.0058
1536.0,0.0058
1535.0,0.0058
1534.0,0.0058
1533.0,0.0058
1532.0,0.0058
1531.0,0.0058
1530.0,0.0057
1529.0,0.0057
1528.0,0.0057
1527.0,0.0057
1526.0,0.0057
1525.0,0.0057
1524.0,0.0057
1523.0,0.0058
1522.0,0.0059
1521.0,0.0058
1520.0,0.0057
1519.0,0.0056
1518.0,0.0056
1517.0,0.0056
1516.0,0.0057
1515.0,0.0057
1514.0,0.0056
1513.0,0.0056
1512.0,0.0055
1511.0,0.0056
1510.0,0.0056
1509.0,0.0058
1508.0,0.006
1507.0,0.0061
1506.0,0.0059
1505.0,0.0057
1504.0,0.0057
1503.0,0.0057
1502.0,0.0057
1501.0,0.0057
1500.0,0.0057
1499.0,0.0057
1498.0,0.0057
1497.0,0.0058
1496.0,0.0059
1495.0,0.006
1494.0,0.006
1493.0,0.006
1492.0,0.006
1491.0,0.006
1490.0,0.006
1489.0,0.006
1488.0,0.006
1487.0,0.006
1486.0,0.0061
1485.0,0.0061
1484.0,0.0062
1483.0,0.0063
1482.0,0.0064
1481.0,0.0066
1480.0,0.0068
1479.0,0.007
1478.0,0.0074
1477.0,0.0082
1476.0,0.0092
1475.0,0.0104
1474.0,0.0118
1473.0,0.0135
1472.0,0.0148
1471.0,0.0156
1470.0,0.0163
1469.0,0.0172
1468.0,0.0183
1467.0,0.0196
1466.0,0.0214
1465.0,0.0236
1464.0,0.0255
1463.0,0.0265
1462.0,0.0269
1461.0,0.0269
1460.0,0.0268
1459.0,0.0265
1458.0,0.0267
1457.0,0.0271
1456.0,0.0272
1455.0,0.027
1454.0,0.0266
1453.0,0.0262
1452.0,0.0257
1451.0,0.0249
1450.0,0.0239
1449.0,0.0227
1448.0,0.0212
1447.0,0.0198
1446.0,0.0185
1445.0,0.0174
1444.0,0.0165
1443.0,0.0157
1442.0,0.0152
1441.0,0.0147
1440.0,0.0145
1439.0,0.0144
1438.0,0.0145
1437.0,0.0147
1436.0,0.0146
1435.0,0.0142
1434.0,0.0136
1433.0,0.0128
1432.0,0.012
1431.0,0.0112
1430.0,0.0107
1429.0,0.0103
1428.0,0.0099
1427.0,0.0097
1426.0,0.0095
1425.0,0.0093
1424.0,0.0091
1423.0,0.0091
1422.0,0.0091
1421.0,0.009
1420.0,0.009
1419.0,0.0089
1418.0,0.0088
1417.0,0.0086
1416.0,0.0085
1415.0,0.0084
1414.0,0.0083
1413.0,0.0083
1412.0,0.0082
1411.0,0.0082
1410.0,0.0082
1409.0,0.0081
1408.0,0.008
1407.0,0.0079
1406.0,0.0079
1405.0,0.0078
1404.0,0.0078
1403.0,0.0077
1402.0,0.0077
1401.0,0.0076
1400.0,0.0076
1399.0,0.0076
1398.0,0.0076
1397.0,0.0075
1396.0,0.0075
1395.0,0.0075
1394.0,0.0075
1393.0,0.0075
1392.0,0.0075
1391.0,0.0075
1390.0,0.0076
1389.0,0.0078
1388.0,0.0081
1387.0,0.0086
1386.0,0.0093
1385.0,0.0103
1384.0,0.0117
1383.0,0.0139
1382.0,0.017
1381.0,0.021
1380.0,0.0259
1379.0,0.031
1378.0,0.0352
1377.0,0.0377
1376.0,0.0379
1375.0,0.0357
1374.0,0.0318
1373.0,0.0276
1372.0,0.024
1371.0,0.0211
1370.0,0.0187
1369.0,0.0168
1368.0,0.0155
1367.0,0.0146
1366.0,0.0141
1365.0,0.0138
1364.0,0.0138
1363.0,0.014
1362.0,0.0144
1361.0,0.0147
1360.0,0.0149
1359.0,0.015
1358.0,0.0148
1357.0,0.0145
1356.0,0.0139
1355.0,0.0133
1354.0,0.0128
1353.0,0.0122
1352.0,0.0118
1351.0,0.0114
1350.0,0.0111
1349.0,0.0109
1348.0,0.0107
1347.0,0.0105
1346.0,0.0103
1345.0,0.0101
1344.0,0.0099
1343.0,0.0098
1342.0,0.0096
1341.0,0.0095
1340.0,0.0095
1339.0,0.0095
1338.0,0.0095
1337.0,0.0095
1336.0,0.0095
1335.0,0.0095
1334.0,0.0096
1333.0,0.0096
1332.0,0.0098
1331.0,0.0098
1330.0,0.0099
1329.0,0.0098
1328.0,0.0097
1327.0,0.0096
1326.0,0.0095
1325.0,0.0094
1324.0,0.0093
1323.0,0.0092
1322.0,0.0091
1321.0,0.009
1320.0,0.009
1319.0,0.0089
1318.0,0.0089
1317.0,0.0089
1316.0,0.0089
1315.0,0.0089
1314.0,0.009
1313.0,0.009
1312.0,0.009
1311.0,0.0089
1310.0,0.0089
1309.0,0.009
1308.0,0.0092
1307.0,0.0094
1306.0,0.0095
1305.0,0.0096
1304.0,0.0096
1303.0,0.0096
1302.0,0.0096
1301.0,0.0096
1300.0,0.0096
1299.0,0.0097
1298.0,0.0097
1297.0,0.0097
1296.0,0.0097
1295.0,0.0096
1294.0,0.0095
1293.0,0.0094
1292.0,0.0093
1291.0,0.0093
1290.0,0.0093
1289.0,0.0092
1288.0,0.0092
1287.0,0.0092
1286.0,0.0091
1285.0,0.0091
1284.0,0.009
1283.0,0.009
1282.0,0.009
1281.0,0.0089
1280.0,0.0089
1279.0,0.0089
1278.0,0.0089
1277.0,0.0089
1276.0,0.0089
1275.0,0.0089
1274.0,0.0089
1273.0,0.0089
1272.0,0.0089
1271.0,0.0089
1270.0,0.0089
1269.0,0.0089
1268.0,0.0089
1267.0,0.009
1266.0,0.0091
1265.0,0.0092
1264.0,0.0093
1263.0,0.0093
1262.0,0.0093
1261.0,0.0094
1260.0,0.0094
1259.0,0.0095
1258.0,0.0097
1257.0,0.0098
1256.0,0.0098
1255.0,0.0098
1254.0,0.0097
1253.0,0.0096
1252.0,0.0095
1251.0,0.0093
1250.0,0.0093
1249.0,0.0092
1248.0,0.0091
1247.0,0.0091
1246.0,0.0091
1245.0,0.009
1244.0,0.0089
1243.0,0.0089
1242.0,0.0089
1241.0,0.009
1240.0,0.009
1239.0,0.009
1238.0,0.009
1237.0,0.009
1236.0,0.009
1235.0,0.009
1234.0,0.009
1233.0,0.0089
1232.0,0.0089
1231.0,0.0089
1230.0,0.0088
1229.0,0.0088
1228.0,0.0088
1227.0,0.0089
1226.0,0.0089
1225.0,0.009
1224.0,0.0091
1223.0,0.0092
1222.0,0.0093
1221.0,0.0093
1220.0,0.0093
1219.0,0.0093
1218.0,0.0093
1217.0,0.0093
1216.0,0.0094
1215.0,0.0093
1214.0,0.0093
1213.0,0.0092
1212.0,0.0092
1211.0,0.0091
1210.0,0.009
1209.0,0.009
1208.0,0.009
1207.0,0.009
1206.0,0.009
1205.0,0.0091
1204.0,0.0091
1203.0,0.0091
1202.0,0.0091
1201.0,0.0091
1200.0,0.0091
1199.0,0.0091
1198.0,0.0091
1197.0,0.009
1196.0,0.0089
1195.0,0.0088
1194.0,0.0089
1193.0,0.0089
1192.0,0.009
1191.0,0.0091
1190.0,0.0091
1189.0,0.0091
1188.0,0.0091
1187.0,0.0092
1186.0,0.0092
1185.0,0.0092
1184.0,0.0093
1183.0,0.0093
1182.0,0.0094
1181.0,0.0094
1180.0,0.0095
1179.0,0.0096
1178.0,0.0097
1177.0,0.0098
1176.0,0.0099
1175.0,0.0101
1174.0,0.0104
1173.0,0.0108
1172.0,0.0113
1171.0,0.0117
1170.0,0.0121
1169.0,0.0125
1168.0,0.0127
1167.0,0.0128
1166.0,0.0127
1165.0,0.0126
1164.0,0.0124
1163.0,0.0122
1162.0,0.012
1161.0,0.0119
1160.0,0.0118
1159.0,0.0118
1158.0,0.0118
1157.0,0.0117
1156.0,0.0117
1155.0,0.0116
1154.0,0.0116
1153.0,0.0116
1152.0,0.0115
1151.0,0.0115
1150.0,0.0114
1149.0,0.0112
1148.0,0.0111
1147.0,0.011
1146.0,0.0109
1145.0,0.0108
1144.0,0.0107
1143.0,0.0106
1142.0,0.0104
1141.0,0.0103
1140.0,0.0103
1139.0,0.0103
1138.0,0.0102
1137.0,0.0101
1136.0,0.01
1135.0,0.0099
1134.0,0.0098
1133.0,0.0098
1132.0,0.0097
1131.0,0.0097
1130.0,0.0097
1129.0,0.0097
1128.0,0.0096
1127.0,0.0096
1126.0,0.0096
1125.0,0.0096
1124.0,0.0096
1123.0,0.0096
1122.0,0.0097
1121.0,0.0098
1120.0,0.0099
1119.0,0.0099
1118.0,0.0099
1117.0,0.0099
1116.0,0.01
1115.0,0.01
1114.0,0.01
1113.0,0.01
1112.0,0.01
1111.0,0.0101
1110.0,0.0101
1109.0,0.0101
1108.0,0.0101
1107.0,0.0102
1106.0,0.0103
1105.0,0.0104
1104.0,0.0106
1103.0,0.0107
1102.0,0.0108
1101.0,0.0107
1100.0,0.0106
1099.0,0.0105
1098.0,0.0104
1097.0,0.0102
1096.0,0.0102
1095.0,0.0101
1094.0,0.0101
1093.0,0.01
1092.0,0.0099
1091.0,0.0099
1090.0,0.0098
1089.0,0.0098
1088.0,0.0098
1087.0,0.0097
1086.0,0.0096
1085.0,0.0096
1084.0,0.0096
1083.0,0.0097
1082.0,0.0097
1081.0,0.0097
1080.0,0.0097
1079.0,0.0097
1078.0,0.0097
1077.0,0.0097
1076.0,0.0097
1075.0,0.0096
1074.0,0.0095
1073.0,0.0095
1072.0,0.0096
1071.0,0.0097
1070.0,0.0098
1069.0,0.0098
1068.0,0.0098
1067.0,0.0098
1066.0,0.0098
1065.0,0.0097
1064.0,0.0097
1063.0,0.0097
1062.0,0.0097
1061.0,0.0098
1060.0,0.0098
1059.0,0.0098
1058.0,0.0098
1057.0,0.0098
1056.0,0.0099
1055.0,0.0099
1054.0,0.0099
1053.0,0.0099
1052.0,0.01
1051.0,0.0101
1050.0,0.0102
1049.0,0.0102
1048.0,0.0101
1047.0,0.0101
1046.0,0.0101
1045.0,0.0101
1044.0,0.0101
1043.0,0.0101
1042.0,0.0102
1041.0,0.0102
1040.0,0.0102
1039.0,0.0102
1038.0,0.0103
1037.0,0.0103
1036.0,0.0104
1035.0,0.0104
1034.0,0.0104
1033.0,0.0104
1032.0,0.0104
1031.0,0.0104
1030.0,0.0104
1029.0,0.0105
1028.0,0.0105
1027.0,0.0104
1026.0,0.0105
1025.0,0.0105
1024.0,0.0105
1023.0,0.0105
1022.0,0.0105
1021.0,0.0105
1020.0,0.0105
1019.0,0.0105
1018.0,0.0105
1017.0,0.0105
1016.0,0.0105
1015.0,0.0106
1014.0,0.0106
1013.0,0.0107
1012.0,0.0108
1011.0,0.0108
1010.0,0.0109
1009.0,0.0109
1008.0,0.0109
1007.0,0.011
1006.0,0.011
1005.0,0.0111
1004.0,0.0114
1003.0,0.0118
1002.0,0.0123
1001.0,0.0129
1000.0,0.0136
999.0,0.0141
998.0,0.0143
997.0,0.0141
996.0,0.0136
995.0,0.013
994.0,0.0124
993.0,0.0119
992.0,0.0115
991.0,0.0112
990.0,0.011
989.0,0.0109
988.0,0.0108
987.0,0.0108
986.0,0.0107
985.0,0.0106
984.0,0.0106
983.0,0.0106
982.0,0.0107
981.0,0.0109
980.0,0.0113
979.0,0.0119
978.0,0.0126
977.0,0.0134
976.0,0.0142
975.0,0.015
974.0,0.0154
973.0,0.0155
972.0,0.0151
971.0,0.0145
970.0,0.0138
969.0,0.0131
968.0,0.0125
967.0,0.012
966.0,0.0117
965.0,0.0114
964.0,0.0112
963.0,0.0109
962.0,0.0107
961.0,0.0106
960.0,0.0106
959.0,0.0105
958.0,0.0105
957.0,0.0104
956.0,0.0103
955.0,0.0103
954.0,0.0102
953.0,0.0102
952.0,0.0101
951.0,0.01
950.0,0.0099
949.0,0.0099
948.0,0.0099
947.0,0.01
946.0,0.01
945.0,0.01
944.0,0.01
943.0,0.0101
942.0,0.0102
941.0,0.0103
940.0,0.0103
939.0,0.0102
938.0,0.0101
937.0,0.01
936.0,0.0099
935.0,0.0098
934.0,0.0097
933.0,0.0096
932.0,0.0095
931.0,0.0094
930.0,0.0093
929.0,0.0094
928.0,0.0094
927.0,0.0094
926.0,0.0095
925.0,0.0095
924.0,0.0094
923.0,0.0094
922.0,0.0094
921.0,0.0095
920.0,0.0095
919.0,0.0095
918.0,0.0095
917.0,0.0094
916.0,0.0094
915.0,0.0094
914.0,0.0093
913.0,0.0094
912.0,0.0094
911.0,0.0095
910.0,0.0096
909.0,0.0096
908.0,0.0096
907.0,0.0096
906.0,0.0097
905.0,0.0098
904.0,0.0101
903.0,0.0105
902.0,0.0109
901.0,0.0112
900.0,0.0114
899.0,0.0115
898.0,0.0115
897.0,0.0114
896.0,0.0112
895.0,0.0109
894.0,0.0106
893.0,0.0104
892.0,0.0102
891.0,0.0101
890.0,0.01
889.0,0.01
888.0,0.01
887.0,0.01
886.0,0.01
885.0,0.01
884.0,0.01
883.0,0.0099
882.0,0.0098
881.0,0.0098
880.0,0.0099
879.0,0.01
878.0,0.0101
877.0,0.0102
876.0,0.0103
875.0,0.0103
874.0,0.0103
873.0,0.0102
872.0,0.0101
871.0,0.0101
870.0,0.0101
869.0,0.0101
868.0,0.0102
867.0,0.0102
866.0,0.0102
865.0,0.0101
864.0,0.0101
863.0,0.0101
862.0,0.0101
861.0,0.01
860.0,0.01
859.0,0.01
858.0,0.0101
857.0,0.0103
856.0,0.0104
855.0,0.0105
854.0,0.0105
853.0,0.0105
852.0,0.0105
851.0,0.0105
850.0,0.0106
849.0,0.0108
848.0,0.011
847.0,0.0113
846.0,0.0116
845.0,0.0121
844.0,0.0128
843.0,0.0135
842.0,0.0141
841.0,0.0143
840.0,0.0141
839.0,0.0135
838.0,0.0129
837.0,0.0124
836.0,0.012
835.0,0.0118
834.0,0.0116
833.0,0.0114
832.0,0.0113
831.0,0.0113
830.0,0.0113
829.0,0.0112
828.0,0.0111
827.0,0.0111
826.0,0.0111
825.0,0.0111
824.0,0.0112
823.0,0.0113
822.0,0.0114
821.0,0.0114
820.0,0.0114
819.0,0.0114
818.0,0.0114
817.0,0.0115
816.0,0.0117
815.0,0.0119
814.0,0.0123
813.0,0.0126
812.0,0.013
811.0,0.0134
810.0,0.0137
809.0,0.014
808.0,0.0142
807.0,0.0142
806.0,0.014
805.0,0.0137
804.0,0.0135
803.0,0.0132
802.0,0.013
801.0,0.0129
800.0,0.0129
799.0,0.0129
798.0,0.0128
797.0,0.0128
796.0,0.0127
795.0,0.0125
794.0,0.0124
793.0,0.0123
792.0,0.0123
791.0,0.0123
790.0,0.0124
789.0,0.0124
788.0,0.0123
787.0,0.0122
786.0,0.0121
785.0,0.012
784.0,0.012
783.0,0.012
782.0,0.0119
781.0,0.012
780.0,0.0121
779.0,0.0122
778.0,0.0122
777.0,0.0122
776.0,0.0121
775.0,0.012
774.0,0.012
773.0,0.012
772.0,0.0119
771.0,0.0119
770.0,0.0119
769.0,0.0118
768.0,0.0118
767.0,0.0118
766.0,0.0119
765.0,0.012
764.0,0.0121
763.0,0.0122
762.0,0.0123
761.0,0.0125
760.0,0.0126
759.0,0.0125
758.0,0.0123
757.0,0.0121
756.0,0.012
755.0,0.0119
754.0,0.012
753.0,0.012
752.0,0.012
751.0,0.012
750.0,0.012
749.0,0.012
748.0,0.0121
747.0,0.0122
746.0,0.0122
745.0,0.0121
744.0,0.0119
743.0,0.0118
742.0,0.0118
741.0,0.0117
740.0,0.0117
739.0,0.0116
738.0,0.0117
737.0,0.0118
736.0,0.0119
735.0,0.0121
734.0,0.0123
733.0,0.0126
732.0,0.0132
731.0,0.0137
730.0,0.014
729.0,0.0139
728.0,0.0136
727.0,0.0132
726.0,0.0128
725.0,0.0126
724.0,0.0127
723.0,0.0132
722.0,0.0138
721.0,0.0145
720.0,0.015
719.0,0.015
718.0,0.0148
717.0,0.0145
716.0,0.0142
715.0,0.0139
714.0,0.0135
713.0,0.0129
712.0,0.0124
711.0,0.012
710.0,0.0119
709.0,0.0121
708.0,0.0123
707.0,0.0124
706.0,0.0125
705.0,0.0124
704.0,0.0124
703.0,0.0126
702.0,0.013
701.0,0.0135
700.0,0.014
699.0,0.0143
698.0,0.0145
697.0,0.0144
696.0,0.0137
695.0,0.0126
694.0,0.0113
693.0,0.0107
692.0,0.0108
691.0,0.0111
690.0,0.0111
689.0,0.0107
688.0,0.0106
687.0,0.0108
686.0,0.0115
685.0,0.0125
684.0,0.0138
683.0,0.0151
682.0,0.0157
681.0,0.0155
680.0,0.0144
679.0,0.0129
678.0,0.0116
677.0,0.0104
676.0,0.0096
675.0,0.009
674.0,0.0085
673.0,0.0081
672.0,0.0078
671.0,0.007
670.0,0.0054
669.0,0.0038
668.0,0.0042
667.0,0.0063
666.0,0.008
665.0,0.0086
664.0,0.009
663.0,0.0097
662.0,0.0104
661.0,0.0107
660.0,0.0104
659.0,0.0101
658.0,0.0104
657.0,0.0114
656.0,0.0122
655.0,0.0121
654.0,0.0112
653.0,0.0103
652.0,0.0102
651.0,0.0107
650.0,0.011
649.0,0.0111
648.0,0.0111
647.0,0.0114
646.0,0.0117
645.0,0.0118
644.0,0.0116
643.0,0.0115
642.0,0.0116
641.0,0.012
640.0,0.0129
639.0,0.0139
638.0,0.0145
637.0,0.0148
636.0,0.0148
635.0,0.0149
634.0,0.0148
633.0,0.0144
632.0,0.0138
631.0,0.0132
630.0,0.0127
629.0,0.0127
628.0,0.0131
627.0,0.0138
626.0,0.0146
625.0,0.0152
624.0,0.0154
623.0,0.0153
622.0,0.0149
621.0,0.0141
620.0,0.0133
619.0,0.0127
618.0,0.0123
617.0,0.0124
616.0,0.0127
615.0,0.0129
614.0,0.0131
613.0,0.0132
612.0,0.0134
611.0,0.0133
610.0,0.0132
609.0,0.0134
608.0,0.0138
607.0,0.014
606.0,0.0136
605.0,0.0132
604.0,0.0131
603.0,0.0131
602.0,0.0126
601.0,0.0114
600.0,0.0106
