nm,Intensity
526.547,832.15
526.684,832.5
526.821,832.0
526.958,834.0
527.095,832.45
527.232,833.15
527.368,832.2
527.505,832.4
527.642,833.2
527.779,832.55
527.916,833.55
528.052,830.95
528.189,832.4
528.326,832.75
528.463,832.6
528.599,832.05
528.736,832.35
528.873,833.25
529.009,832.6
529.146,834.15
529.283,832.3
529.419,833.0
529.556,833.35
529.693,832.95
529.829,832.75
529.966,833.2
530.103,831.6
530.239,833.05
530.376,833.25
530.512,833.3
530.649,832.65
530.785,831.8
530.922,831.75
531.059,832.4
531.195,832.2
531.332,834.5
531.468,832.85
531.605,834.1
531.741,832.8
531.878,832.3
532.014,834.55
532.151,840.05
532.287,837.95
532.423,833.3
532.56,832.6
532.696,832.95
532.833,834.05
532.969,833.4
533.106,833.15
533.242,833.85
533.378,833.65
533.515,835.1
533.651,855.35
533.787,1014.75
533.924,1595.75
534.06,2240.4
534.196,2440.0
534.333,2398.0
534.469,2319.45
534.605,2272.95
534.742,2226.55
534.878,2153.5
535.014,2073.95
535.15,2016.0
535.287,1981.1
535.423,1943.8
535.559,1929.95
535.695,1919.7
535.832,1880.7
535.968,1854.95
536.104,1832.7
536.24,1812.3
536.376,1792.55
536.513,1783.8
536.649,1773.65
536.785,1773.4
536.921,1767.9
537.057,1775.45
537.193,1760.6
537.329,1770.45
537.465,1766.2
537.602,1769.35
537.738,1764.3
537.874,1771.7
538.01,1772.15
538.146,1778.2
538.282,1780.75
538.418,1786.6
538.554,1781.5
538.69,1785.45
538.826,1792.15
538.962,1791.45
539.098,1793.9
539.234,1795.5
539.37,1806.15
539.506,1814.1
539.642,1831.6
539.778,1839.5
539.914,1853.8
540.05,1853.6
540.186,1857.0
540.322,1854.45
540.458,1835.45
540.594,1835.55
540.729,1835.95
540.865,1838.1
541.001,1835.7
541.137,1832.25
541.273,1849.5
541.409,1845.45
541.545,1847.65
541.68,1845.8
541.816,1844.75
541.952,1849.2
542.088,1856.55
542.224,1853.5
542.36,1869.3
542.495,1858.05
542.631,1878.45
542.767,1872.55
542.903,1885.25
543.038,1882.7
543.174,1892.95
543.31,1889.5
543.446,1893.5
543.581,1898.1
543.717,1905.9
543.853,1909.75
543.988,1918.85
544.124,1929.65
544.26,1917.85
544.395,1917.2
544.531,1916.7
544.667,1928.65
544.802,1935.9
544.938,1937.05
545.074,1938.95
545.209,1947.15
545.345,1952.45
545.481,1955.2
545.616,1955.5
545.752,1963.9
545.887,1978.5
546.023,1958.35
546.158,1970.9
546.294,1976.1
546.43,1978.95
546.565,1990.0
546.701,1988.15
546.836,1984.5
546.972,1993.65
547.107,2002.3
547.243,1994.65
547.378,1989.75
547.514,1998.35
547.649,2004.1
547.785,1999.35
547.92,2004.95
548.056,2008.85
548.191,2007.0
548.326,2013.25
548.462,2027.35
548.597,2037.1
548.733,2040.05
548.868,2050.25
549.004,2048.45
549.139,2048.3
549.274,2050.8
549.41,2053.75
549.545,2063.4
549.68,2062.4
549.816,2071.15
549.951,2066.15
550.086,2065.85
550.222,2078.55
550.357,2076.5
550.492,2106.05
550.628,2259.35
550.763,2324.75
550.898,2184.7
551.034,2092.7
551.169,2098.05
551.304,2098.85
551.439,2099.85
551.575,2110.4
551.71,2116.9
551.845,2122.15
551.98,2119.0
552.116,2129.9
552.251,2132.2
552.386,2125.85
552.521,2136.85
552.656,2139.85
552.792,2190.35
552.927,2205.3
553.062,2176.75
553.197,2163.45
553.332,2157.8
553.467,2158.4
553.603,2170.0
553.738,2170.9
553.873,2178.0
554.008,2184.3
554.143,2182.4
554.278,2185.1
554.413,2184.1
554.548,2204.25
554.683,2196.1
554.819,2198.75
554.954,2201.65
555.089,2211.1
555.224,2223.25
555.359,2227.5
555.494,2236.25
555.629,2269.35
555.764,2270.25
555.899,2271.15
556.034,2257.25
556.169,2271.05
556.304,2278.4
556.439,2295.65
556.574,2290.5
556.709,2302.3
556.844,2308.65
556.979,2324.5
557.114,2329.55
557.249,2372.2
557.384,2452.95
557.519,2554.65
557.653,2668.9
557.788,2618.6
557.923,2454.85
558.058,2374.0
558.193,2344.35
558.328,2341.85
558.463,2352.7
558.598,2344.9
558.733,2329.1
558.867,2341.8
559.002,2333.85
559.137,2326.0
559.272,2320.85
559.407,2329.05
559.542,2317.0
559.677,2326.1
559.811,2339.3
559.946,2350.85
560.081,2356.3
560.216,2354.5
560.351,2362.4
560.485,2362.55
560.62,2365.25
560.755,2381.6
560.89,2374.45
561.024,2375.7
561.159,2380.6
561.294,2388.4
561.429,2393.05
561.563,2409.85
561.698,2408.8
561.833,2421.85
561.967,2463.95
562.102,2483.25
562.237,2487.35
562.371,2459.35
562.506,2448.7
562.641,2453.55
562.775,2447.9
562.91,2458.5
563.045,2464.05
563.179,2469.25
563.314,2469.0
563.449,2478.6
563.583,2485.9
563.718,2492.8
563.853,2503.25
563.987,2510.75
564.122,2516.85
564.256,2514.6
564.391,2542.0
564.525,2559.85
564.66,2573.15
564.795,2607.35
564.929,2660.55
565.064,2732.95
565.198,2756.1
565.333,2720.1
565.467,2696.55
565.602,2695.15
565.736,2723.95
565.871,2726.0
566.005,2707.65
566.14,2678.1
566.274,2649.25
566.409,2620.45
566.543,2601.95
566.678,2584.65
566.812,2583.55
566.947,2610.1
567.081,2578.5
567.216,2576.2
567.35,2587.75
567.484,2617.0
567.619,2644.55
567.753,2671.7
567.888,2677.75
568.022,2669.5
568.156,2642.65
568.291,2629.15
568.425,2624.65
568.56,2627.35
568.694,2635.1
568.828,2637.7
568.963,2643.35
569.097,2646.0
569.231,2652.75
569.366,2662.85
569.5,2678.95
569.634,2675.75
569.769,2692.35
569.903,2699.2
570.037,2710.45
570.172,2726.0
570.306,2736.1
570.44,2761.85
570.575,2795.65
570.709,2837.0
570.843,2892.1
570.977,3001.5
571.112,3088.15
571.246,3174.4
571.38,3239.4
571.514,3228.5
571.649,3113.1
571.783,3011.95
571.917,2945.4
572.051,2914.55
572.185,2892.65
572.32,2850.0
572.454,2809.6
572.588,2799.45
572.722,2790.05
572.856,2786.9
572.991,2788.55
573.125,2784.05
573.259,2791.4
573.393,2794.3
573.527,2797.6
573.661,2800.0
573.795,2816.6
573.93,2833.5
574.064,2837.15
574.198,2832.55
574.332,2837.25
574.466,2841.25
574.6,2837.85
574.734,2838.1
574.868,2845.55
575.002,2846.25
575.136,2874.45
575.271,2897.55
575.405,2935.5
575.539,2937.7
575.673,2935.8
575.807,2901.55
575.941,2881.9
576.075,2879.95
576.209,2901.55
576.343,2888.95
576.477,2921.2
576.611,2923.35
576.745,2938.45
576.879,2938.5
577.013,2940.6
577.147,2937.45
577.281,2936.1
577.415,2928.45
577.549,2932.05
577.683,2934.0
577.817,2919.65
577.951,2921.25
578.085,2925.95
578.218,2923.6
578.352,2932.3
578.486,2943.15
578.62,2939.65
578.754,2938.55
578.888,2940.85
579.022,2948.9
579.156,2943.85
579.29,2964.05
579.424,2968.85
579.557,2959.0
579.691,2967.25
579.825,2979.8
579.959,2964.35
580.093,2967.9
580.227,2988.4
580.361,2986.3
580.494,2993.9
580.628,2993.65
580.762,3010.95
580.896,3021.85
581.03,3020.05
581.164,3019.0
581.297,3046.7
581.431,3048.75
581.565,3115.1
581.699,3221.15
581.832,3442.7
581.966,3899.2
582.1,4718.95
582.234,5236.05
582.368,4490.4
582.501,3601.45
582.635,3256.75
582.769,3154.6
582.903,3115.2
583.036,3096.15
583.17,3090.25
583.304,3086.2
583.437,3085.0
583.571,3088.7
583.705,3087.05
583.838,3092.6
583.972,3086.6
584.106,3085.65
584.24,3109.45
584.373,3108.4
584.507,3114.15
584.641,3119.55
584.774,3130.2
584.908,3123.1
585.041,3131.95
585.175,3151.7
585.309,3172.9
585.442,3263.8
585.576,3418.7
585.71,3634.3
585.843,3915.15
585.977,4173.6
586.11,4217.05
586.244,4052.9
586.378,3843.0
586.511,3662.4
586.645,3485.7
586.778,3354.2
586.912,3285.4
587.045,3235.75
587.179,3224.3
587.313,3211.7
587.446,3217.55
587.58,3204.7
587.713,3186.5
587.847,3186.5
587.98,3177.5
588.114,3185.1
588.247,3186.95
588.381,3180.35
588.514,3172.5
588.648,3168.1
588.781,3164.8
588.915,3165.3
589.048,3160.3
589.182,3156.55
589.315,3164.0
589.449,3170.05
589.582,3170.05
589.715,3176.3
589.849,3182.0
589.982,3176.8
590.116,3180.6
590.249,3193.45
590.383,3182.15
590.516,3186.3
590.649,3197.5
590.783,3201.5
590.916,3200.75
591.05,3213.75
591.183,3209.5
591.316,3216.45
591.45,3211.7
591.583,3223.35
591.717,3206.8
591.85,3211.1
591.983,3205.05
592.117,3204.95
592.25,3228.5
592.383,3218.2
592.517,3212.55
592.65,3216.05
592.783,3210.25
592.917,3223.2
593.05,3216.2
593.183,3213.65
593.317,3221.35
593.45,3212.25
593.583,3222.9
593.717,3237.05
593.85,3226.15
593.983,3228.75
594.116,3243.7
594.25,3242.15
594.383,3239.7
594.516,3250.3
594.649,3247.15
594.783,3264.45
594.916,3269.7
595.049,3273.5
595.182,3273.8
595.316,3264.55
595.449,3284.65
595.582,3269.0
595.715,3281.6
595.849,3298.95
595.982,3299.55
596.115,3304.7
596.248,3301.8
596.381,3291.2
596.514,3300.05
596.648,3301.3
596.781,3300.5
596.914,3304.35
597.047,3298.95
597.18,3327.5
597.313,3314.75
597.447,3328.9
597.58,3330.7
597.713,3330.5
597.846,3331.2
597.979,3344.75
598.112,3358.3
598.245,3362.0
598.379,3382.45
598.512,3371.7
598.645,3384.85
598.778,3379.35
598.911,3392.45
599.044,3392.8
599.177,3382.95
599.31,3391.15
599.443,3397.75
599.576,3397.5
599.709,3392.85
599.842,3397.65
599.975,3403.95
600.109,3402.45
600.242,3399.1
600.375,3383.0
600.508,3402.55
600.641,3396.2
600.774,3389.4
600.907,3390.05
601.04,3393.55
601.173,3392.15
601.306,3403.15
601.439,3399.15
601.572,3400.1
601.705,3396.35
601.838,3391.2
601.971,3397.1
602.104,3414.8
602.237,3413.55
602.37,3414.45
602.503,3432.7
602.636,3428.15
602.768,3447.6
602.901,3443.15
603.034,3448.15
603.167,3440.55
603.3,3452.15
603.433,3466.45
603.566,3469.75
603.699,3469.75
603.832,3469.9
603.965,3494.85
604.098,3481.5
604.231,3470.55
604.364,3461.9
604.496,3467.15
604.629,3468.85
604.762,3466.0
604.895,3456.85
605.028,3467.35
605.161,3457.0
605.294,3439.4
605.427,3455.45
605.559,3451.05
605.692,3428.05
605.825,3459.25
605.958,3449.9
606.091,3451.05
606.224,3445.65
606.356,3449.5
606.489,3452.85
606.622,3462.6
606.755,3463.95
606.888,3473.6
607.02,3481.65
607.153,3499.0
607.286,3480.9
607.419,3493.65
607.552,3501.9
607.684,3513.25
607.817,3545.55
607.95,3550.75
608.083,3540.2
608.215,3544.9
608.348,3571.0
608.481,3556.65
608.614,3569.45
608.746,3570.75
608.879,3582.2
609.012,3595.65
609.145,3602.5
609.277,3603.65
609.41,3607.95
609.543,3613.1
609.675,3603.2
609.808,3612.15
609.941,3605.05
610.074,3627.6
610.206,3628.3
610.339,3610.25
610.472,3628.15
610.604,3622.25
610.737,3651.3
610.87,3638.45
611.002,3642.6
611.135,3666.1
611.268,3656.45
611.4,3686.95
611.533,3689.95
611.666,3688.5
611.798,3700.7
611.931,3712.75
612.063,3737.6
612.196,3746.0
612.329,3755.4
612.461,3770.2
612.594,3766.8
612.727,3789.7
612.859,3828.6
612.992,3817.4
613.124,3848.3
613.257,3843.6
613.39,3856.5
613.522,3876.45
613.655,3890.15
613.787,3892.1
613.92,3900.15
614.052,3906.75
614.185,3918.0
614.317,3925.05
614.45,3924.6
614.583,3925.45
614.715,3951.1
614.848,3941.35
614.98,3947.65
615.113,3953.8
615.245,3965.45
615.378,3960.35
615.51,3981.65
615.643,3973.6
615.775,3970.3
615.908,3974.6
616.04,4000.15
616.173,4005.25
616.305,4007.25
616.438,4024.0
616.57,4039.3
616.703,4045.6
616.835,4043.4
616.968,4084.3
617.1,4070.3
617.233,4105.85
617.365,4103.75
617.498,4121.7
617.63,4116.8
617.762,4138.25
617.895,4154.6
618.027,4163.9
618.16,4159.65
618.292,4188.65
618.425,4184.6
618.557,4208.85
618.689,4204.1
618.822,4221.7
618.954,4216.0
619.087,4220.45
619.219,4222.2
619.351,4214.85
619.484,4221.2
619.616,4239.9
619.749,4255.35
619.881,4252.05
620.013,4269.25
620.146,4261.3
620.278,4277.35
620.41,4262.9
620.543,4275.55
620.675,4291.25
620.808,4274.9
620.94,4288.3
621.072,4309.7
621.205,4303.65
621.337,4337.7
621.469,4334.5
621.602,4355.5
621.734,4361.9
621.866,4370.85
621.998,4377.3
622.131,4398.6
622.263,4410.05
622.395,4419.05
622.528,4442.6
622.66,4455.6
622.792,4464.7
622.925,4457.4
623.057,4482.3
623.189,4507.6
623.321,4523.6
623.454,4525.4
623.586,4541.65
623.718,4546.65
623.85,4560.9
623.983,4565.15
624.115,4590.95
624.247,4599.9
624.379,4620.05
624.512,4616.25
624.644,4619.65
624.776,4643.3
624.908,4645.1
625.041,4664.3
625.173,4667.35
625.305,4675.9
625.437,4679.55
625.569,4685.8
625.702,4684.2
625.834,4705.95
625.966,4716.25
626.098,4702.15
626.23,4712.3
626.363,4720.05
626.495,4723.35
626.627,4739.3
626.759,4739.3
626.891,4751.25
627.024,4742.1
627.156,4756.75
627.288,4764.8
627.42,4775.05
627.552,4779.7
627.684,4790.6
627.816,4816.3
627.949,4810.25
628.081,4832.95
628.213,4839.3
628.345,4852.65
628.477,4870.85
628.609,4876.0
628.741,4896.85
628.874,4912.2
629.006,4939.65
629.138,4955.6
629.27,4952.5
629.402,4975.75
629.534,4994.65
629.666,4991.9
629.798,5004.7
629.93,5009.2
630.062,5003.1
630.195,5011.4
630.327,5040.3
630.459,5046.7
630.591,5047.4
630.723,5063.75
630.855,5097.8
630.987,5097.9
631.119,5158.45
631.251,5165.65
631.383,5220.3
631.515,5243.25
631.647,5279.5
631.779,5293.9
631.911,5309.0
632.043,5318.4
632.175,5307.85
632.307,5283.3
632.439,5252.45
632.571,5255.65
632.703,5258.6
632.835,5240.5
632.967,5247.6
633.099,5251.9
633.231,5268.1
633.363,5276.15
633.495,5270.45
633.627,5267.65
633.759,5262.0
633.891,5274.35
634.023,5257.1
634.155,5268.75
634.287,5258.5
634.419,5259.4
634.551,5257.6
634.683,5255.95
634.815,5283.95
634.947,5269.45
635.079,5305.3
635.211,5323.85
635.343,5325.85
635.475,5356.35
635.607,5376.45
635.739,5429.75
635.871,5437.7
636.003,5487.55
636.135,5542.2
636.267,5593.8
636.398,5660.1
636.53,5707.8
636.662,5744.95
636.794,5667.6
636.926,5628.55
637.058,5566.8
637.19,5487.0
637.322,5494.7
637.454,5476.65
637.586,5468.55
637.717,5486.3
637.849,5486.15
637.981,5483.65
638.113,5495.55
638.245,5484.45
638.377,5499.95
638.509,5505.0
638.641,5522.05
638.773,5512.7
638.904,5518.4
639.036,5543.25
639.168,5540.15
639.3,5537.2
639.432,5554.0
639.564,5551.05
639.695,5573.95
639.827,5557.45
639.959,5570.55
640.091,5578.65
640.223,5593.95
640.355,5607.7
640.486,5606.35
640.618,5621.65
640.75,5623.35
640.882,5619.95
641.014,5640.75
641.146,5638.7
641.277,5660.75
641.409,5674.3
641.541,5661.75
641.673,5685.35
641.805,5679.95
641.936,5676.55
642.068,5691.45
642.2,5700.1
642.332,5696.65
642.464,5700.8
642.595,5703.4
642.727,5699.45
642.859,5715.75
642.991,5693.4
643.122,5690.35
643.254,5684.65
643.386,5654.0
643.518,5674.05
643.649,5656.7
643.781,5666.55
643.913,5645.55
644.045,5643.35
644.176,5663.1
644.308,5693.6
644.44,5660.7
644.572,5672.75
644.703,5663.6
644.835,5679.4
644.967,5670.35
645.099,5674.75
645.23,5680.65
645.362,5690.75
645.494,5681.65
645.625,5681.85
645.757,5689.9
645.889,5714.95
646.021,5701.6
646.152,5719.4
646.284,5705.85
646.416,5712.25
646.547,5731.6
646.679,5745.35
646.811,5766.85
646.942,5761.3
647.074,5745.55
647.206,5774.6
647.337,5762.4
647.469,5766.75
647.601,5805.7
647.732,5789.5
647.864,5784.75
647.996,5798.55
648.127,5795.15
648.259,5792.0
648.391,5785.4
648.522,5782.8
648.654,5762.35
648.786,5775.0
648.917,5796.45
649.049,5789.0
649.181,5769.0
649.312,5761.35
649.444,5772.95
649.576,5788.4
649.707,5780.75
649.839,5791.55
649.971,5773.15
650.102,5774.15
650.234,5788.0
650.365,5776.1
650.497,5773.55
650.629,5756.9
650.76,5760.5
650.892,5784.65
651.023,5773.05
651.155,5779.85
651.287,5778.15
651.418,5793.95
651.55,5800.9
651.682,5806.5
651.813,5816.15
651.945,5818.9
652.076,5814.15
652.208,5838.95
652.339,5830.85
652.471,5825.55
652.603,5838.45
652.734,5837.05
652.866,5838.3
652.997,5840.75
653.129,5862.75
653.261,5860.95
653.392,5857.35
653.524,5826.3
653.655,5859.75
653.787,5866.55
653.918,5884.7
654.05,5872.25
654.181,5866.75
654.313,5866.25
654.445,5848.8
654.576,5852.25
654.708,5842.4
654.839,5857.65
654.971,5875.25
655.102,5856.05
655.234,5854.4
655.365,5867.5
655.497,5870.5
655.628,5884.2
655.76,5881.75
655.892,5847.85
656.023,5860.35
656.155,5848.1
656.286,5869.6
656.418,5868.6
656.549,5872.95
656.681,5887.2
656.812,5904.55
656.944,5910.05
657.075,5885.95
657.207,5908.1
657.338,5892.6
657.47,5900.1
657.601,5888.55
657.733,5894.5
657.864,5886.2
657.996,5898.1
658.127,5926.15
658.259,5921.95
658.39,5938.0
658.522,5919.75
658.653,5949.1
658.785,5903.4
658.916,5918.3
659.048,5900.75
659.179,5922.65
659.311,5949.5
659.442,5969.55
659.574,5944.1
659.705,5902.05
659.836,5930.1
659.968,5940.2
660.099,5938.1
660.231,5918.05
660.362,5915.6
660.494,5911.45
660.625,5919.4
660.757,5923.15
660.888,5876.0
661.02,5878.0
661.151,5874.5
661.283,5887.75
661.414,5892.85
661.545,5866.55
661.677,5839.3
661.808,5874.6
661.94,5858.6
662.071,5845.9
662.203,5829.6
662.334,5835.3
662.466,5814.8
662.597,5835.75
662.728,5836.95
662.86,5853.2
662.991,5813.55
663.123,5842.3
