nm,Intensity
526.486,829.8
526.622,827.9
526.759,829.2
526.896,828.6
527.033,829.2
527.169,829.4
527.306,828.7
527.443,828.8
527.579,830.6
527.716,829.8
527.853,827.8
527.989,830.0
528.126,828.8
528.263,828.9
528.399,830.3
528.536,830.2
528.672,829.2
528.809,830.8
528.946,830.2
529.082,829.2
529.219,828.3
529.355,829.1
529.492,827.5
529.628,829.8
529.765,830.1
529.901,827.9
530.038,827.6
530.174,828.0
530.311,829.2
530.447,828.8
530.584,829.0
530.72,828.8
530.857,828.9
530.993,827.9
531.13,829.6
531.266,829.0
531.403,829.7
531.539,828.4
531.676,829.3
531.812,829.5
531.948,833.1
532.085,864.1
532.221,890.5
532.358,846.2
532.494,830.0
532.63,828.2
532.767,829.3
532.903,829.6
533.039,829.4
533.176,829.1
533.312,828.1
533.448,828.4
533.585,828.9
533.721,831.2
533.857,846.3
533.993,875.5
534.13,886.7
534.266,885.5
534.402,880.4
534.539,884.0
534.675,883.8
534.811,894.3
534.947,901.3
535.083,915.3
535.22,914.9
535.356,904.1
535.492,885.5
535.628,871.9
535.764,860.4
535.901,855.1
536.037,851.7
536.173,851.3
536.309,849.2
536.445,849.9
536.581,849.2
536.717,854.8
536.854,862.3
536.99,871.1
537.126,877.1
537.262,876.6
537.398,868.3
537.534,859.9
537.67,852.1
537.806,849.6
537.942,846.4
538.078,848.4
538.214,847.0
538.35,844.9
538.486,844.4
538.622,844.9
538.758,844.1
538.894,845.7
539.03,847.7
539.166,852.1
539.302,856.9
539.438,856.4
539.574,854.7
539.71,850.1
539.846,847.3
539.982,844.1
540.118,840.2
540.254,839.4
540.39,839.8
540.526,839.0
540.662,837.7
540.798,839.6
540.933,841.2
541.069,842.5
541.205,845.4
541.341,851.1
541.477,847.4
541.613,849.0
541.749,843.9
541.884,840.3
542.02,840.5
542.156,837.2
542.292,837.7
542.428,837.9
542.563,836.8
542.699,836.8
542.835,839.2
542.971,837.6
543.106,841.2
543.242,845.0
543.378,851.5
543.514,871.4
543.649,912.3
543.785,916.1
543.921,883.7
544.057,858.5
544.192,850.6
544.328,845.7
544.464,844.4
544.599,841.7
544.735,842.5
544.871,843.0
545.006,845.9
545.142,848.9
545.278,858.2
545.413,863.8
545.549,860.7
545.684,851.3
545.82,845.0
545.956,842.5
546.091,839.6
546.227,838.8
546.362,839.0
546.498,837.4
546.634,837.8
546.769,838.1
546.905,835.9
547.04,838.8
547.176,842.6
547.311,844.1
547.447,851.7
547.582,855.3
547.718,854.0
547.853,845.7
547.989,842.1
548.124,840.1
548.26,838.6
548.395,837.5
548.531,835.7
548.666,835.4
548.802,835.0
548.937,834.7
549.072,833.7
549.208,832.7
549.343,834.4
549.479,834.7
549.614,833.5
549.75,833.4
549.885,831.6
550.02,833.4
550.156,832.4
550.291,833.9
550.426,833.5
550.562,833.4
550.697,832.5
550.832,832.7
550.968,832.8
551.103,833.0
551.238,832.1
551.374,832.9
551.509,833.2
551.644,832.7
551.78,833.2
551.915,831.4
552.05,831.1
552.185,831.9
552.321,832.7
552.456,832.1
552.591,832.7
552.726,832.2
552.862,832.3
552.997,832.7
553.132,833.1
553.267,834.1
553.403,834.2
553.538,832.1
553.673,832.5
553.808,833.1
553.943,834.7
554.078,834.3
554.214,835.3
554.349,833.3
554.484,834.7
554.619,835.0
554.754,836.2
554.889,838.2
555.024,838.3
555.16,837.2
555.295,839.6
555.43,842.3
555.565,845.3
555.7,852.6
555.835,867.6
555.97,914.3
556.105,986.0
556.24,960.5
556.375,892.2
556.51,870.3
556.645,869.1
556.78,876.1
556.915,893.3
557.05,933.4
557.185,946.4
557.32,898.1
557.455,865.3
557.59,855.3
557.725,851.8
557.86,846.7
557.995,844.8
558.13,840.4
558.265,841.0
558.4,839.0
558.535,841.8
558.67,842.9
558.805,847.8
558.94,854.8
559.075,850.1
559.21,842.1
559.345,840.3
559.479,839.0
559.614,839.9
559.749,838.4
559.884,839.5
560.019,847.1
560.154,858.0
560.289,861.3
560.424,852.6
560.558,846.2
560.693,843.7
560.828,847.9
560.963,853.8
561.098,874.2
561.232,910.5
561.367,899.8
561.502,864.6
561.637,848.8
561.772,850.3
561.906,863.1
562.041,879.5
562.176,872.2
562.311,855.2
562.445,850.0
562.58,849.0
562.715,845.3
562.85,846.6
562.984,852.8
563.119,862.5
563.254,870.9
563.388,871.4
563.523,864.3
563.658,854.3
563.792,847.2
563.927,845.6
564.062,843.3
564.196,841.4
564.331,839.5
564.466,840.9
564.6,840.9
564.735,841.4
564.87,840.2
565.004,842.3
565.139,844.1
565.273,848.3
565.408,850.1
565.543,847.5
565.677,844.9
565.812,841.9
565.946,841.4
566.081,842.5
566.215,842.5
566.35,843.5
566.485,847.3
566.619,858.6
566.754,880.7
566.888,919.5
567.023,937.1
567.157,910.6
567.292,913.4
567.426,922.5
567.561,909.9
567.695,875.1
567.83,851.0
567.964,845.2
568.099,841.9
568.233,844.3
568.368,844.5
568.502,845.9
568.636,849.5
568.771,852.4
568.905,861.6
569.04,878.4
569.174,883.8
569.309,869.4
569.443,855.7
569.577,848.0
569.712,844.8
569.846,846.1
569.98,848.2
570.115,849.2
570.249,857.0
570.384,855.1
570.518,847.3
570.652,846.4
570.787,844.8
570.921,845.8
571.055,844.2
571.19,847.3
571.324,849.0
571.458,851.0
571.592,858.0
571.727,860.4
571.861,859.5
571.995,858.2
572.13,855.8
572.264,861.8
572.398,874.8
572.532,904.5
572.667,952.9
572.801,960.3
572.935,905.4
573.069,878.0
573.204,864.1
573.338,859.8
573.472,866.2
573.606,890.1
573.74,899.7
573.875,883.5
574.009,866.0
574.143,863.5
574.277,861.1
574.411,851.2
574.545,846.5
574.68,841.3
574.814,842.9
574.948,841.3
575.082,839.9
575.216,839.4
575.35,840.2
575.484,840.8
575.619,840.4
575.753,842.5
575.887,845.3
576.021,857.5
576.155,890.3
576.289,902.6
576.423,894.4
576.557,892.6
576.691,918.5
576.825,960.7
576.959,1002.0
577.093,1000.6
577.227,950.7
577.361,892.8
577.495,866.9
577.629,852.3
577.763,847.5
577.897,843.2
578.031,842.1
578.165,840.3
578.299,839.3
578.433,837.9
578.567,838.5
578.701,839.3
578.835,835.6
578.969,837.6
579.103,835.1
579.237,836.6
579.371,835.3
579.505,837.2
579.639,834.9
579.773,835.3
579.907,837.9
580.041,834.7
580.175,836.2
580.309,835.4
580.442,838.1
580.576,835.7
580.71,835.1
580.844,835.5
580.978,834.8
581.112,836.2
581.246,837.0
581.38,835.5
581.513,834.8
581.647,834.8
581.781,836.8
581.915,835.8
582.049,836.1
582.183,836.7
582.316,836.3
582.45,837.7
582.584,835.0
582.718,835.9
582.852,836.9
582.985,836.0
583.119,836.6
583.253,838.5
583.387,837.1
583.52,837.1
583.654,835.4
583.788,836.9
583.922,837.3
584.055,836.3
584.189,837.5
584.323,837.7
584.456,837.5
584.59,837.2
584.724,837.4
584.858,837.6
584.991,837.7
585.125,836.2
585.259,838.4
585.392,837.6
585.526,836.1
585.66,837.4
585.793,837.1
585.927,838.3
586.061,835.6
586.194,836.9
586.328,836.7
586.462,836.6
586.595,834.6
586.729,835.7
586.862,834.6
586.996,835.9
587.13,836.5
587.263,836.9
587.397,834.2
587.53,835.4
587.664,834.7
587.797,834.4
587.931,836.3
588.065,834.4
588.198,835.1
588.332,836.2
588.465,835.5
588.599,836.2
588.732,834.6
588.866,835.7
588.999,834.7
589.133,835.3
589.266,834.7
589.4,836.5
589.533,835.4
589.667,835.4
589.8,834.3
589.934,834.1
590.067,835.4
590.201,834.6
590.334,837.2
590.468,834.9
590.601,834.5
590.735,836.5
590.868,833.9
591.001,836.0
591.135,834.0
591.268,834.2
591.402,836.7
591.535,834.3
591.669,835.5
591.802,836.2
591.935,835.7
592.069,835.4
592.202,834.6
592.335,835.7
592.469,836.9
592.602,836.2
592.736,836.3
592.869,835.2
593.002,835.3
593.136,834.1
593.269,835.3
593.402,836.5
593.536,835.9
593.669,833.4
593.802,835.1
593.936,834.7
594.069,836.5
594.202,832.8
594.336,833.2
594.469,835.5
594.602,834.8
594.735,835.0
594.869,834.5
595.002,834.6
595.135,833.9
595.268,833.8
595.402,835.1
595.535,835.1
595.668,834.7
595.801,835.3
595.935,834.1
596.068,834.4
596.201,834.7
596.334,836.3
596.468,835.6
596.601,833.5
596.734,833.1
596.867,835.3
597.0,835.8
597.133,835.5
597.267,834.1
597.4,834.5
597.533,835.7
597.666,836.1
597.799,835.1
597.932,833.5
598.066,836.4
598.199,835.3
598.332,833.4
598.465,834.7
598.598,835.2
598.731,835.2
598.864,835.7
598.998,834.4
599.131,835.1
599.264,835.2
599.397,835.3
599.53,833.7
599.663,834.0
599.796,836.3
599.929,836.7
600.062,836.2
600.195,835.9
600.328,834.8
600.461,835.8
600.594,836.2
600.727,835.4
600.86,834.0
600.994,834.3
601.127,835.6
601.26,835.2
601.393,834.7
601.526,833.6
601.659,833.2
601.792,836.0
601.925,833.6
602.058,835.1
602.191,836.3
602.324,835.6
602.457,835.5
602.589,834.7
602.722,835.1
602.855,834.5
602.988,835.3
603.121,835.4
603.254,835.3
603.387,835.3
603.52,835.5
603.653,836.1
603.786,835.3
603.919,836.5
604.052,837.4
604.185,837.5
604.318,836.7
604.451,836.4
604.583,838.3
604.716,836.3
604.849,837.3
604.982,836.1
605.115,836.6
605.248,836.2
605.381,836.1
605.514,836.4
605.646,835.8
605.779,836.0
605.912,835.9
606.045,837.9
606.178,837.7
606.311,836.5
606.443,836.0
606.576,834.6
606.709,837.1
606.842,836.8
606.975,836.6
607.107,836.7
607.24,837.0
607.373,837.2
607.506,837.8
607.639,836.6
607.771,837.0
607.904,836.7
608.037,835.7
608.17,836.3
608.302,837.7
608.435,837.4
608.568,835.1
608.701,836.3
608.833,837.8
608.966,837.0
609.099,836.3
609.232,838.7
609.364,836.2
609.497,837.1
609.63,838.5
609.762,836.6
609.895,836.9
610.028,837.1
610.161,836.9
610.293,835.0
610.426,838.2
610.559,835.8
610.691,837.0
610.824,836.4
610.957,837.9
611.089,836.9
611.222,835.9
611.355,836.6
611.487,837.7
611.62,837.0
611.752,837.8
611.885,835.6
612.018,836.7
612.15,837.1
612.283,838.7
612.416,835.5
612.548,838.6
612.681,834.9
612.813,836.6
612.946,837.5
613.078,835.8
613.211,837.6
613.344,835.8
613.476,834.8
613.609,837.2
613.741,836.4
613.874,837.7
614.006,837.3
614.139,837.4
614.272,837.2
614.404,836.6
614.537,839.7
614.669,837.3
614.802,839.1
614.934,837.7
615.067,837.7
615.199,838.5
615.332,839.2
615.464,838.7
615.597,838.9
615.729,838.9
615.862,839.4
615.994,837.6
616.127,838.6
616.259,838.3
616.392,838.9
616.524,839.2
616.657,840.2
616.789,839.6
616.922,841.1
617.054,841.2
617.186,840.7
617.319,841.5
617.451,844.5
617.584,842.9
617.716,845.2
617.849,843.2
617.981,842.0
618.113,842.8
618.246,843.5
618.378,842.9
618.511,841.8
618.643,842.4
618.775,842.0
618.908,842.0
619.04,842.7
619.173,844.9
619.305,847.3
619.437,849.4
619.57,852.4
619.702,848.9
619.834,852.6
619.967,854.6
620.099,851.2
620.231,852.2
620.364,847.4
620.496,850.1
620.628,850.4
620.761,850.8
620.893,851.1
621.025,849.2
621.158,852.2
621.29,851.3
621.422,852.6
621.555,856.6
621.687,862.6
621.819,868.4
621.952,871.0
622.084,876.9
622.216,887.5
622.348,898.3
622.481,901.8
622.613,886.9
622.745,879.1
622.878,870.4
623.01,865.3
623.142,860.6
623.274,860.6
623.407,857.2
623.539,854.3
623.671,856.2
623.803,851.6
623.935,851.3
624.068,848.1
624.2,847.8
624.332,844.2
624.464,845.2
624.597,846.8
624.729,845.1
624.861,849.0
624.993,850.9
625.125,852.0
625.258,849.8
625.39,852.7
625.522,852.5
625.654,857.7
625.786,858.0
625.918,861.8
626.051,867.2
626.183,875.3
626.315,883.0
626.447,900.9
626.579,944.8
626.711,1026.0
626.844,1139.5
626.976,1191.8
627.108,1154.9
627.24,1071.0
627.372,1009.2
627.504,976.4
627.636,992.6
627.768,1058.3
627.901,1206.2
628.033,1343.1
628.165,1372.1
628.297,1378.1
628.429,1449.5
628.561,1526.5
628.693,1577.2
628.825,1541.6
628.957,1476.6
629.089,1396.6
629.221,1367.4
629.354,1369.5
629.486,1400.0
629.618,1392.7
629.75,1323.1
629.882,1258.7
630.014,1230.6
630.146,1242.1
630.278,1252.5
630.41,1243.6
630.542,1188.6
630.674,1119.7
630.806,1060.3
630.938,1030.8
631.07,1042.9
631.202,1113.8
631.334,1203.0
631.466,1253.2
631.598,1255.6
631.73,1251.8
631.862,1222.3
631.994,1157.4
632.126,1085.1
632.258,1021.4
632.39,964.2
632.522,930.9
632.654,903.4
632.786,889.5
632.918,876.9
633.05,872.5
633.182,868.1
633.314,861.8
633.446,858.2
633.578,854.4
633.71,853.3
633.842,852.2
633.974,850.0
634.106,847.7
634.237,847.7
634.369,844.6
634.501,843.8
634.633,845.3
634.765,841.1
634.897,843.8
635.029,843.7
635.161,840.3
635.293,842.4
635.425,842.0
635.557,841.4
635.689,840.3
635.82,839.3
635.952,839.4
636.084,839.1
636.216,840.7
636.348,840.1
636.48,837.9
636.612,840.1
636.744,839.8
636.875,839.0
637.007,839.9
637.139,839.8
637.271,839.6
637.403,838.4
637.535,838.0
637.667,838.5
637.798,838.4
637.93,838.5
638.062,839.4
638.194,838.4
638.326,840.5
638.458,839.3
638.589,840.1
638.721,840.6
638.853,840.1
638.985,839.8
639.117,842.3
639.248,838.0
639.38,840.5
639.512,840.0
639.644,840.3
639.776,841.1
639.907,838.6
640.039,839.2
640.171,837.9
640.303,838.2
640.435,839.6
640.566,839.1
640.698,838.4
640.83,840.1
640.962,839.2
641.093,840.6
641.225,841.8
641.357,840.3
641.489,840.2
641.62,839.5
641.752,841.1
641.884,838.8
642.016,839.6
642.147,838.6
642.279,839.1
642.411,837.1
642.543,836.2
642.674,837.0
642.806,835.8
642.938,836.1
643.069,835.7
643.201,836.8
643.333,834.2
643.465,835.6
643.596,836.2
643.728,836.2
643.86,835.1
643.991,835.0
644.123,835.9
644.255,835.7
644.386,835.7
644.518,835.1
644.65,833.3
644.781,834.9
644.913,834.3
645.045,834.3
645.176,834.2
645.308,834.9
645.44,835.3
645.571,835.0
645.703,836.0
645.835,834.5
645.966,832.3
646.098,835.3
646.23,835.2
646.361,834.2
646.493,834.5
646.625,834.9
646.756,833.4
646.888,834.9
647.019,832.3
647.151,834.6
647.283,833.5
647.414,833.1
647.546,833.8
647.678,835.8
647.809,834.3
647.941,834.8
648.072,834.6
648.204,834.6
648.336,835.3
648.467,833.6
648.599,834.7
648.73,834.4
648.862,832.9
648.993,834.3
649.125,833.8
649.257,831.3
649.388,834.6
649.52,832.9
649.651,833.4
649.783,834.6
649.914,833.1
650.046,834.5
650.178,831.7
650.309,833.5
650.441,834.3
650.572,832.9
650.704,834.7
650.835,835.0
650.967,833.5
651.098,834.6
651.23,832.6
651.361,833.8
651.493,833.2
651.625,833.3
651.756,834.2
651.888,833.2
652.019,833.9
652.151,834.2
652.282,832.0
652.414,833.1
652.545,833.6
652.677,834.3
652.808,832.4
652.94,831.7
653.071,832.6
653.203,833.2
653.334,832.6
653.466,834.3
653.597,832.0
653.729,833.2
653.86,832.8
653.992,833.6
654.123,833.2
654.255,834.0
654.386,833.0
654.518,833.1
654.649,831.9
654.78,832.8
654.912,833.3
655.043,833.7
655.175,833.1
655.306,831.6
655.438,831.8
655.569,833.5
655.701,831.3
655.832,832.9
655.964,832.0
656.095,832.3
656.226,832.1
656.358,832.9
656.489,834.0
656.621,832.1
656.752,832.8
656.884,832.3
657.015,832.1
657.146,832.0
657.278,832.1
657.409,832.5
657.541,832.4
657.672,833.0
657.804,832.0
657.935,832.9
658.066,832.9
658.198,832.7
658.329,831.9
658.461,832.4
658.592,832.8
658.723,833.0
658.855,832.0
658.986,834.0
659.118,832.8
659.249,831.3
659.38,832.0
659.512,833.4
659.643,832.8
659.774,833.0
659.906,833.6
660.037,832.1
660.169,831.6
660.3,833.0
660.431,832.2
660.563,831.7
660.694,831.3
660.825,831.9
660.957,832.9
661.088,832.5
661.22,831.6
661.351,832.6
661.482,831.8
661.614,833.2
661.745,832.4
661.876,832.5
662.008,832.2
662.139,832.5
662.27,830.9
662.402,831.0
662.533,831.5
662.664,831.1
662.796,832.2
662.927,832.6
663.058,831.7
