cm-1,Intensity
-123.878,1852.85
-120.866,1853.55
-117.855,1853.55
-114.845,1852.55
-111.836,1854.0
-108.828,1852.7
-105.821,1851.8
-102.815,1853.2
-99.8104,1852.8
-96.8065,1853.05
-93.8036,1853.45
-90.8016,1853.85
-87.8007,1853.45
-84.8008,1854.05
-81.8019,1851.95
-78.8039,1854.6
-75.807,1852.35
-72.8111,1853.45
-69.8161,1853.9
-66.8222,1853.25
-63.8293,1853.4
-60.8373,1853.95
-57.8464,1853.35
-54.8564,1853.1
-51.8675,1853.5
-48.8795,1852.65
-45.8926,1853.2
-42.9066,1854.1
-39.9216,1854.5
-36.9377,1854.45
-33.9547,1854.4
-30.9727,1857.6
-27.9917,1856.25
-25.0117,1858.0
-22.0326,1859.3
-19.0546,1865.6
-16.0776,1888.8
-13.1015,1983.6
-10.1265,2318.0
-7.1524,2937.95
-4.17932,3670.55
-1.20723,3870.45
1.76388,3375.05
4.734,2482.1
7.70313,1966.4
10.6713,1866.0
13.6384,1855.75
16.6046,1854.75
19.5698,1855.85
22.534,1855.15
25.4972,1854.9
28.4595,1854.9
31.4207,1855.9
34.381,1856.05
37.3403,1856.7
40.2986,1856.9
43.256,1858.95
46.2123,1868.05
49.1677,1899.35
52.1221,1973.15
55.0755,2134.35
58.0279,2319.7
60.9794,2514.7
63.9299,2625.5
66.8794,2694.6
69.8279,2713.5
72.7754,2713.95
75.722,2704.35
78.6676,2684.15
81.6122,2663.75
84.5559,2637.5
87.4985,2612.85
90.4402,2609.1
93.381,2600.6
96.3207,2564.0
99.2595,2557.45
102.197,2544.3
105.134,2533.15
108.07,2526.05
111.005,2506.7
113.939,2493.55
116.872,2504.45
119.804,2512.7
122.735,2477.6
125.665,2467.1
128.594,2455.3
131.522,2446.05
134.449,2425.3
137.375,2429.45
140.301,2437.6
143.225,2439.45
146.148,2438.45
149.07,2449.0
151.992,2468.0
154.912,2466.25
157.832,2459.4
160.75,2467.1
163.668,2459.8
166.584,2443.8
169.5,2425.8
172.414,2413.1
175.328,2431.4
178.241,2422.7
181.153,2419.05
184.063,2444.85
186.973,2455.65
189.882,2459.55
192.79,2467.05
195.697,2453.95
198.603,2436.85
201.508,2429.15
204.412,2424.1
207.315,2426.1
210.217,2407.85
213.119,2398.9
216.019,2399.1
218.918,2394.35
221.816,2370.15
224.714,2380.05
227.61,2376.15
230.506,2385.1
233.4,2370.4
236.294,2386.95
239.187,2384.1
242.078,2399.55
244.969,2394.75
247.859,2393.2
250.748,2368.6
253.636,2365.4
256.523,2369.75
259.409,2350.4
262.294,2358.1
265.178,2343.25
268.061,2345.55
270.943,2343.75
273.824,2358.65
276.705,2361.85
279.584,2373.3
282.463,2395.9
285.34,2398.8
288.217,2410.2
291.092,2439.2
293.967,2451.9
296.841,2445.55
299.713,2435.5
302.585,2428.55
305.456,2434.9
308.326,2450.4
311.195,2457.25
314.063,2468.25
316.93,2446.0
319.797,2446.85
322.662,2456.1
325.526,2433.1
328.389,2427.45
331.252,2404.05
334.113,2405.6
336.974,2404.1
339.834,2407.8
342.692,2403.3
345.55,2397.1
348.407,2396.5
351.263,2404.9
354.118,2400.7
356.972,2395.85
359.825,2407.9
362.677,2416.4
365.529,2419.65
368.379,2424.9
371.228,2436.9
374.077,2458.45
376.924,2473.35
379.771,2477.3
382.616,2498.25
385.461,2505.55
388.305,2539.05
391.148,2554.6
393.99,2561.4
396.831,2583.45
399.671,2575.6
402.51,2580.15
405.348,2548.4
408.186,2550.75
411.022,2551.3
413.858,2551.6
416.692,2523.4
419.526,2505.15
422.359,2497.8
425.19,2466.3
428.021,2465.95
430.851,2457.95
433.68,2445.65
436.508,2443.15
439.335,2423.1
442.162,2435.8
444.987,2439.65
447.811,2443.65
450.635,2419.45
453.458,2444.4
456.279,2446.7
459.1,2423.2
461.92,2415.6
464.739,2417.25
467.557,2431.3
470.374,2421.1
473.19,2440.45
476.005,2433.05
478.82,2428.6
481.633,2432.65
484.445,2428.3
487.257,2438.0
490.068,2445.2
492.878,2448.7
495.686,2436.15
498.494,2444.15
501.301,2432.25
504.107,2462.1
506.913,2466.65
509.717,2468.6
512.52,2476.15
515.323,2460.3
518.124,2454.25
520.925,2454.6
523.725,2466.3
526.524,2476.65
529.322,2470.2
532.119,2470.6
534.915,2482.35
537.71,2482.65
540.504,2489.2
543.298,2473.2
546.09,2464.7
548.882,2485.3
551.673,2491.6
554.462,2494.95
557.251,2501.75
560.039,2497.45
562.826,2500.95
565.613,2500.3
568.398,2518.9
571.182,2506.65
573.966,2494.05
576.748,2502.25
579.53,2503.1
582.311,2516.95
585.091,2513.5
587.87,2509.5
590.648,2521.2
593.425,2507.05
596.201,2511.95
598.977,2509.75
601.751,2509.2
604.525,2515.95
607.298,2493.2
610.069,2499.9
612.84,2517.0
615.61,2537.15
618.38,2535.55
621.148,2535.15
623.915,2535.9
626.682,2534.0
629.447,2532.5
632.212,2544.75
634.976,2535.3
637.739,2550.8
640.501,2551.3
643.262,2553.1
646.022,2559.2
648.781,2574.05
651.54,2558.9
654.297,2558.6
657.054,2568.5
659.81,2576.6
662.565,2588.45
665.319,2588.95
668.072,2594.9
670.824,2571.45
673.575,2600.2
676.326,2618.4
679.075,2596.0
681.824,2591.4
684.572,2591.45
687.319,2583.55
690.065,2586.35
692.81,2584.45
695.554,2602.4
698.298,2595.25
701.04,2596.3
703.782,2578.25
706.522,2601.05
709.262,2589.05
712.001,2591.55
714.739,2596.7
717.477,2568.8
720.213,2567.35
722.948,2585.45
725.683,2574.5
728.417,2579.85
731.15,2602.45
733.882,2634.7
736.613,2653.3
739.343,2653.5
742.072,2640.75
744.801,2635.45
747.528,2636.8
750.255,2619.65
752.981,2597.15
755.706,2613.7
758.43,2605.95
761.153,2613.7
763.875,2590.55
766.597,2593.6
769.317,2600.25
772.037,2591.05
774.756,2605.9
777.474,2606.5
780.191,2577.3
782.907,2571.4
785.623,2573.35
788.337,2571.6
791.051,2569.75
793.764,2572.8
796.475,2575.4
799.186,2577.85
801.897,2584.15
804.606,2572.05
807.314,2591.2
810.022,2574.9
812.729,2568.55
815.434,2569.3
818.139,2564.7
820.844,2567.45
823.547,2569.8
826.249,2594.2
828.951,2583.4
831.651,2580.65
834.351,2582.9
837.05,2596.7
839.748,2605.15
842.445,2617.8
845.142,2633.95
847.837,2665.9
850.532,2687.55
853.225,2690.0
855.918,2743.45
858.61,2802.2
861.302,2908.8
863.992,3016.45
866.681,3141.75
869.37,3227.6
872.058,3313.25
874.745,3328.25
877.431,3262.4
880.116,3101.9
882.8,2943.35
885.484,2831.3
888.166,2773.05
890.848,2744.9
893.529,2702.1
896.209,2701.65
898.888,2685.1
901.566,2696.5
904.244,2705.4
906.921,2682.35
909.596,2668.9
912.271,2684.1
914.945,2693.75
917.619,2699.25
920.291,2685.85
922.963,2676.9
925.633,2668.55
928.303,2662.65
930.972,2673.25
933.64,2646.2
936.308,2646.25
938.974,2637.5
941.64,2652.3
944.304,2656.55
946.968,2645.75
949.631,2634.6
952.294,2647.2
954.955,2652.1
957.615,2655.4
960.275,2643.85
962.934,2646.2
965.592,2651.1
968.249,2640.95
970.905,2632.2
973.561,2640.15
976.215,2632.5
978.869,2626.65
981.522,2631.0
984.174,2653.65
986.826,2659.0
989.476,2639.95
992.126,2649.15
994.774,2645.35
997.422,2668.25
1000.07,2664.8
1002.72,2675.2
1005.36,2658.6
1008.01,2660.75
1010.65,2659.9
1013.29,2669.7
1015.93,2684.1
1018.58,2677.05
1021.22,2704.55
1023.86,2716.55
1026.49,2740.55
1029.13,2750.25
1031.77,2777.65
1034.4,2822.35
1037.04,2830.1
1039.67,2847.55
1042.31,2868.1
1044.94,2877.55
1047.57,2897.1
1050.2,2879.55
1052.83,2825.2
1055.46,2789.35
1058.09,2770.55
1060.72,2760.45
1063.35,2746.2
1065.97,2768.4
1068.6,2743.35
1071.22,2753.6
1073.85,2727.6
1076.47,2734.65
1079.09,2745.6
1081.71,2754.3
1084.33,2781.15
1086.95,2828.25
1089.57,2863.7
1092.19,2856.7
1094.81,2869.1
1097.42,2860.75
1100.04,2851.3
1102.65,2843.95
1105.27,2828.65
1107.88,2853.1
1110.49,2867.1
1113.1,2859.5
1115.71,2863.05
1118.32,2923.25
1120.93,2934.2
1123.54,2967.3
1126.15,2998.55
1128.75,3000.55
1131.36,2995.9
1133.97,2960.75
1136.57,2908.6
1139.17,2878.8
1141.77,2857.2
1144.38,2829.45
1146.98,2785.45
1149.58,2757.95
1152.18,2744.2
1154.77,2734.05
1157.37,2749.25
1159.97,2744.4
1162.56,2732.35
1165.16,2748.75
1167.75,2739.25
1170.35,2757.05
1172.94,2765.35
1175.53,2766.2
1178.12,2767.2
1180.71,2801.1
1183.3,2799.75
1185.89,2782.2
1188.48,2800.35
1191.06,2793.75
1193.65,2780.95
1196.23,2775.35
1198.82,2789.8
1201.4,2798.7
1203.99,2798.4
1206.57,2803.75
1209.15,2803.35
1211.73,2800.2
1214.31,2788.1
1216.89,2811.15
1219.46,2802.9
1222.04,2782.6
1224.62,2801.0
1227.19,2797.15
1229.77,2783.45
1232.34,2784.9
1234.92,2770.05
1237.49,2771.15
1240.06,2773.15
1242.63,2799.5
1245.2,2785.0
1247.77,2764.45
1250.34,2777.9
1252.9,2791.4
1255.47,2787.35
1258.04,2817.25
1260.6,2804.15
1263.17,2802.25
1265.73,2794.95
1268.29,2810.4
1270.85,2803.55
1273.41,2820.85
1275.97,2795.8
1278.53,2806.2
1281.09,2815.6
1283.65,2820.95
1286.21,2866.0
1288.76,2892.85
1291.32,2912.1
1293.87,2937.7
1296.43,2961.3
1298.98,2965.6
1301.53,2985.05
1304.08,2951.6
1306.63,2938.05
1309.18,2926.15
1311.73,2921.4
1314.28,2894.3
1316.83,2901.1
1319.38,2891.65
1321.92,2868.6
1324.47,2861.95
1327.01,2890.05
1329.55,2895.75
1332.1,2893.25
1334.64,2915.7
1337.18,2894.8
1339.72,2910.15
1342.26,2905.9
1344.8,2894.45
1347.34,2915.95
1349.87,2915.05
1352.41,2923.8
1354.95,2905.7
1357.48,2902.0
1360.01,2895.65
1362.55,2903.45
1365.08,2881.15
1367.61,2860.7
1370.14,2884.95
1372.67,2877.5
1375.2,2873.2
1377.73,2896.95
1380.26,2928.0
1382.78,2960.05
1385.31,2944.5
1387.84,2955.95
1390.36,2925.6
1392.88,2879.85
1395.41,2878.75
1397.93,2865.45
1400.45,2841.35
1402.97,2830.45
1405.49,2840.7
1408.01,2821.35
1410.53,2827.4
1413.05,2834.45
1415.56,2837.7
1418.08,2837.15
1420.59,2821.25
1423.11,2834.95
1425.62,2855.65
1428.14,2863.6
1430.65,2861.0
1433.16,2879.4
1435.67,2892.8
1438.18,2922.2
1440.69,2996.2
1443.2,3074.4
1445.7,3161.45
1448.21,3213.85
1450.72,3241.25
1453.22,3249.85
1455.72,3263.75
1458.23,3232.8
1460.73,3183.5
1463.23,3122.0
1465.73,3043.85
1468.23,3015.05
1470.73,2974.6
1473.23,2922.3
1475.73,2896.15
1478.23,2878.4
1480.72,2869.85
1483.22,2860.75
1485.72,2853.6
1488.21,2847.0
1490.7,2854.95
1493.2,2835.15
1495.69,2830.8
1498.18,2830.5
1500.67,2806.35
1503.16,2814.3
1505.65,2809.2
1508.14,2824.25
1510.62,2831.05
1513.11,2821.95
1515.59,2857.7
1518.08,2824.5
1520.56,2836.1
1523.05,2826.2
1525.53,2818.65
1528.01,2836.15
1530.49,2824.45
1532.97,2817.2
1535.45,2831.1
1537.93,2808.6
1540.41,2822.75
1542.89,2835.1
1545.36,2806.8
1547.84,2815.85
1550.31,2837.35
1552.79,2824.9
1555.26,2844.35
1557.73,2815.2
1560.21,2827.5
1562.68,2832.75
1565.15,2844.85
1567.62,2850.8
1570.09,2843.0
1572.56,2833.3
1575.02,2850.05
1577.49,2834.75
1579.95,2818.75
1582.42,2836.35
1584.88,2826.2
1587.35,2809.7
1589.81,2820.6
1592.27,2835.0
1594.73,2830.95
1597.19,2844.5
1599.65,2835.8
1602.11,2812.8
1604.57,2819.3
1607.03,2834.6
1609.49,2841.75
1611.94,2816.8
1614.4,2830.7
1616.85,2823.9
1619.31,2826.45
1621.76,2829.7
1624.21,2845.6
1626.66,2824.35
1629.11,2843.35
1631.56,2819.85
1634.01,2830.0
1636.46,2843.1
1638.91,2832.4
1641.36,2827.15
1643.8,2810.1
1646.25,2834.25
1648.69,2835.5
1651.14,2824.6
1653.58,2833.8
1656.02,2827.2
1658.46,2844.9
1660.9,2839.9
1663.35,2849.95
1665.78,2843.35
1668.22,2836.5
1670.66,2825.35
1673.1,2853.15
1675.54,2839.85
1677.97,2831.55
1680.41,2815.25
1682.84,2816.7
1685.27,2825.4
1687.71,2825.7
1690.14,2828.6
1692.57,2827.55
1695.0,2830.45
1697.43,2839.0
1699.86,2828.45
1702.29,2828.35
1704.71,2816.7
1707.14,2823.15
1709.57,2802.8
1711.99,2829.95
1714.42,2836.6
1716.84,2830.3
1719.26,2812.85
1721.69,2835.6
1724.11,2858.2
1726.53,2823.8
1728.95,2813.95
1731.37,2845.85
1733.79,2844.25
1736.21,2872.35
1738.62,2862.55
1741.04,2917.9
1743.46,2963.1
1745.87,2992.5
1748.28,3006.1
1750.7,3035.9
1753.11,3073.5
1755.52,3092.75
1757.93,3105.15
1760.34,3121.7
1762.75,3131.45
1765.16,3144.95
1767.57,3183.15
1769.98,3173.85
1772.39,3147.3
1774.79,3124.9
1777.2,3109.35
1779.6,3065.1
1782.01,3025.2
1784.41,2992.3
1786.81,2956.05
1789.21,2911.5
1791.62,2862.9
1794.02,2881.0
1796.41,2862.35
1798.81,2835.25
1801.21,2841.55
1803.61,2858.75
1806.01,2847.6
1808.4,2828.0
1810.8,2823.6
1813.19,2822.95
1815.59,2828.45
1817.98,2805.45
1820.37,2812.7
1822.76,2816.1
1825.15,2799.1
1827.54,2806.1
1829.93,2782.15
1832.32,2811.35
1834.71,2826.3
1837.1,2815.6
1839.48,2831.5
1841.87,2821.15
1844.25,2807.3
1846.64,2780.45
1849.02,2786.55
1851.4,2820.4
1853.79,2812.4
1856.17,2792.65
1858.55,2782.6
1860.93,2803.0
1863.31,2803.2
1865.69,2813.45
1868.06,2811.85
1870.44,2790.6
1872.82,2810.95
1875.19,2816.7
1877.57,2814.9
1879.94,2799.45
1882.31,2800.8
1884.69,2809.05
1887.06,2795.7
1889.43,2804.1
1891.8,2820.25
1894.17,2816.0
1896.54,2806.75
1898.91,2797.55
1901.28,2829.1
1903.64,2820.25
1906.01,2796.1
1908.38,2802.45
1910.74,2844.05
1913.1,2812.15
1915.47,2821.8
1917.83,2810.65
1920.19,2807.15
1922.55,2808.85
1924.91,2819.95
1927.27,2803.3
1929.63,2798.55
1931.99,2791.05
1934.35,2806.75
1936.71,2811.3
1939.06,2784.25
1941.42,2790.5
1943.77,2793.15
1946.13,2806.85
1948.48,2799.75
1950.83,2771.4
1953.19,2803.95
1955.54,2805.65
1957.89,2790.2
1960.24,2797.75
1962.59,2780.45
1964.93,2817.85
1967.28,2788.15
1969.63,2795.35
1971.98,2788.9
1974.32,2811.55
1976.67,2795.0
1979.01,2794.85
1981.35,2809.6
1983.7,2802.65
1986.04,2796.7
1988.38,2790.6
1990.72,2808.9
1993.06,2802.95
1995.4,2796.7
1997.74,2817.3
2000.08,2800.3
2002.41,2821.25
2004.75,2816.95
2007.09,2809.5
2009.42,2826.6
2011.75,2837.85
2014.09,2808.7
2016.42,2804.8
2018.75,2816.0
2021.08,2798.95
2023.42,2831.7
2025.75,2821.3
2028.08,2813.85
2030.4,2805.0
2032.73,2827.8
2035.06,2818.85
2037.39,2807.45
2039.71,2821.25
2042.04,2821.5
2044.36,2817.1
2046.69,2787.3
2049.01,2786.0
2051.33,2795.5
2053.65,2825.85
2055.97,2804.5
2058.29,2811.15
2060.61,2817.5
2062.93,2798.75
2065.25,2804.8
2067.57,2812.2
2069.88,2810.1
2072.2,2816.1
2074.52,2807.1
2076.83,2818.25
2079.15,2816.55
2081.46,2814.75
2083.77,2828.3
2086.08,2816.5
2088.39,2797.25
2090.7,2796.7
2093.01,2807.7
2095.32,2818.3
2097.63,2820.65
2099.94,2796.4
2102.25,2785.45
2104.55,2796.35
2106.86,2818.2
2109.16,2822.35
2111.47,2813.25
2113.77,2808.9
2116.08,2804.45
2118.38,2803.45
2120.68,2804.85
2122.98,2842.6
2125.28,2817.2
2127.58,2802.15
2129.88,2785.9
2132.18,2789.55
2134.47,2813.75
2136.77,2818.15
2139.07,2833.9
2141.36,2803.05
2143.66,2806.4
2145.95,2815.0
2148.24,2803.25
2150.54,2799.6
2152.83,2797.1
2155.12,2813.85
2157.41,2816.15
2159.7,2811.25
2161.99,2810.5
2164.28,2814.6
2166.57,2815.05
2168.85,2795.95
2171.14,2817.1
2173.43,2824.5
2175.71,2818.05
2178.0,2822.15
2180.28,2821.0
2182.56,2805.05
2184.84,2802.8
2187.13,2800.2
2189.41,2799.4
2191.69,2793.65
2193.97,2828.5
2196.25,2815.4
2198.52,2811.5
2200.8,2797.0
2203.08,2826.05
2205.36,2842.5
2207.63,2823.45
2209.91,2802.3
2212.18,2821.05
2214.45,2799.9
2216.73,2813.05
2219.0,2802.85
2221.27,2821.2
2223.54,2811.2
2225.81,2804.4
2228.08,2793.8
2230.35,2800.0
2232.62,2821.05
2234.89,2816.75
2237.15,2798.75
2239.42,2806.45
2241.68,2804.9
2243.95,2809.7
2246.21,2829.0
2248.48,2821.2
2250.74,2819.3
2253.0,2799.25
2255.26,2800.7
2257.52,2819.05
2259.78,2820.25
2262.04,2819.15
2264.3,2810.15
2266.56,2812.05
2268.82,2817.15
2271.07,2791.85
2273.33,2809.65
2275.58,2802.35
2277.84,2784.15
2280.09,2771.9
2282.35,2784.9
2284.6,2798.65
2286.85,2805.95
2289.1,2801.3
2291.35,2814.2
2293.6,2811.25
2295.85,2816.85
2298.1,2805.1
2300.35,2837.15
2302.6,2819.8
2304.84,2800.4
2307.09,2788.9
2309.33,2812.75
2311.58,2823.35
2313.82,2807.15
2316.07,2803.9
2318.31,2790.4
2320.55,2806.85
2322.79,2804.6
2325.03,2800.25
2327.27,2812.9
2329.51,2832.25
2331.75,2805.25
2333.99,2808.9
2336.23,2811.55
2338.46,2823.0
2340.7,2815.9
2342.93,2813.5
2345.17,2794.7
2347.4,2826.3
2349.64,2820.95
2351.87,2798.7
2354.1,2783.3
2356.33,2819.85
2358.56,2803.25
2360.79,2795.8
2363.02,2799.4
2365.25,2810.5
2367.48,2783.9
2369.71,2776.0
2371.93,2801.05
2374.16,2798.7
2376.38,2805.55
2378.61,2808.8
2380.83,2808.45
2383.06,2796.5
2385.28,2803.85
2387.5,2803.15
2389.72,2801.15
2391.94,2807.3
2394.16,2793.5
2396.38,2792.85
2398.6,2811.15
2400.82,2796.2
2403.04,2810.4
2405.26,2816.4
2407.47,2817.7
2409.69,2817.95
2411.9,2804.7
2414.12,2784.1
2416.33,2801.5
2418.54,2833.55
2420.76,2814.25
2422.97,2812.3
2425.18,2808.1
2427.39,2804.55
2429.6,2792.25
2431.81,2806.3
2434.02,2797.65
2436.22,2795.75
2438.43,2825.7
2440.64,2816.65
2442.84,2796.05
2445.05,2784.3
2447.25,2788.5
2449.46,2793.2
2451.66,2824.25
2453.86,2788.8
2456.06,2777.9
2458.27,2803.5
2460.47,2813.3
2462.67,2809.2
2464.87,2777.1
2467.06,2782.25
2469.26,2793.9
2471.46,2768.95
2473.66,2789.9
2475.85,2776.3
2478.05,2792.7
2480.24,2809.55
2482.44,2806.35
2484.63,2812.25
2486.82,2812.0
2489.02,2790.95
2491.21,2774.45
2493.4,2789.45
2495.59,2806.8
2497.78,2792.55
2499.97,2785.05
2502.16,2799.6
2504.34,2802.6
2506.53,2771.05
2508.72,2770.1
2510.9,2792.5
2513.09,2796.15
2515.27,2817.2
2517.46,2792.55
2519.64,2771.15
2521.82,2780.0
2524.0,2793.85
2526.19,2795.8
2528.37,2786.5
2530.55,2806.3
2532.73,2810.2
2534.9,2803.9
2537.08,2805.15
2539.26,2791.05
2541.44,2794.35
2543.61,2791.65
2545.79,2776.05
2547.96,2791.2
2550.14,2800.85
2552.31,2791.05
2554.48,2786.8
2556.66,2798.4
2558.83,2804.0
2561.0,2798.95
2563.17,2790.15
2565.34,2784.9
2567.51,2777.55
2569.68,2784.45
2571.85,2790.45
2574.01,2803.8
2576.18,2789.55
2578.35,2795.85
2580.51,2774.1
2582.68,2767.9
2584.84,2757.5
2587.0,2788.15
2589.17,2789.0
2591.33,2784.85
2593.49,2799.4
2595.65,2793.1
2597.81,2793.8
2599.97,2768.35
2602.13,2778.15
2604.29,2788.55
2606.45,2787.0
2608.6,2775.85
2610.76,2771.85
2612.92,2781.85
2615.07,2772.7
2617.23,2761.75
2619.38,2748.8
2621.53,2774.1
2623.69,2791.7
2625.84,2785.15
2627.99,2773.2
2630.14,2763.3
2632.29,2795.5
2634.44,2789.6
2636.59,2765.7
2638.74,2766.05
2640.89,2784.8
2643.03,2778.6
2645.18,2784.45
2647.33,2789.05
2649.47,2776.0
2651.62,2738.5
2653.76,2766.65
2655.9,2792.4
2658.05,2795.55
2660.19,2775.6
2662.33,2767.75
2664.47,2774.1
2666.61,2749.05
2668.75,2746.45
2670.89,2783.7
2673.03,2791.85
2675.17,2764.4
2677.3,2766.4
2679.44,2764.65
2681.58,2766.05
2683.71,2774.85
2685.84,2764.45
2687.98,2763.6
2690.11,2762.9
2692.25,2775.35
2694.38,2752.8
2696.51,2747.6
2698.64,2761.0
2700.77,2761.45
2702.9,2754.65
2705.03,2772.55
2707.16,2763.6
2709.29,2757.2
2711.41,2772.6
2713.54,2788.5
2715.67,2751.45
2717.79,2779.1
2719.92,2779.65
2722.04,2787.55
2724.16,2809.9
2726.29,2791.25
2728.41,2787.95
2730.53,2807.1
2732.65,2827.2
2734.77,2839.6
2736.89,2843.15
2739.01,2857.7
2741.13,2850.3
2743.25,2843.9
2745.36,2831.4
2747.48,2816.9
2749.6,2807.7
2751.71,2808.95
2753.83,2815.4
2755.94,2793.05
2758.06,2778.9
2760.17,2805.6
2762.28,2798.65
2764.39,2775.65
2766.5,2760.0
2768.61,2750.5
2770.72,2770.0
2772.83,2772.2
2774.94,2803.7
2777.05,2758.85
2779.16,2741.0
2781.27,2744.5
2783.37,2741.1
2785.48,2764.2
2787.58,2740.95
2789.69,2724.55
2791.79,2725.85
2793.89,2748.3
2796.0,2731.1
2798.1,2728.55
2800.2,2727.65
2802.3,2735.25
2804.4,2744.65
2806.5,2729.65
2808.6,2734.2
2810.7,2728.3
2812.8,2714.9
2814.89,2709.6
2816.99,2741.0
2819.09,2714.95
2821.18,2737.35
2823.28,2736.9
2825.37,2725.1
2827.46,2741.75
2829.56,2742.55
2831.65,2723.25
2833.74,2745.4
2835.83,2723.8
2837.92,2718.0
2840.01,2714.65
2842.1,2733.5
2844.19,2728.5
2846.28,2717.35
2848.37,2733.05
2850.45,2742.15
2852.54,2748.05
2854.63,2754.85
2856.71,2772.55
2858.8,2766.3
2860.88,2769.9
2862.96,2798.8
2865.05,2819.5
2867.13,2832.1
2869.21,2850.85
2871.29,2930.85
2873.37,3038.7
2875.45,3091.1
2877.53,3199.45
2879.61,3210.95
2881.69,3197.2
2883.76,3171.85
2885.84,3165.4
2887.92,3136.75
2889.99,3107.6
2892.07,3071.05
2894.14,3056.6
2896.22,3055.1
2898.29,3068.35
2900.36,3070.5
2902.43,3055.9
2904.5,3088.35
2906.58,3073.45
2908.65,3073.5
2910.72,3101.2
2912.78,3118.6
2914.85,3124.35
2916.92,3112.4
2918.99,3110.45
2921.05,3129.05
2923.12,3127.4
2925.19,3174.05
2927.25,3236.7
2929.32,3323.1
2931.38,3485.7
2933.44,3707.9
2935.5,3943.55
2937.57,4277.45
2939.63,4695.2
2941.69,5112.2
2943.75,5357.7
2945.81,5392.7
2947.87,5399.65
2949.93,5232.05
2951.98,4996.0
2954.04,4669.2
2956.1,4419.9
2958.15,4178.5
2960.21,4004.2
2962.26,3794.35
2964.32,3633.0
2966.37,3497.55
2968.42,3454.6
2970.48,3399.75
2972.53,3371.4
2974.58,3383.6
2976.63,3336.6
2978.68,3291.2
2980.73,3250.4
2982.78,3239.0
2984.83,3300.35
2986.87,3401.55
2988.92,3461.85
2990.97,3509.5
2993.01,3561.8
2995.06,3654.65
2997.1,3721.5
2999.15,3748.0
3001.19,3810.95
3003.24,3798.05
3005.28,3713.1
3007.32,3695.0
3009.36,3580.45
3011.4,3548.8
3013.44,3503.35
3015.48,3350.6
3017.52,3286.05
3019.56,3209.1
3021.6,3133.55
3023.63,3061.4
3025.67,3023.0
3027.71,2933.35
3029.74,2900.2
3031.78,2837.2
3033.81,2804.7
3035.85,2799.05
3037.88,2779.5
3039.91,2760.6
3041.94,2729.65
3043.97,2704.75
3046.01,2710.45
3048.04,2722.55
3050.07,2708.2
3052.09,2679.65
3054.12,2653.6
3056.15,2661.4
3058.18,2654.0
3060.2,2650.1
3062.23,2633.15
3064.26,2636.55
3066.28,2628.6
3068.31,2637.65
3070.33,2656.0
3072.35,2639.9
3074.38,2625.05
3076.4,2619.6
3078.42,2644.0
3080.44,2642.35
3082.46,2628.2
3084.48,2629.75
3086.5,2596.15
3088.52,2593.8
3090.54,2604.45
3092.55,2604.4
3094.57,2616.35
3096.59,2623.05
3098.6,2613.85
3100.62,2588.95
3102.63,2591.6
3104.65,2583.75
3106.66,2601.6
3108.67,2592.05
3110.69,2599.25
3112.7,2575.7
3114.71,2584.55
3116.72,2580.7
3118.73,2595.0
3120.74,2619.05
3122.75,2582.5
3124.76,2570.8
3126.77,2584.75
3128.77,2592.65
3130.78,2580.45
3132.79,2575.35
3134.79,2569.15
3136.8,2558.8
3138.8,2557.3
3140.8,2580.1
3142.81,2564.05
3144.81,2572.3
3146.81,2573.25
3148.81,2580.2
3150.82,2583.25
3152.82,2583.35
3154.82,2562.3
3156.82,2553.9
3158.81,2548.9
3160.81,2561.55
3162.81,2576.2
3164.81,2562.1
3166.8,2565.85
3168.8,2574.75
3170.79,2577.3
3172.79,2571.95
3174.78,2556.75
3176.78,2527.75
3178.77,2533.6
3180.76,2524.65
3182.75,2536.9
3184.75,2549.9
3186.74,2557.3
3188.73,2555.95
3190.72,2542.95
3192.71,2533.4
3194.69,2547.45
3196.68,2543.0
3198.67,2537.45
3200.66,2537.4
3202.64,2535.2
3204.63,2532.4
3206.61,2572.1
3208.6,2567.0
3210.58,2551.75
3212.57,2535.25
3214.55,2555.75
3216.53,2551.9
3218.51,2513.05
3220.49,2520.95
3222.47,2532.3
3224.46,2534.8
3226.43,2541.25
3228.41,2535.35
3230.39,2529.8
3232.37,2529.2
3234.35,2515.3
3236.32,2525.75
3238.3,2505.25
3240.28,2512.5
3242.25,2520.85
3244.23,2520.45
3246.2,2501.9
3248.17,2501.4
3250.15,2512.25
3252.12,2526.25
3254.09,2516.2
3256.06,2498.0
3258.03,2484.55
3260.0,2480.0
3261.97,2495.15
3263.94,2493.55
3265.91,2485.7
3267.88,2491.2
3269.84,2477.45
3271.81,2473.45
3273.78,2473.85
3275.74,2499.35
3277.71,2490.85
3279.67,2498.2
3281.64,2491.0
3283.6,2473.3
3285.56,2476.0
3287.52,2472.35
3289.49,2468.15
3291.45,2485.5
3293.41,2477.35
3295.37,2481.05
3297.33,2498.1
3299.29,2483.9
3301.25,2478.45
3303.2,2485.6
3305.16,2482.45
3307.12,2462.2
3309.07,2461.0
3311.03,2468.25
3312.99,2472.55
3314.94,2472.6
3316.89,2439.15
3318.85,2459.65
3320.8,2467.85
3322.75,2477.35
3324.7,2469.25
3326.66,2439.0
3328.61,2415.95
3330.56,2443.6
3332.51,2449.45
3334.46,2466.55
3336.4,2462.2
3338.35,2448.6
3340.3,2434.35
3342.25,2439.3
3344.19,2453.2
3346.14,2466.4
3348.08,2451.65
3350.03,2435.25
3351.97,2434.4
3353.92,2435.95
3355.86,2435.5
3357.8,2438.75
3359.74,2440.45
3361.69,2442.85
3363.63,2421.8
3365.57,2435.95
3367.51,2425.3
3369.45,2423.35
3371.39,2423.15
3373.32,2421.5
3375.26,2417.45
3377.2,2430.9
3379.13,2423.05
3381.07,2435.95
3383.01,2429.7
3384.94,2411.05
3386.88,2406.65
3388.81,2431.05
3390.74,2424.35
3392.68,2407.95
3394.61,2393.55
3396.54,2410.05
3398.47,2407.4
3400.4,2415.05
3402.33,2412.95
3404.26,2412.25
3406.19,2413.65
3408.12,2405.45
3410.05,2399.05
3411.97,2414.95
3413.9,2406.8
3415.83,2406.75
3417.75,2392.95
3419.68,2380.8
3421.6,2380.15
3423.53,2400.5
3425.45,2397.4
3427.37,2398.2
3429.3,2399.95
3431.22,2413.85
3433.14,2414.85
3435.06,2402.95
3436.98,2383.35
3438.9,2364.0
3440.82,2378.1
3442.74,2390.6
3444.66,2382.8
3446.57,2360.7
3448.49,2375.7
3450.41,2389.9
3452.32,2395.3
3454.24,2385.15
3456.15,2373.7
3458.07,2392.4
3459.98,2396.05
3461.9,2384.7
3463.81,2378.25
3465.72,2378.7
3467.63,2364.85
3469.54,2366.4
3471.46,2363.8
3473.37,2376.3
3475.28,2366.8
3477.18,2375.25
3479.09,2378.6
3481.0,2374.45
3482.91,2358.05
3484.82,2366.35
3486.72,2379.9
3488.63,2362.9
3490.53,2336.7
3492.44,2341.5
3494.34,2339.55
3496.25,2343.95
3498.15,2357.7
3500.05,2348.75
3501.96,2344.8
3503.86,2339.35
3505.76,2346.3
3507.66,2344.5
3509.56,2334.05
3511.46,2345.9
3513.36,2358.9
3515.26,2342.6
3517.15,2349.15
3519.05,2344.9
3520.95,2330.2
3522.85,2349.25
3524.74,2340.45
3526.64,2339.9
3528.53,2329.65
3530.43,2324.75
3532.32,2328.8
3534.21,2340.6
3536.11,2340.65
3538.0,2351.1
3539.89,2343.85
3541.78,2338.2
3543.67,2329.55
3545.56,2338.55
3547.45,2320.3
3549.34,2311.7
3551.23,2315.65
3553.12,2308.5
3555.0,2320.15
3556.89,2319.1
3558.78,2317.8
3560.66,2320.0
3562.55,2327.85
3564.43,2333.2
3566.32,2319.45
3568.2,2314.65
3570.09,2309.1
3571.97,2301.85
3573.85,2314.55
3575.73,2308.55
3577.61,2314.35
3579.49,2313.2
3581.37,2308.75
3583.25,2312.2
3585.13,2292.9
3587.01,2297.6
3588.89,2301.6
3590.77,2298.35
3592.64,2320.95
3594.52,2311.55
3596.4,2298.05
3598.27,2283.95
3600.15,2292.1
3602.02,2288.4
3603.9,2290.9
3605.77,2290.55
3607.64,2288.25
3609.51,2290.55
3611.39,2294.1
3613.26,2288.85
3615.13,2270.8
3617.0,2277.35
3618.87,2272.3
3620.74,2282.75
3622.61,2272.75
3624.48,2262.85
3626.34,2260.65
3628.21,2269.6
3630.08,2285.05
3631.94,2277.4
3633.81,2280.85
3635.67,2271.85
3637.54,2276.65
3639.4,2269.55
3641.27,2258.05
3643.13,2263.25
3644.99,2240.45
3646.85,2256.9
3648.72,2258.85
3650.58,2271.05
3652.44,2275.75
3654.3,2272.0
3656.16,2281.8
3658.02,2256.65
3659.87,2256.55
3661.73,2271.1
3663.59,2271.7
3665.45,2267.3
