cm-1,A
4000.0,-0.0014
3999.0,-0.0014
3998.0,-0.0014
3997.0,-0.0013
3996.0,-0.0013
3995.0,-0.0013
3994.0,-0.0013
3993.0,-0.0013
3992.0,-0.0014
3991.0,-0.0014
3990.0,-0.0015
3989.0,-0.0015
3988.0,-0.0015
3987.0,-0.0016
3986.0,-0.0017
3985.0,-0.0017
3984.0,-0.0016
3983.0,-0.0016
3982.0,-0.0015
3981.0,-0.0015
3980.0,-0.0015
3979.0,-0.0015
3978.0,-0.0016
3977.0,-0.0016
3976.0,-0.0016
3975.0,-0.0016
3974.0,-0.0016
3973.0,-0.0015
3972.0,-0.0015
3971.0,-0.0015
3970.0,-0.0015
3969.0,-0.0015
3968.0,-0.0015
3967.0,-0.0016
3966.0,-0.0016
3965.0,-0.0016
3964.0,-0.0015
3963.0,-0.0015
3962.0,-0.0016
3961.0,-0.0016
3960.0,-0.0015
3959.0,-0.0014
3958.0,-0.0013
3957.0,-0.0012
3956.0,-0.0012
3955.0,-0.0013
3954.0,-0.0013
3953.0,-0.0013
3952.0,-0.0013
3951.0,-0.0013
3950.0,-0.0012
3949.0,-0.0012
3948.0,-0.0012
3947.0,-0.0012
3946.0,-0.0013
3945.0,-0.0014
3944.0,-0.0014
3943.0,-0.0014
3942.0,-0.0014
3941.0,-0.0015
3940.0,-0.0015
3939.0,-0.0015
3938.0,-0.0015
3937.0,-0.0015
3936.0,-0.0015
3935.0,-0.0016
3934.0,-0.0016
3933.0,-0.0015
3932.0,-0.0015
3931.0,-0.0015
3930.0,-0.0016
3929.0,-0.0017
3928.0,-0.0018
3927.0,-0.0018
3926.0,-0.0017
3925.0,-0.0016
3924.0,-0.0015
3923.0,-0.0014
3922.0,-0.0014
3921.0,-0.0015
3920.0,-0.0015
3919.0,-0.0016
3918.0,-0.0016
3917.0,-0.0015
3916.0,-0.0015
3915.0,-0.0015
3914.0,-0.0015
3913.0,-0.0015
3912.0,-0.0015
3911.0,-0.0015
3910.0,-0.0015
3909.0,-0.0016
3908.0,-0.0017
3907.0,-0.0017
3906.0,-0.0016
3905.0,-0.0015
3904.0,-0.0015
3903.0,-0.0016
3902.0,-0.0018
3901.0,-0.0018
3900.0,-0.0017
3899.0,-0.0015
3898.0,-0.0013
3897.0,-0.0013
3896.0,-0.0013
3895.0,-0.0014
3894.0,-0.0014
3893.0,-0.0014
3892.0,-0.0014
3891.0,-0.0015
3890.0,-0.0016
3889.0,-0.0017
3888.0,-0.0017
3887.0,-0.0018
3886.0,-0.0018
3885.0,-0.0018
3884.0,-0.0019
3883.0,-0.0019
3882.0,-0.0019
3881.0,-0.0018
3880.0,-0.0018
3879.0,-0.0017
3878.0,-0.0017
3877.0,-0.0016
3876.0,-0.0016
3875.0,-0.0015
3874.0,-0.0015
3873.0,-0.0015
3872.0,-0.0015
3871.0,-0.0016
3870.0,-0.0016
3869.0,-0.0017
3868.0,-0.0017
3867.0,-0.0017
3866.0,-0.0016
3865.0,-0.0015
3864.0,-0.0015
3863.0,-0.0015
3862.0,-0.0015
3861.0,-0.0015
3860.0,-0.0015
3859.0,-0.0014
3858.0,-0.0013
3857.0,-0.0012
3856.0,-0.0012
3855.0,-0.0013
3854.0,-0.0014
3853.0,-0.0015
3852.0,-0.0015
3851.0,-0.0016
3850.0,-0.0016
3849.0,-0.0016
3848.0,-0.0016
3847.0,-0.0015
3846.0,-0.0015
3845.0,-0.0015
3844.0,-0.0016
3843.0,-0.0016
3842.0,-0.0017
3841.0,-0.0017
3840.0,-0.0017
3839.0,-0.0018
3838.0,-0.0018
3837.0,-0.0018
3836.0,-0.0018
3835.0,-0.0017
3834.0,-0.0017
3833.0,-0.0016
3832.0,-0.0016
3831.0,-0.0016
3830.0,-0.0016
3829.0,-0.0017
3828.0,-0.0017
3827.0,-0.0017
3826.0,-0.0018
3825.0,-0.0018
3824.0,-0.0019
3823.0,-0.0019
3822.0,-0.0018
3821.0,-0.0017
3820.0,-0.0016
3819.0,-0.0016
3818.0,-0.0016
3817.0,-0.0015
3816.0,-0.0014
3815.0,-0.0014
3814.0,-0.0013
3813.0,-0.0014
3812.0,-0.0014
3811.0,-0.0015
3810.0,-0.0016
3809.0,-0.0017
3808.0,-0.0019
3807.0,-0.002
3806.0,-0.0021
3805.0,-0.002
3804.0,-0.002
3803.0,-0.002
3802.0,-0.0019
3801.0,-0.0019
3800.0,-0.0019
3799.0,-0.0019
3798.0,-0.0018
3797.0,-0.0017
3796.0,-0.0016
3795.0,-0.0015
3794.0,-0.0015
3793.0,-0.0015
3792.0,-0.0015
3791.0,-0.0015
3790.0,-0.0015
3789.0,-0.0015
3788.0,-0.0015
3787.0,-0.0015
3786.0,-0.0015
3785.0,-0.0016
3784.0,-0.0017
3783.0,-0.0018
3782.0,-0.0019
3781.0,-0.0019
3780.0,-0.0019
3779.0,-0.0018
3778.0,-0.0017
3777.0,-0.0016
3776.0,-0.0016
3775.0,-0.0016
3774.0,-0.0017
3773.0,-0.0017
3772.0,-0.0018
3771.0,-0.0019
3770.0,-0.0019
3769.0,-0.0018
3768.0,-0.0017
3767.0,-0.0016
3766.0,-0.0016
3765.0,-0.0016
3764.0,-0.0016
3763.0,-0.0017
3762.0,-0.0017
3761.0,-0.0017
3760.0,-0.0017
3759.0,-0.0017
3758.0,-0.0017
3757.0,-0.0018
3756.0,-0.0018
3755.0,-0.0018
3754.0,-0.0019
3753.0,-0.002
3752.0,-0.002
3751.0,-0.0019
3750.0,-0.0018
3749.0,-0.0018
3748.0,-0.0017
3747.0,-0.0016
3746.0,-0.0016
3745.0,-0.0016
3744.0,-0.0016
3743.0,-0.0017
3742.0,-0.0018
3741.0,-0.0018
3740.0,-0.0018
3739.0,-0.0018
3738.0,-0.0019
3737.0,-0.0018
3736.0,-0.0017
3735.0,-0.0016
3734.0,-0.0015
3733.0,-0.0014
3732.0,-0.0014
3731.0,-0.0015
3730.0,-0.0015
3729.0,-0.0015
3728.0,-0.0015
3727.0,-0.0015
3726.0,-0.0015
3725.0,-0.0015
3724.0,-0.0016
3723.0,-0.0017
3722.0,-0.0017
3721.0,-0.0017
3720.0,-0.0017
3719.0,-0.0016
3718.0,-0.0016
3717.0,-0.0017
3716.0,-0.0017
3715.0,-0.0016
3714.0,-0.0015
3713.0,-0.0012
3712.0,-0.0011
3711.0,-0.0012
3710.0,-0.0013
3709.0,-0.0015
3708.0,-0.0016
3707.0,-0.0016
3706.0,-0.0016
3705.0,-0.0016
3704.0,-0.0016
3703.0,-0.0016
3702.0,-0.0015
3701.0,-0.0014
3700.0,-0.0013
3699.0,-0.0013
3698.0,-0.0012
3697.0,-0.0012
3696.0,-0.0013
3695.0,-0.0014
3694.0,-0.0015
3693.0,-0.0015
3692.0,-0.0016
3691.0,-0.0015
3690.0,-0.0015
3689.0,-0.0014
3688.0,-0.0014
3687.0,-0.0014
3686.0,-0.0013
3685.0,-0.0013
3684.0,-0.0013
3683.0,-0.0013
3682.0,-0.0014
3681.0,-0.0015
3680.0,-0.0016
3679.0,-0.0016
3678.0,-0.0016
3677.0,-0.0014
3676.0,-0.0012
3675.0,-0.001
3674.0,-0.001
3673.0,-0.0011
3672.0,-0.0011
3671.0,-0.0012
3670.0,-0.0013
3669.0,-0.0014
3668.0,-0.0014
3667.0,-0.0014
3666.0,-0.0014
3665.0,-0.0014
3664.0,-0.0013
3663.0,-0.0013
3662.0,-0.0012
3661.0,-0.0013
3660.0,-0.0013
3659.0,-0.0013
3658.0,-0.0014
3657.0,-0.0014
3656.0,-0.0014
3655.0,-0.0015
3654.0,-0.0015
3653.0,-0.0015
3652.0,-0.0015
3651.0,-0.0015
3650.0,-0.0015
3649.0,-0.0016
3648.0,-0.0015
3647.0,-0.0015
3646.0,-0.0015
3645.0,-0.0014
3644.0,-0.0014
3643.0,-0.0014
3642.0,-0.0014
3641.0,-0.0014
3640.0,-0.0014
3639.0,-0.0014
3638.0,-0.0013
3637.0,-0.0014
3636.0,-0.0014
3635.0,-0.0014
3634.0,-0.0014
3633.0,-0.0014
3632.0,-0.0014
3631.0,-0.0014
3630.0,-0.0015
3629.0,-0.0015
3628.0,-0.0014
3627.0,-0.0014
3626.0,-0.0015
3625.0,-0.0015
3624.0,-0.0016
3623.0,-0.0016
3622.0,-0.0016
3621.0,-0.0016
3620.0,-0.0015
3619.0,-0.0016
3618.0,-0.0017
3617.0,-0.0018
3616.0,-0.0019
3615.0,-0.0018
3614.0,-0.0018
3613.0,-0.0017
3612.0,-0.0017
3611.0,-0.0017
3610.0,-0.0017
3609.0,-0.0017
3608.0,-0.0016
3607.0,-0.0016
3606.0,-0.0016
3605.0,-0.0017
3604.0,-0.0018
3603.0,-0.0019
3602.0,-0.0019
3601.0,-0.0019
3600.0,-0.0018
3599.0,-0.0017
3598.0,-0.0015
3597.0,-0.0015
3596.0,-0.0014
3595.0,-0.0014
3594.0,-0.0015
3593.0,-0.0017
3592.0,-0.0018
3591.0,-0.0019
3590.0,-0.0019
3589.0,-0.0019
3588.0,-0.0017
3587.0,-0.0016
3586.0,-0.0016
3585.0,-0.0017
3584.0,-0.0017
3583.0,-0.0017
3582.0,-0.0017
3581.0,-0.0017
3580.0,-0.0016
3579.0,-0.0016
3578.0,-0.0015
3577.0,-0.0014
3576.0,-0.0014
3575.0,-0.0014
3574.0,-0.0014
3573.0,-0.0014
3572.0,-0.0015
3571.0,-0.0015
3570.0,-0.0016
3569.0,-0.0016
3568.0,-0.0016
3567.0,-0.0015
3566.0,-0.0015
3565.0,-0.0015
3564.0,-0.0015
3563.0,-0.0015
3562.0,-0.0016
3561.0,-0.0017
3560.0,-0.0017
3559.0,-0.0018
3558.0,-0.0017
3557.0,-0.0017
3556.0,-0.0017
3555.0,-0.0017
3554.0,-0.0017
3553.0,-0.0017
3552.0,-0.0017
3551.0,-0.0017
3550.0,-0.0018
3549.0,-0.0018
3548.0,-0.0018
3547.0,-0.0017
3546.0,-0.0017
3545.0,-0.0017
3544.0,-0.0017
3543.0,-0.0017
3542.0,-0.0016
3541.0,-0.0016
3540.0,-0.0015
3539.0,-0.0015
3538.0,-0.0015
3537.0,-0.0016
3536.0,-0.0016
3535.0,-0.0016
3534.0,-0.0017
3533.0,-0.0018
3532.0,-0.0019
3531.0,-0.0019
3530.0,-0.0017
3529.0,-0.0015
3528.0,-0.0014
3527.0,-0.0013
3526.0,-0.0014
3525.0,-0.0014
3524.0,-0.0014
3523.0,-0.0014
3522.0,-0.0014
3521.0,-0.0014
3520.0,-0.0013
3519.0,-0.0013
3518.0,-0.0014
3517.0,-0.0015
3516.0,-0.0016
3515.0,-0.0017
3514.0,-0.0017
3513.0,-0.0017
3512.0,-0.0017
3511.0,-0.0017
3510.0,-0.0017
3509.0,-0.0017
3508.0,-0.0017
3507.0,-0.0018
3506.0,-0.0017
3505.0,-0.0017
3504.0,-0.0015
3503.0,-0.0014
3502.0,-0.0014
3501.0,-0.0015
3500.0,-0.0016
3499.0,-0.0016
3498.0,-0.0016
3497.0,-0.0016
3496.0,-0.0016
3495.0,-0.0016
3494.0,-0.0016
3493.0,-0.0016
3492.0,-0.0016
3491.0,-0.0016
3490.0,-0.0016
3489.0,-0.0016
3488.0,-0.0015
3487.0,-0.0015
3486.0,-0.0015
3485.0,-0.0015
3484.0,-0.0015
3483.0,-0.0014
3482.0,-0.0014
3481.0,-0.0014
3480.0,-0.0014
3479.0,-0.0015
3478.0,-0.0016
3477.0,-0.0017
3476.0,-0.0017
3475.0,-0.0016
3474.0,-0.0016
3473.0,-0.0015
3472.0,-0.0015
3471.0,-0.0016
3470.0,-0.0017
3469.0,-0.0017
3468.0,-0.0017
3467.0,-0.0017
3466.0,-0.0017
3465.0,-0.0018
3464.0,-0.0018
3463.0,-0.0018
3462.0,-0.0018
3461.0,-0.0017
3460.0,-0.0015
3459.0,-0.0015
3458.0,-0.0014
3457.0,-0.0015
3456.0,-0.0015
3455.0,-0.0016
3454.0,-0.0017
3453.0,-0.0017
3452.0,-0.0016
3451.0,-0.0015
3450.0,-0.0015
3449.0,-0.0015
3448.0,-0.0015
3447.0,-0.0016
3446.0,-0.0017
3445.0,-0.0017
3444.0,-0.0017
3443.0,-0.0016
3442.0,-0.0016
3441.0,-0.0016
3440.0,-0.0016
3439.0,-0.0015
3438.0,-0.0014
3437.0,-0.0013
3436.0,-0.0014
3435.0,-0.0014
3434.0,-0.0014
3433.0,-0.0015
3432.0,-0.0014
3431.0,-0.0014
3430.0,-0.0014
3429.0,-0.0014
3428.0,-0.0015
3427.0,-0.0015
3426.0,-0.0015
3425.0,-0.0015
3424.0,-0.0015
3423.0,-0.0016
3422.0,-0.0016
3421.0,-0.0017
3420.0,-0.0017
3419.0,-0.0017
3418.0,-0.0017
3417.0,-0.0017
3416.0,-0.0017
3415.0,-0.0017
3414.0,-0.0017
3413.0,-0.0017
3412.0,-0.0017
3411.0,-0.0017
3410.0,-0.0016
3409.0,-0.0016
3408.0,-0.0015
3407.0,-0.0016
3406.0,-0.0016
3405.0,-0.0017
3404.0,-0.0018
3403.0,-0.0018
3402.0,-0.0018
3401.0,-0.0017
3400.0,-0.0016
3399.0,-0.0016
3398.0,-0.0016
3397.0,-0.0016
3396.0,-0.0016
3395.0,-0.0016
3394.0,-0.0015
3393.0,-0.0015
3392.0,-0.0015
3391.0,-0.0015
3390.0,-0.0016
3389.0,-0.0017
3388.0,-0.0018
3387.0,-0.0018
3386.0,-0.0017
3385.0,-0.0015
3384.0,-0.0014
3383.0,-0.0013
3382.0,-0.0014
3381.0,-0.0014
3380.0,-0.0015
3379.0,-0.0015
3378.0,-0.0016
3377.0,-0.0017
3376.0,-0.0017
3375.0,-0.0017
3374.0,-0.0016
3373.0,-0.0016
3372.0,-0.0017
3371.0,-0.0017
3370.0,-0.0016
3369.0,-0.0016
3368.0,-0.0015
3367.0,-0.0015
3366.0,-0.0015
3365.0,-0.0014
3364.0,-0.0014
3363.0,-0.0014
3362.0,-0.0014
3361.0,-0.0014
3360.0,-0.0014
3359.0,-0.0015
3358.0,-0.0015
3357.0,-0.0016
3356.0,-0.0016
3355.0,-0.0016
3354.0,-0.0015
3353.0,-0.0015
3352.0,-0.0015
3351.0,-0.0015
3350.0,-0.0015
3349.0,-0.0015
3348.0,-0.0015
3347.0,-0.0015
3346.0,-0.0015
3345.0,-0.0014
3344.0,-0.0014
3343.0,-0.0014
3342.0,-0.0015
3341.0,-0.0015
3340.0,-0.0016
3339.0,-0.0016
3338.0,-0.0015
3337.0,-0.0015
3336.0,-0.0014
3335.0,-0.0014
3334.0,-0.0014
3333.0,-0.0014
3332.0,-0.0015
3331.0,-0.0016
3330.0,-0.0017
3329.0,-0.0017
3328.0,-0.0016
3327.0,-0.0015
3326.0,-0.0015
3325.0,-0.0014
3324.0,-0.0014
3323.0,-0.0015
3322.0,-0.0014
3321.0,-0.0014
3320.0,-0.0014
3319.0,-0.0014
3318.0,-0.0015
3317.0,-0.0016
3316.0,-0.0016
3315.0,-0.0017
3314.0,-0.0016
3313.0,-0.0016
3312.0,-0.0015
3311.0,-0.0015
3310.0,-0.0015
3309.0,-0.0015
3308.0,-0.0014
3307.0,-0.0014
3306.0,-0.0015
3305.0,-0.0015
3304.0,-0.0015
3303.0,-0.0014
3302.0,-0.0014
3301.0,-0.0014
3300.0,-0.0014
3299.0,-0.0014
3298.0,-0.0015
3297.0,-0.0015
3296.0,-0.0015
3295.0,-0.0015
3294.0,-0.0014
3293.0,-0.0014
3292.0,-0.0014
3291.0,-0.0014
3290.0,-0.0015
3289.0,-0.0015
3288.0,-0.0016
3287.0,-0.0016
3286.0,-0.0015
3285.0,-0.0015
3284.0,-0.0015
3283.0,-0.0014
3282.0,-0.0015
3281.0,-0.0015
3280.0,-0.0016
3279.0,-0.0016
3278.0,-0.0016
3277.0,-0.0015
3276.0,-0.0015
3275.0,-0.0015
3274.0,-0.0015
3273.0,-0.0015
3272.0,-0.0016
3271.0,-0.0016
3270.0,-0.0016
3269.0,-0.0015
3268.0,-0.0015
3267.0,-0.0015
3266.0,-0.0016
3265.0,-0.0017
3264.0,-0.0017
3263.0,-0.0017
3262.0,-0.0017
3261.0,-0.0016
3260.0,-0.0016
3259.0,-0.0015
3258.0,-0.0015
3257.0,-0.0015
3256.0,-0.0015
3255.0,-0.0015
3254.0,-0.0016
3253.0,-0.0017
3252.0,-0.0017
3251.0,-0.0017
3250.0,-0.0016
3249.0,-0.0015
3248.0,-0.0015
3247.0,-0.0015
3246.0,-0.0015
3245.0,-0.0015
3244.0,-0.0015
3243.0,-0.0016
3242.0,-0.0016
3241.0,-0.0018
3240.0,-0.0018
3239.0,-0.0018
3238.0,-0.0018
3237.0,-0.0017
3236.0,-0.0017
3235.0,-0.0017
3234.0,-0.0017
3233.0,-0.0016
3232.0,-0.0016
3231.0,-0.0016
3230.0,-0.0015
3229.0,-0.0015
3228.0,-0.0015
3227.0,-0.0015
3226.0,-0.0016
3225.0,-0.0016
3224.0,-0.0017
3223.0,-0.0017
3222.0,-0.0017
3221.0,-0.0016
3220.0,-0.0015
3219.0,-0.0015
3218.0,-0.0015
3217.0,-0.0015
3216.0,-0.0014
3215.0,-0.0014
3214.0,-0.0014
3213.0,-0.0015
3212.0,-0.0015
3211.0,-0.0015
3210.0,-0.0016
3209.0,-0.0016
3208.0,-0.0016
3207.0,-0.0015
3206.0,-0.0015
3205.0,-0.0015
3204.0,-0.0015
3203.0,-0.0016
3202.0,-0.0016
3201.0,-0.0016
3200.0,-0.0016
3199.0,-0.0015
3198.0,-0.0015
3197.0,-0.0015
3196.0,-0.0016
3195.0,-0.0016
3194.0,-0.0016
3193.0,-0.0016
3192.0,-0.0017
3191.0,-0.0017
3190.0,-0.0017
3189.0,-0.0017
3188.0,-0.0017
3187.0,-0.0016
3186.0,-0.0015
3185.0,-0.0015
3184.0,-0.0015
3183.0,-0.0015
3182.0,-0.0015
3181.0,-0.0015
3180.0,-0.0015
3179.0,-0.0016
3178.0,-0.0016
3177.0,-0.0015
3176.0,-0.0015
3175.0,-0.0015
3174.0,-0.0015
3173.0,-0.0015
3172.0,-0.0015
3171.0,-0.0015
3170.0,-0.0015
3169.0,-0.0015
3168.0,-0.0016
3167.0,-0.0016
3166.0,-0.0017
3165.0,-0.0017
3164.0,-0.0016
3163.0,-0.0016
3162.0,-0.0016
3161.0,-0.0017
3160.0,-0.0017
3159.0,-0.0016
3158.0,-0.0016
3157.0,-0.0015
3156.0,-0.0015
3155.0,-0.0015
3154.0,-0.0015
3153.0,-0.0016
3152.0,-0.0016
3151.0,-0.0016
3150.0,-0.0016
3149.0,-0.0016
3148.0,-0.0015
3147.0,-0.0015
3146.0,-0.0015
3145.0,-0.0015
3144.0,-0.0015
3143.0,-0.0015
3142.0,-0.0016
3141.0,-0.0016
3140.0,-0.0015
3139.0,-0.0016
3138.0,-0.0016
3137.0,-0.0017
3136.0,-0.0017
3135.0,-0.0017
3134.0,-0.0016
3133.0,-0.0016
3132.0,-0.0016
3131.0,-0.0016
3130.0,-0.0015
3129.0,-0.0015
3128.0,-0.0015
3127.0,-0.0015
3126.0,-0.0015
3125.0,-0.0015
3124.0,-0.0016
3123.0,-0.0016
3122.0,-0.0016
3121.0,-0.0015
3120.0,-0.0015
3119.0,-0.0015
3118.0,-0.0016
3117.0,-0.0016
3116.0,-0.0017
3115.0,-0.0016
3114.0,-0.0016
3113.0,-0.0015
3112.0,-0.0015
3111.0,-0.0015
3110.0,-0.0016
3109.0,-0.0016
3108.0,-0.0016
3107.0,-0.0016
3106.0,-0.0017
3105.0,-0.0017
3104.0,-0.0017
3103.0,-0.0017
3102.0,-0.0016
3101.0,-0.0016
3100.0,-0.0016
3099.0,-0.0016
3098.0,-0.0016
3097.0,-0.0017
3096.0,-0.0017
3095.0,-0.0017
3094.0,-0.0016
3093.0,-0.0016
3092.0,-0.0015
3091.0,-0.0015
3090.0,-0.0015
3089.0,-0.0014
3088.0,-0.0014
3087.0,-0.0014
3086.0,-0.0014
3085.0,-0.0014
3084.0,-0.0015
3083.0,-0.0016
3082.0,-0.0017
3081.0,-0.0017
3080.0,-0.0016
3079.0,-0.0016
3078.0,-0.0015
3077.0,-0.0015
3076.0,-0.0014
3075.0,-0.0014
3074.0,-0.0014
3073.0,-0.0014
3072.0,-0.0015
3071.0,-0.0016
3070.0,-0.0016
3069.0,-0.0016
3068.0,-0.0016
3067.0,-0.0016
3066.0,-0.0017
3065.0,-0.0017
3064.0,-0.0017
3063.0,-0.0017
3062.0,-0.0016
3061.0,-0.0016
3060.0,-0.0015
3059.0,-0.0015
3058.0,-0.0015
3057.0,-0.0016
3056.0,-0.0016
3055.0,-0.0016
3054.0,-0.0015
3053.0,-0.0015
3052.0,-0.0014
3051.0,-0.0015
3050.0,-0.0015
3049.0,-0.0016
3048.0,-0.0016
3047.0,-0.0016
3046.0,-0.0016
3045.0,-0.0015
3044.0,-0.0014
3043.0,-0.0013
3042.0,-0.0013
3041.0,-0.0014
3040.0,-0.0014
3039.0,-0.0015
3038.0,-0.0015
3037.0,-0.0015
3036.0,-0.0015
3035.0,-0.0015
3034.0,-0.0015
3033.0,-0.0015
3032.0,-0.0014
3031.0,-0.0014
3030.0,-0.0014
3029.0,-0.0015
3028.0,-0.0015
3027.0,-0.0016
3026.0,-0.0016
3025.0,-0.0016
3024.0,-0.0015
3023.0,-0.0014
3022.0,-0.0014
3021.0,-0.0013
3020.0,-0.0013
3019.0,-0.0013
3018.0,-0.0012
3017.0,-0.0012
3016.0,-0.0011
3015.0,-0.001
3014.0,-0.001
3013.0,-0.0009
3012.0,-0.0009
3011.0,-0.0009
3010.0,-0.0009
3009.0,-0.0009
3008.0,-0.0009
3007.0,-0.0008
3006.0,-0.0007
3005.0,-0.0007
3004.0,-0.0007
3003.0,-0.0008
3002.0,-0.0009
3001.0,-0.0009
3000.0,-0.0009
2999.0,-0.0009
2998.0,-0.0008
2997.0,-0.0008
2996.0,-0.0008
2995.0,-0.0007
2994.0,-0.0007
2993.0,-0.0007
2992.0,-0.0007
2991.0,-0.0006
2990.0,-0.0005
2989.0,-0.0004
2988.0,-0.0003
2987.0,-0.0004
2986.0,-0.0004
2985.0,-0.0004
2984.0,-0.0004
2983.0,-0.0005
2982.0,-0.0005
2981.0,-0.0005
2980.0,-0.0005
2979.0,-0.0004
2978.0,-0.0004
2977.0,-0.0004
2976.0,-0.0003
2975.0,-0.0003
2974.0,-0.0003
2973.0,-0.0003
2972.0,-0.0002
2971.0,-0.0001
2970.0,-0.0001
2969.0,-0.0001
2968.0,-0.0001
2967.0,-0.0001
2966.0,0.0
2965.0,0.0001
2964.0,0.0002
2963.0,0.0002
2962.0,0.0002
2961.0,0.0002
2960.0,0.0001
2959.0,0.0
2958.0,0.0
2957.0,0.0
2956.0,0.0001
2955.0,0.0002
2954.0,0.0002
2953.0,0.0003
2952.0,0.0003
2951.0,0.0002
2950.0,0.0002
2949.0,0.0001
2948.0,0.0
2947.0,-0.0001
2946.0,-0.0001
2945.0,-0.0002
2944.0,-0.0003
2943.0,-0.0003
2942.0,-0.0003
2941.0,-0.0003
2940.0,-0.0003
2939.0,-0.0003
2938.0,-0.0003
2937.0,-0.0004
2936.0,-0.0004
2935.0,-0.0003
2934.0,-0.0002
2933.0,-0.0002
2932.0,-0.0003
2931.0,-0.0003
2930.0,-0.0002
2929.0,-0.0001
2928.0,0.0
2927.0,0.0
2926.0,0.0001
2925.0,0.0001
2924.0,0.0002
2923.0,0.0003
2922.0,0.0003
2921.0,0.0004
2920.0,0.0004
2919.0,0.0004
2918.0,0.0004
2917.0,0.0004
2916.0,0.0003
2915.0,0.0003
2914.0,0.0003
2913.0,0.0002
2912.0,0.0002
2911.0,0.0002
2910.0,0.0001
2909.0,0.0001
2908.0,0.0
2907.0,-0.0
2906.0,-0.0
2905.0,-0.0
2904.0,-0.0
2903.0,0.0
2902.0,0.0
2901.0,0.0
2900.0,0.0
2899.0,-0.0
2898.0,-0.0001
2897.0,-0.0002
2896.0,-0.0003
2895.0,-0.0004
2894.0,-0.0004
2893.0,-0.0004
2892.0,-0.0003
2891.0,-0.0003
2890.0,-0.0003
2889.0,-0.0002
2888.0,-0.0002
2887.0,-0.0002
2886.0,-0.0003
2885.0,-0.0003
2884.0,-0.0003
2883.0,-0.0003
2882.0,-0.0002
2881.0,-0.0002
2880.0,-0.0002
2879.0,-0.0002
2878.0,-0.0003
2877.0,-0.0004
2876.0,-0.0005
2875.0,-0.0006
2874.0,-0.0006
2873.0,-0.0006
2872.0,-0.0005
2871.0,-0.0004
2870.0,-0.0003
2869.0,-0.0003
2868.0,-0.0004
2867.0,-0.0004
2866.0,-0.0005
2865.0,-0.0006
2864.0,-0.0007
2863.0,-0.0007
2862.0,-0.0007
2861.0,-0.0007
2860.0,-0.0007
2859.0,-0.0008
2858.0,-0.0008
2857.0,-0.0009
2856.0,-0.001
2855.0,-0.001
2854.0,-0.0011
2853.0,-0.001
2852.0,-0.001
2851.0,-0.001
2850.0,-0.0009
2849.0,-0.0009
2848.0,-0.0009
2847.0,-0.001
2846.0,-0.001
2845.0,-0.001
2844.0,-0.0009
2843.0,-0.0009
2842.0,-0.0008
2841.0,-0.0008
2840.0,-0.0008
2839.0,-0.0008
2838.0,-0.0008
2837.0,-0.0009
2836.0,-0.0009
2835.0,-0.001
2834.0,-0.0011
2833.0,-0.0011
2832.0,-0.0012
2831.0,-0.0012
2830.0,-0.0011
2829.0,-0.0011
2828.0,-0.0011
2827.0,-0.0011
2826.0,-0.0012
2825.0,-0.0012
2824.0,-0.0012
2823.0,-0.0013
2822.0,-0.0013
2821.0,-0.0013
2820.0,-0.0013
2819.0,-0.0013
2818.0,-0.0014
2817.0,-0.0014
2816.0,-0.0014
2815.0,-0.0014
2814.0,-0.0013
2813.0,-0.0013
2812.0,-0.0013
2811.0,-0.0013
2810.0,-0.0013
2809.0,-0.0013
2808.0,-0.0013
2807.0,-0.0013
2806.0,-0.0013
2805.0,-0.0013
2804.0,-0.0013
2803.0,-0.0013
2802.0,-0.0014
2801.0,-0.0014
2800.0,-0.0014
2799.0,-0.0014
2798.0,-0.0013
2797.0,-0.0013
2796.0,-0.0013
2795.0,-0.0013
2794.0,-0.0013
2793.0,-0.0012
2792.0,-0.0012
2791.0,-0.0012
2790.0,-0.0012
2789.0,-0.0013
2788.0,-0.0013
2787.0,-0.0014
2786.0,-0.0013
2785.0,-0.0013
2784.0,-0.0013
2783.0,-0.0013
2782.0,-0.0013
2781.0,-0.0014
2780.0,-0.0014
2779.0,-0.0014
2778.0,-0.0014
2777.0,-0.0014
2776.0,-0.0014
2775.0,-0.0014
2774.0,-0.0014
2773.0,-0.0014
2772.0,-0.0013
2771.0,-0.0013
2770.0,-0.0013
2769.0,-0.0013
2768.0,-0.0013
2767.0,-0.0014
2766.0,-0.0014
2765.0,-0.0014
2764.0,-0.0014
2763.0,-0.0014
2762.0,-0.0014
2761.0,-0.0014
2760.0,-0.0013
2759.0,-0.0013
2758.0,-0.0012
2757.0,-0.0012
2756.0,-0.0013
2755.0,-0.0013
2754.0,-0.0014
2753.0,-0.0014
2752.0,-0.0014
2751.0,-0.0014
2750.0,-0.0014
2749.0,-0.0014
2748.0,-0.0015
2747.0,-0.0015
2746.0,-0.0015
2745.0,-0.0014
2744.0,-0.0013
2743.0,-0.0013
2742.0,-0.0013
2741.0,-0.0013
2740.0,-0.0013
2739.0,-0.0014
2738.0,-0.0014
2737.0,-0.0014
2736.0,-0.0014
2735.0,-0.0013
2734.0,-0.0013
2733.0,-0.0013
2732.0,-0.0014
2731.0,-0.0013
2730.0,-0.0013
2729.0,-0.0012
2728.0,-0.0012
2727.0,-0.0012
2726.0,-0.0012
2725.0,-0.0013
2724.0,-0.0014
2723.0,-0.0014
2722.0,-0.0014
2721.0,-0.0014
2720.0,-0.0014
2719.0,-0.0014
2718.0,-0.0014
2717.0,-0.0014
2716.0,-0.0014
2715.0,-0.0014
2714.0,-0.0014
2713.0,-0.0014
2712.0,-0.0014
2711.0,-0.0014
2710.0,-0.0013
2709.0,-0.0013
2708.0,-0.0013
2707.0,-0.0014
2706.0,-0.0015
2705.0,-0.0015
2704.0,-0.0015
2703.0,-0.0015
2702.0,-0.0015
2701.0,-0.0014
2700.0,-0.0014
2699.0,-0.0014
2698.0,-0.0013
2697.0,-0.0013
2696.0,-0.0013
2695.0,-0.0012
2694.0,-0.0011
2693.0,-0.0011
2692.0,-0.0012
2691.0,-0.0012
2690.0,-0.0013
2689.0,-0.0013
2688.0,-0.0013
2687.0,-0.0013
2686.0,-0.0013
2685.0,-0.0013
2684.0,-0.0013
2683.0,-0.0013
2682.0,-0.0014
2681.0,-0.0014
2680.0,-0.0014
2679.0,-0.0014
2678.0,-0.0014
2677.0,-0.0014
2676.0,-0.0014
2675.0,-0.0015
2674.0,-0.0015
2673.0,-0.0015
2672.0,-0.0015
2671.0,-0.0015
2670.0,-0.0014
2669.0,-0.0014
2668.0,-0.0013
2667.0,-0.0012
2666.0,-0.0012
2665.0,-0.0012
2664.0,-0.0013
2663.0,-0.0013
2662.0,-0.0013
2661.0,-0.0013
2660.0,-0.0013
2659.0,-0.0013
2658.0,-0.0013
2657.0,-0.0013
2656.0,-0.0013
2655.0,-0.0013
2654.0,-0.0013
2653.0,-0.0012
2652.0,-0.0012
2651.0,-0.0012
2650.0,-0.0012
2649.0,-0.0013
2648.0,-0.0013
2647.0,-0.0013
2646.0,-0.0014
2645.0,-0.0014
2644.0,-0.0014
2643.0,-0.0014
2642.0,-0.0014
2641.0,-0.0014
2640.0,-0.0014
2639.0,-0.0014
2638.0,-0.0014
2637.0,-0.0014
2636.0,-0.0014
2635.0,-0.0014
2634.0,-0.0014
2633.0,-0.0014
2632.0,-0.0013
2631.0,-0.0013
2630.0,-0.0013
2629.0,-0.0013
2628.0,-0.0013
2627.0,-0.0013
2626.0,-0.0014
2625.0,-0.0014
2624.0,-0.0015
2623.0,-0.0014
2622.0,-0.0013
2621.0,-0.0013
2620.0,-0.0013
2619.0,-0.0014
2618.0,-0.0014
2617.0,-0.0015
2616.0,-0.0015
2615.0,-0.0014
2614.0,-0.0014
2613.0,-0.0014
2612.0,-0.0013
2611.0,-0.0013
2610.0,-0.0013
2609.0,-0.0013
2608.0,-0.0013
2607.0,-0.0014
2606.0,-0.0014
2605.0,-0.0015
2604.0,-0.0015
2603.0,-0.0015
2602.0,-0.0014
2601.0,-0.0014
2600.0,-0.0013
2599.0,-0.0014
2598.0,-0.0014
2597.0,-0.0015
2596.0,-0.0015
2595.0,-0.0015
2594.0,-0.0015
2593.0,-0.0015
2592.0,-0.0015
2591.0,-0.0016
2590.0,-0.0016
2589.0,-0.0015
2588.0,-0.0014
2587.0,-0.0014
2586.0,-0.0013
2585.0,-0.0013
2584.0,-0.0013
2583.0,-0.0013
2582.0,-0.0013
2581.0,-0.0013
2580.0,-0.0013
2579.0,-0.0013
2578.0,-0.0013
2577.0,-0.0014
2576.0,-0.0014
2575.0,-0.0014
2574.0,-0.0013
2573.0,-0.0013
2572.0,-0.0013
2571.0,-0.0013
2570.0,-0.0013
2569.0,-0.0013
2568.0,-0.0013
2567.0,-0.0014
2566.0,-0.0014
2565.0,-0.0015
2564.0,-0.0015
2563.0,-0.0015
2562.0,-0.0014
2561.0,-0.0014
2560.0,-0.0014
2559.0,-0.0014
2558.0,-0.0015
2557.0,-0.0015
2556.0,-0.0015
2555.0,-0.0015
2554.0,-0.0015
2553.0,-0.0015
2552.0,-0.0015
2551.0,-0.0014
2550.0,-0.0014
2549.0,-0.0014
2548.0,-0.0015
2547.0,-0.0014
2546.0,-0.0014
2545.0,-0.0014
2544.0,-0.0014
2543.0,-0.0014
2542.0,-0.0015
2541.0,-0.0015
2540.0,-0.0015
2539.0,-0.0015
2538.0,-0.0014
2537.0,-0.0014
2536.0,-0.0014
2535.0,-0.0014
2534.0,-0.0014
2533.0,-0.0014
2532.0,-0.0014
2531.0,-0.0014
2530.0,-0.0015
2529.0,-0.0015
2528.0,-0.0015
2527.0,-0.0016
2526.0,-0.0015
2525.0,-0.0015
2524.0,-0.0014
2523.0,-0.0014
2522.0,-0.0014
2521.0,-0.0014
2520.0,-0.0014
2519.0,-0.0014
2518.0,-0.0014
2517.0,-0.0014
2516.0,-0.0014
2515.0,-0.0014
2514.0,-0.0014
2513.0,-0.0014
2512.0,-0.0015
2511.0,-0.0015
2510.0,-0.0014
2509.0,-0.0014
2508.0,-0.0014
2507.0,-0.0013
2506.0,-0.0013
2505.0,-0.0012
2504.0,-0.0012
2503.0,-0.0013
2502.0,-0.0013
2501.0,-0.0014
2500.0,-0.0014
2499.0,-0.0014
2498.0,-0.0014
2497.0,-0.0014
2496.0,-0.0014
2495.0,-0.0014
2494.0,-0.0014
2493.0,-0.0014
2492.0,-0.0014
2491.0,-0.0014
2490.0,-0.0014
2489.0,-0.0013
2488.0,-0.0012
2487.0,-0.0012
2486.0,-0.0012
2485.0,-0.0012
2484.0,-0.0013
2483.0,-0.0013
2482.0,-0.0013
2481.0,-0.0014
2480.0,-0.0014
2479.0,-0.0014
2478.0,-0.0014
2477.0,-0.0014
2476.0,-0.0014
2475.0,-0.0014
2474.0,-0.0013
2473.0,-0.0013
2472.0,-0.0013
2471.0,-0.0014
2470.0,-0.0014
2469.0,-0.0014
2468.0,-0.0015
2467.0,-0.0015
2466.0,-0.0015
2465.0,-0.0015
2464.0,-0.0015
2463.0,-0.0015
2462.0,-0.0015
2461.0,-0.0014
2460.0,-0.0014
2459.0,-0.0014
2458.0,-0.0014
2457.0,-0.0015
2456.0,-0.0015
2455.0,-0.0015
2454.0,-0.0015
2453.0,-0.0015
2452.0,-0.0015
2451.0,-0.0015
2450.0,-0.0015
2449.0,-0.0014
2448.0,-0.0014
2447.0,-0.0014
2446.0,-0.0014
2445.0,-0.0013
2444.0,-0.0012
2443.0,-0.0012
2442.0,-0.0011
2441.0,-0.0012
2440.0,-0.0012
2439.0,-0.0013
2438.0,-0.0013
2437.0,-0.0013
2436.0,-0.0013
2435.0,-0.0013
2434.0,-0.0013
2433.0,-0.0013
2432.0,-0.0013
2431.0,-0.0013
2430.0,-0.0014
2429.0,-0.0014
2428.0,-0.0014
2427.0,-0.0014
2426.0,-0.0014
2425.0,-0.0014
2424.0,-0.0014
2423.0,-0.0014
2422.0,-0.0014
2421.0,-0.0014
2420.0,-0.0014
2419.0,-0.0014
2418.0,-0.0014
2417.0,-0.0014
2416.0,-0.0015
2415.0,-0.0015
2414.0,-0.0015
2413.0,-0.0014
2412.0,-0.0014
2411.0,-0.0014
2410.0,-0.0013
2409.0,-0.0013
2408.0,-0.0013
2407.0,-0.0013
2406.0,-0.0014
2405.0,-0.0014
2404.0,-0.0015
2403.0,-0.0015
2402.0,-0.0016
2401.0,-0.0016
2400.0,-0.0015
2399.0,-0.0015
2398.0,-0.0015
2397.0,-0.0014
2396.0,-0.0013
2395.0,-0.0013
2394.0,-0.0013
2393.0,-0.0014
2392.0,-0.0014
2391.0,-0.0014
2390.0,-0.0014
2389.0,-0.0014
2388.0,-0.0014
2387.0,-0.0014
2386.0,-0.0014
2385.0,-0.0014
2384.0,-0.0014
2383.0,-0.0015
2382.0,-0.0016
2381.0,-0.0018
2380.0,-0.002
2379.0,-0.0021
2378.0,-0.0021
2377.0,-0.0018
2376.0,-0.0015
2375.0,-0.0012
2374.0,-0.001
2373.0,-0.0011
2372.0,-0.0012
2371.0,-0.0014
2370.0,-0.0018
2369.0,-0.0026
2368.0,-0.0037
2367.0,-0.0046
2366.0,-0.0047
2365.0,-0.0039
2364.0,-0.0025
2363.0,-0.0009
2362.0,0.0006
2361.0,0.0016
2360.0,0.0021
2359.0,0.0021
2358.0,0.0016
2357.0,0.0005
2356.0,-0.0009
2355.0,-0.0018
2354.0,-0.0019
2353.0,-0.0015
2352.0,-0.0013
2351.0,-0.0013
2350.0,-0.0012
2349.0,-0.0009
2348.0,-0.0005
2347.0,-0.0004
2346.0,-0.001
2345.0,-0.002
2344.0,-0.0025
2343.0,-0.002
2342.0,-0.0011
2341.0,-0.0007
2340.0,-0.001
2339.0,-0.0016
2338.0,-0.002
2337.0,-0.0018
2336.0,-0.0013
2335.0,-0.0009
2334.0,-0.001
2333.0,-0.0013
2332.0,-0.0017
2331.0,-0.0017
2330.0,-0.0012
2329.0,-0.0007
2328.0,-0.0005
2327.0,-0.0007
2326.0,-0.0011
2325.0,-0.0014
2324.0,-0.0014
2323.0,-0.0013
2322.0,-0.001
2321.0,-0.0009
2320.0,-0.001
2319.0,-0.0012
2318.0,-0.0015
2317.0,-0.0016
2316.0,-0.0017
2315.0,-0.0016
2314.0,-0.0015
2313.0,-0.0013
2312.0,-0.0012
2311.0,-0.0011
2310.0,-0.0012
2309.0,-0.0013
2308.0,-0.0015
2307.0,-0.0016
2306.0,-0.0015
2305.0,-0.0014
2304.0,-0.0014
2303.0,-0.0014
2302.0,-0.0015
2301.0,-0.0015
2300.0,-0.0016
2299.0,-0.0016
2298.0,-0.0015
2297.0,-0.0015
2296.0,-0.0014
2295.0,-0.0015
2294.0,-0.0015
2293.0,-0.0015
2292.0,-0.0015
2291.0,-0.0015
2290.0,-0.0015
2289.0,-0.0015
2288.0,-0.0014
2287.0,-0.0014
2286.0,-0.0013
2285.0,-0.0013
2284.0,-0.0013
2283.0,-0.0013
2282.0,-0.0014
2281.0,-0.0014
2280.0,-0.0014
2279.0,-0.0014
2278.0,-0.0014
2277.0,-0.0014
2276.0,-0.0013
2275.0,-0.0013
2274.0,-0.0013
2273.0,-0.0013
2272.0,-0.0013
2271.0,-0.0014
2270.0,-0.0014
2269.0,-0.0014
2268.0,-0.0014
2267.0,-0.0014
2266.0,-0.0013
2265.0,-0.0013
2264.0,-0.0013
2263.0,-0.0013
2262.0,-0.0013
2261.0,-0.0013
2260.0,-0.0013
2259.0,-0.0013
2258.0,-0.0013
2257.0,-0.0014
2256.0,-0.0014
2255.0,-0.0013
2254.0,-0.0013
2253.0,-0.0012
2252.0,-0.0012
2251.0,-0.0012
2250.0,-0.0013
2249.0,-0.0013
2248.0,-0.0013
2247.0,-0.0013
2246.0,-0.0013
2245.0,-0.0013
2244.0,-0.0013
2243.0,-0.0013
2242.0,-0.0013
2241.0,-0.0013
2240.0,-0.0012
2239.0,-0.0012
2238.0,-0.0012
2237.0,-0.0011
2236.0,-0.0011
2235.0,-0.0012
2234.0,-0.0012
2233.0,-0.0013
2232.0,-0.0014
2231.0,-0.0013
2230.0,-0.0013
2229.0,-0.0013
2228.0,-0.0013
2227.0,-0.0013
2226.0,-0.0013
2225.0,-0.0013
2224.0,-0.0013
2223.0,-0.0013
2222.0,-0.0013
2221.0,-0.0013
2220.0,-0.0013
2219.0,-0.0013
2218.0,-0.0013
2217.0,-0.0013
2216.0,-0.0013
2215.0,-0.0013
2214.0,-0.0013
2213.0,-0.0013
2212.0,-0.0013
2211.0,-0.0013
2210.0,-0.0012
2209.0,-0.0012
2208.0,-0.0013
2207.0,-0.0013
2206.0,-0.0013
2205.0,-0.0013
2204.0,-0.0013
2203.0,-0.0013
2202.0,-0.0012
2201.0,-0.0012
2200.0,-0.0012
2199.0,-0.0012
2198.0,-0.0012
2197.0,-0.0011
2196.0,-0.0011
2195.0,-0.0012
2194.0,-0.0012
2193.0,-0.0013
2192.0,-0.0013
2191.0,-0.0013
2190.0,-0.0013
2189.0,-0.0013
2188.0,-0.0012
2187.0,-0.0012
2186.0,-0.0012
2185.0,-0.0012
2184.0,-0.0012
2183.0,-0.0011
2182.0,-0.0011
2181.0,-0.0012
2180.0,-0.0012
2179.0,-0.0013
2178.0,-0.0013
2177.0,-0.0013
2176.0,-0.0013
2175.0,-0.0013
2174.0,-0.0013
2173.0,-0.0013
2172.0,-0.0012
2171.0,-0.0012
2170.0,-0.0012
2169.0,-0.0013
2168.0,-0.0013
2167.0,-0.0013
2166.0,-0.0013
2165.0,-0.0013
2164.0,-0.0013
2163.0,-0.0013
2162.0,-0.0013
2161.0,-0.0013
2160.0,-0.0013
2159.0,-0.0013
2158.0,-0.0013
2157.0,-0.0013
2156.0,-0.0013
2155.0,-0.0013
2154.0,-0.0013
2153.0,-0.0013
2152.0,-0.0013
2151.0,-0.0013
2150.0,-0.0013
2149.0,-0.0013
2148.0,-0.0013
2147.0,-0.0013
2146.0,-0.0012
2145.0,-0.0012
2144.0,-0.0012
2143.0,-0.0012
2142.0,-0.0012
2141.0,-0.0013
2140.0,-0.0013
2139.0,-0.0013
2138.0,-0.0012
2137.0,-0.0012
2136.0,-0.0012
2135.0,-0.0012
2134.0,-0.0012
2133.0,-0.0013
2132.0,-0.0013
2131.0,-0.0013
2130.0,-0.0013
2129.0,-0.0013
2128.0,-0.0013
2127.0,-0.0013
2126.0,-0.0013
2125.0,-0.0013
2124.0,-0.0013
2123.0,-0.0013
2122.0,-0.0013
2121.0,-0.0013
2120.0,-0.0013
2119.0,-0.0012
2118.0,-0.0012
2117.0,-0.0012
2116.0,-0.0012
2115.0,-0.0012
2114.0,-0.0012
2113.0,-0.0012
2112.0,-0.0011
2111.0,-0.0011
2110.0,-0.0012
2109.0,-0.0012
2108.0,-0.0013
2107.0,-0.0013
2106.0,-0.0013
2105.0,-0.0013
2104.0,-0.0012
2103.0,-0.0012
2102.0,-0.0012
2101.0,-0.0012
2100.0,-0.0012
2099.0,-0.0012
2098.0,-0.0013
2097.0,-0.0013
2096.0,-0.0012
2095.0,-0.0012
2094.0,-0.0012
2093.0,-0.0013
2092.0,-0.0013
2091.0,-0.0012
2090.0,-0.0011
2089.0,-0.0011
2088.0,-0.0011
2087.0,-0.0012
2086.0,-0.0013
2085.0,-0.0013
2084.0,-0.0013
2083.0,-0.0013
2082.0,-0.0012
2081.0,-0.0012
2080.0,-0.0012
2079.0,-0.0012
2078.0,-0.0012
2077.0,-0.0012
2076.0,-0.0012
2075.0,-0.0012
2074.0,-0.0012
2073.0,-0.0012
2072.0,-0.0012
2071.0,-0.0012
2070.0,-0.0012
2069.0,-0.0012
2068.0,-0.0012
2067.0,-0.0012
2066.0,-0.0012
2065.0,-0.0012
2064.0,-0.0012
2063.0,-0.0012
2062.0,-0.0012
2061.0,-0.0012
2060.0,-0.0012
2059.0,-0.0013
2058.0,-0.0013
2057.0,-0.0013
2056.0,-0.0013
2055.0,-0.0013
2054.0,-0.0012
2053.0,-0.0012
2052.0,-0.0012
2051.0,-0.0012
2050.0,-0.0012
2049.0,-0.0012
2048.0,-0.0012
2047.0,-0.0012
2046.0,-0.0012
2045.0,-0.0013
2044.0,-0.0013
2043.0,-0.0013
2042.0,-0.0013
2041.0,-0.0013
2040.0,-0.0012
2039.0,-0.0012
2038.0,-0.0012
2037.0,-0.0012
2036.0,-0.0012
2035.0,-0.0012
2034.0,-0.0012
2033.0,-0.0012
2032.0,-0.0012
2031.0,-0.0012
2030.0,-0.0012
2029.0,-0.0012
2028.0,-0.0011
2027.0,-0.0011
2026.0,-0.0011
2025.0,-0.0012
2024.0,-0.0012
2023.0,-0.0013
2022.0,-0.0012
2021.0,-0.0012
2020.0,-0.0012
2019.0,-0.0012
2018.0,-0.0012
2017.0,-0.0012
2016.0,-0.0012
2015.0,-0.0012
2014.0,-0.0012
2013.0,-0.0012
2012.0,-0.0012
2011.0,-0.0012
2010.0,-0.0012
2009.0,-0.0012
2008.0,-0.0012
2007.0,-0.0012
2006.0,-0.0012
2005.0,-0.0013
2004.0,-0.0013
2003.0,-0.0012
2002.0,-0.0012
2001.0,-0.0012
2000.0,-0.0012
1999.0,-0.0012
1998.0,-0.0012
1997.0,-0.0012
1996.0,-0.0011
1995.0,-0.0011
1994.0,-0.0011
1993.0,-0.0012
1992.0,-0.0012
1991.0,-0.0012
1990.0,-0.0012
1989.0,-0.0012
1988.0,-0.0012
1987.0,-0.0012
1986.0,-0.0012
1985.0,-0.0012
1984.0,-0.0012
1983.0,-0.0012
1982.0,-0.0012
1981.0,-0.0012
1980.0,-0.0012
1979.0,-0.0012
1978.0,-0.0012
1977.0,-0.0012
1976.0,-0.0012
1975.0,-0.0012
1974.0,-0.0012
1973.0,-0.0012
1972.0,-0.0012
1971.0,-0.0012
1970.0,-0.0012
1969.0,-0.0012
1968.0,-0.0012
1967.0,-0.0012
1966.0,-0.0012
1965.0,-0.0012
1964.0,-0.0012
1963.0,-0.0011
1962.0,-0.0011
1961.0,-0.0011
1960.0,-0.0012
1959.0,-0.0011
1958.0,-0.0011
1957.0,-0.0011
1956.0,-0.0011
1955.0,-0.0011
1954.0,-0.0012
1953.0,-0.0012
1952.0,-0.0012
1951.0,-0.0012
1950.0,-0.0011
1949.0,-0.0011
1948.0,-0.0011
1947.0,-0.0011
1946.0,-0.0011
1945.0,-0.0011
1944.0,-0.0012
1943.0,-0.0012
1942.0,-0.0012
1941.0,-0.0012
1940.0,-0.0011
1939.0,-0.0011
1938.0,-0.0011
1937.0,-0.0011
1936.0,-0.0012
1935.0,-0.0012
1934.0,-0.0011
1933.0,-0.0011
1932.0,-0.0011
1931.0,-0.0011
1930.0,-0.0011
1929.0,-0.0011
1928.0,-0.0011
1927.0,-0.0012
1926.0,-0.0012
1925.0,-0.0012
1924.0,-0.0012
1923.0,-0.0011
1922.0,-0.0011
1921.0,-0.0011
1920.0,-0.0011
1919.0,-0.001
1918.0,-0.001
1917.0,-0.0011
1916.0,-0.0011
1915.0,-0.0012
1914.0,-0.0012
1913.0,-0.0012
1912.0,-0.0011
1911.0,-0.0011
1910.0,-0.0012
1909.0,-0.0012
1908.0,-0.0012
1907.0,-0.0012
1906.0,-0.0012
1905.0,-0.0012
1904.0,-0.0012
1903.0,-0.0012
1902.0,-0.0012
1901.0,-0.0012
1900.0,-0.0012
1899.0,-0.0012
1898.0,-0.0011
1897.0,-0.0012
1896.0,-0.0012
1895.0,-0.0012
1894.0,-0.0012
1893.0,-0.0012
1892.0,-0.0012
1891.0,-0.0012
1890.0,-0.0013
1889.0,-0.0012
1888.0,-0.0012
1887.0,-0.0012
1886.0,-0.0012
1885.0,-0.0012
1884.0,-0.0012
1883.0,-0.0012
1882.0,-0.0012
1881.0,-0.0012
1880.0,-0.0011
1879.0,-0.0011
1878.0,-0.0011
1877.0,-0.0011
1876.0,-0.0012
1875.0,-0.0012
1874.0,-0.0012
1873.0,-0.0012
1872.0,-0.0012
1871.0,-0.0012
1870.0,-0.0012
1869.0,-0.0012
1868.0,-0.0012
1867.0,-0.0012
1866.0,-0.0012
1865.0,-0.0012
1864.0,-0.0012
1863.0,-0.0012
1862.0,-0.0012
1861.0,-0.0012
1860.0,-0.0013
1859.0,-0.0013
1858.0,-0.0012
1857.0,-0.0012
1856.0,-0.0012
1855.0,-0.0012
1854.0,-0.0013
1853.0,-0.0013
1852.0,-0.0013
1851.0,-0.0012
1850.0,-0.0012
1849.0,-0.0013
1848.0,-0.0013
1847.0,-0.0013
1846.0,-0.0013
1845.0,-0.0013
1844.0,-0.0012
1843.0,-0.0012
1842.0,-0.0012
1841.0,-0.0012
1840.0,-0.0012
1839.0,-0.0012
1838.0,-0.0012
1837.0,-0.0012
1836.0,-0.0012
1835.0,-0.0011
1834.0,-0.0011
1833.0,-0.0011
1832.0,-0.0011
1831.0,-0.0011
1830.0,-0.0012
1829.0,-0.0012
1828.0,-0.0012
1827.0,-0.0012
1826.0,-0.0012
1825.0,-0.0011
1824.0,-0.0011
1823.0,-0.0012
1822.0,-0.0012
1821.0,-0.0012
1820.0,-0.0012
1819.0,-0.0012
1818.0,-0.0012
1817.0,-0.0012
1816.0,-0.0012
1815.0,-0.0012
1814.0,-0.0012
1813.0,-0.0011
1812.0,-0.0011
1811.0,-0.0011
1810.0,-0.0011
1809.0,-0.0012
1808.0,-0.0012
1807.0,-0.0012
1806.0,-0.0012
1805.0,-0.0012
1804.0,-0.0012
1803.0,-0.0012
1802.0,-0.0011
1801.0,-0.0011
1800.0,-0.0011
1799.0,-0.0011
1798.0,-0.0012
1797.0,-0.0012
1796.0,-0.0013
1795.0,-0.0013
1794.0,-0.0012
1793.0,-0.0012
1792.0,-0.0012
1791.0,-0.0012
1790.0,-0.0012
1789.0,-0.0012
1788.0,-0.0012
1787.0,-0.0011
1786.0,-0.0011
1785.0,-0.0011
1784.0,-0.0011
1783.0,-0.0011
1782.0,-0.0011
1781.0,-0.0011
1780.0,-0.0011
1779.0,-0.0011
1778.0,-0.0011
1777.0,-0.0011
1776.0,-0.0011
1775.0,-0.0011
1774.0,-0.0011
1773.0,-0.0011
1772.0,-0.0011
1771.0,-0.001
1770.0,-0.001
1769.0,-0.001
1768.0,-0.0011
1767.0,-0.0011
1766.0,-0.0011
1765.0,-0.0011
1764.0,-0.0011
1763.0,-0.0011
1762.0,-0.0011
1761.0,-0.0011
1760.0,-0.0011
1759.0,-0.0011
1758.0,-0.0012
1757.0,-0.0011
1756.0,-0.0011
1755.0,-0.0011
1754.0,-0.0011
1753.0,-0.0011
1752.0,-0.0011
1751.0,-0.0011
1750.0,-0.0011
1749.0,-0.0011
1748.0,-0.0012
1747.0,-0.0012
1746.0,-0.0012
1745.0,-0.0011
1744.0,-0.0011
1743.0,-0.001
1742.0,-0.001
1741.0,-0.001
1740.0,-0.0011
1739.0,-0.0011
1738.0,-0.0011
1737.0,-0.0011
1736.0,-0.0012
1735.0,-0.0012
1734.0,-0.0011
1733.0,-0.0011
1732.0,-0.0011
1731.0,-0.0011
1730.0,-0.0011
1729.0,-0.0011
1728.0,-0.0011
1727.0,-0.0011
1726.0,-0.0011
1725.0,-0.0011
1724.0,-0.0011
1723.0,-0.0011
1722.0,-0.0011
1721.0,-0.0011
1720.0,-0.0011
1719.0,-0.001
1718.0,-0.0011
1717.0,-0.0012
1716.0,-0.0012
1715.0,-0.0012
1714.0,-0.0011
1713.0,-0.0011
1712.0,-0.0011
1711.0,-0.0011
1710.0,-0.0012
1709.0,-0.0012
1708.0,-0.0012
1707.0,-0.0012
1706.0,-0.0012
1705.0,-0.0011
1704.0,-0.0011
1703.0,-0.0011
1702.0,-0.0011
1701.0,-0.0011
1700.0,-0.0011
1699.0,-0.001
1698.0,-0.001
1697.0,-0.0009
1696.0,-0.0009
1695.0,-0.0009
1694.0,-0.001
1693.0,-0.0011
1692.0,-0.0011
1691.0,-0.0011
1690.0,-0.0011
1689.0,-0.0011
1688.0,-0.001
1687.0,-0.001
1686.0,-0.001
1685.0,-0.001
1684.0,-0.001
1683.0,-0.001
1682.0,-0.0011
1681.0,-0.0011
1680.0,-0.0011
1679.0,-0.0011
1678.0,-0.001
1677.0,-0.001
1676.0,-0.0009
1675.0,-0.001
1674.0,-0.001
1673.0,-0.001
1672.0,-0.001
1671.0,-0.001
1670.0,-0.001
1669.0,-0.001
1668.0,-0.001
1667.0,-0.001
1666.0,-0.001
1665.0,-0.0009
1664.0,-0.0009
1663.0,-0.0009
1662.0,-0.0009
1661.0,-0.0009
1660.0,-0.0009
1659.0,-0.0009
1658.0,-0.0009
1657.0,-0.001
1656.0,-0.001
1655.0,-0.0011
1654.0,-0.001
1653.0,-0.0009
1652.0,-0.0009
1651.0,-0.001
1650.0,-0.0011
1649.0,-0.0012
1648.0,-0.0012
1647.0,-0.0011
1646.0,-0.001
1645.0,-0.001
1644.0,-0.0009
1643.0,-0.0009
1642.0,-0.0009
1641.0,-0.0009
1640.0,-0.0009
1639.0,-0.0008
1638.0,-0.0008
1637.0,-0.0008
1636.0,-0.0009
1635.0,-0.001
1634.0,-0.0011
1633.0,-0.0011
1632.0,-0.0011
1631.0,-0.001
1630.0,-0.001
1629.0,-0.001
1628.0,-0.001
1627.0,-0.001
1626.0,-0.001
1625.0,-0.001
1624.0,-0.001
1623.0,-0.0011
1622.0,-0.0011
1621.0,-0.0011
1620.0,-0.0011
1619.0,-0.0011
1618.0,-0.0011
1617.0,-0.0011
1616.0,-0.001
1615.0,-0.001
1614.0,-0.001
1613.0,-0.0009
1612.0,-0.0009
1611.0,-0.0008
1610.0,-0.0009
1609.0,-0.0009
1608.0,-0.0009
1607.0,-0.0009
1606.0,-0.001
1605.0,-0.001
1604.0,-0.001
1603.0,-0.0009
1602.0,-0.0009
1601.0,-0.0009
1600.0,-0.0009
1599.0,-0.0009
1598.0,-0.0009
1597.0,-0.0009
1596.0,-0.0009
1595.0,-0.0009
1594.0,-0.0009
1593.0,-0.0009
1592.0,-0.0008
1591.0,-0.0008
1590.0,-0.0008
1589.0,-0.0008
1588.0,-0.0009
1587.0,-0.0009
1586.0,-0.0009
1585.0,-0.0009
1584.0,-0.0009
1583.0,-0.001
1582.0,-0.001
1581.0,-0.0009
1580.0,-0.0009
1579.0,-0.0009
1578.0,-0.0009
1577.0,-0.0009
1576.0,-0.0009
1575.0,-0.0009
1574.0,-0.001
1573.0,-0.001
1572.0,-0.001
1571.0,-0.001
1570.0,-0.001
1569.0,-0.001
1568.0,-0.001
1567.0,-0.001
1566.0,-0.0009
1565.0,-0.0009
1564.0,-0.0009
1563.0,-0.0009
1562.0,-0.001
1561.0,-0.001
1560.0,-0.001
1559.0,-0.0008
1558.0,-0.0007
1557.0,-0.0007
1556.0,-0.0008
1555.0,-0.0008
1554.0,-0.0008
1553.0,-0.0009
1552.0,-0.0009
1551.0,-0.001
1550.0,-0.001
1549.0,-0.0009
1548.0,-0.0009
1547.0,-0.0009
1546.0,-0.001
1545.0,-0.001
1544.0,-0.0011
1543.0,-0.0012
1542.0,-0.0013
1541.0,-0.0014
1540.0,-0.0013
1539.0,-0.0011
1538.0,-0.0011
1537.0,-0.001
1536.0,-0.001
1535.0,-0.001
1534.0,-0.001
1533.0,-0.001
1532.0,-0.001
1531.0,-0.001
1530.0,-0.0009
1529.0,-0.0009
1528.0,-0.0009
1527.0,-0.0008
1526.0,-0.0008
1525.0,-0.0009
1524.0,-0.0008
1523.0,-0.0008
1522.0,-0.0008
1521.0,-0.0009
1520.0,-0.001
1519.0,-0.001
1518.0,-0.001
1517.0,-0.001
1516.0,-0.0009
1515.0,-0.0009
1514.0,-0.0009
1513.0,-0.0009
1512.0,-0.0009
1511.0,-0.0009
1510.0,-0.0009
1509.0,-0.0009
1508.0,-0.0009
1507.0,-0.0009
1506.0,-0.0009
1505.0,-0.0009
1504.0,-0.0009
1503.0,-0.0009
1502.0,-0.0009
1501.0,-0.0009
1500.0,-0.0009
1499.0,-0.0009
1498.0,-0.0008
1497.0,-0.0008
1496.0,-0.0009
1495.0,-0.0009
1494.0,-0.0009
1493.0,-0.0009
1492.0,-0.0009
1491.0,-0.0009
1490.0,-0.0008
1489.0,-0.0007
1488.0,-0.0007
1487.0,-0.0007
1486.0,-0.0007
1485.0,-0.0007
1484.0,-0.0007
1483.0,-0.0008
1482.0,-0.0008
1481.0,-0.0008
1480.0,-0.0008
1479.0,-0.0008
1478.0,-0.0008
1477.0,-0.0008
1476.0,-0.0007
1475.0,-0.0007
1474.0,-0.0006
1473.0,-0.0005
1472.0,-0.0004
1471.0,-0.0004
1470.0,-0.0004
1469.0,-0.0003
1468.0,-0.0002
1467.0,-0.0001
1466.0,0.0001
1465.0,0.0003
1464.0,0.0004
1463.0,0.0005
1462.0,0.0005
1461.0,0.0005
1460.0,0.0005
1459.0,0.0006
1458.0,0.0007
1457.0,0.0009
1456.0,0.0009
1455.0,0.0009
1454.0,0.0009
1453.0,0.0009
1452.0,0.001
1451.0,0.001
1450.0,0.001
1449.0,0.0009
1448.0,0.0008
1447.0,0.0007
1446.0,0.0006
1445.0,0.0005
1444.0,0.0005
1443.0,0.0004
1442.0,0.0004
1441.0,0.0003
1440.0,0.0003
1439.0,0.0003
1438.0,0.0003
1437.0,0.0003
1436.0,0.0003
1435.0,0.0002
1434.0,0.0002
1433.0,0.0001
1432.0,0.0
1431.0,-0.0
1430.0,-0.0001
1429.0,-0.0001
1428.0,-0.0001
1427.0,-0.0001
1426.0,-0.0001
1425.0,-0.0002
1424.0,-0.0002
1423.0,-0.0002
1422.0,-0.0002
1421.0,-0.0003
1420.0,-0.0003
1419.0,-0.0003
1418.0,-0.0003
1417.0,-0.0002
1416.0,-0.0002
1415.0,-0.0001
1414.0,-0.0001
1413.0,-0.0
1412.0,-0.0
1411.0,-0.0
1410.0,-0.0
1409.0,-0.0
1408.0,-0.0
1407.0,-0.0001
1406.0,-0.0001
1405.0,-0.0001
1404.0,-0.0001
1403.0,-0.0001
1402.0,-0.0001
1401.0,-0.0002
1400.0,-0.0002
1399.0,-0.0002
1398.0,-0.0001
1397.0,-0.0001
1396.0,0.0
1395.0,0.0001
1394.0,0.0
1393.0,-0.0
1392.0,-0.0001
1391.0,-0.0002
1390.0,-0.0002
1389.0,-0.0002
1388.0,-0.0002
1387.0,-0.0002
1386.0,-0.0001
1385.0,-0.0
1384.0,0.0001
1383.0,0.0003
1382.0,0.0006
1381.0,0.0009
1380.0,0.0012
1379.0,0.0017
1378.0,0.002
1377.0,0.0024
1376.0,0.0025
1375.0,0.0024
1374.0,0.0022
1373.0,0.0018
1372.0,0.0015
1371.0,0.0012
1370.0,0.001
1369.0,0.0008
1368.0,0.0007
1367.0,0.0006
1366.0,0.0005
1365.0,0.0004
1364.0,0.0004
1363.0,0.0004
1362.0,0.0004
1361.0,0.0005
1360.0,0.0005
1359.0,0.0005
1358.0,0.0005
1357.0,0.0005
1356.0,0.0004
1355.0,0.0004
1354.0,0.0003
1353.0,0.0003
1352.0,0.0003
1351.0,0.0003
1350.0,0.0003
1349.0,0.0002
1348.0,0.0002
1347.0,0.0002
1346.0,0.0001
1345.0,0.0001
1344.0,0.0001
1343.0,0.0
1342.0,0.0
1341.0,0.0
1340.0,0.0
1339.0,0.0001
1338.0,0.0
1337.0,-0.0
1336.0,-0.0001
1335.0,-0.0001
1334.0,-0.0001
1333.0,-0.0001
1332.0,-0.0001
1331.0,-0.0001
1330.0,-0.0001
1329.0,-0.0001
1328.0,-0.0001
1327.0,-0.0001
1326.0,-0.0001
1325.0,-0.0001
1324.0,-0.0001
1323.0,-0.0
1322.0,-0.0
1321.0,-0.0
1320.0,-0.0
1319.0,-0.0001
1318.0,-0.0001
1317.0,-0.0001
1316.0,-0.0001
1315.0,-0.0002
1314.0,-0.0002
1313.0,-0.0002
1312.0,-0.0002
1311.0,-0.0002
1310.0,-0.0002
1309.0,-0.0002
1308.0,-0.0001
1307.0,-0.0001
1306.0,-0.0
1305.0,0.0
1304.0,0.0001
1303.0,0.0001
1302.0,0.0001
1301.0,0.0001
1300.0,0.0001
1299.0,0.0001
1298.0,0.0001
1297.0,0.0001
1296.0,0.0001
1295.0,0.0001
1294.0,0.0001
1293.0,0.0001
1292.0,0.0002
1291.0,0.0002
1290.0,0.0001
1289.0,0.0001
1288.0,0.0
1287.0,0.0
1286.0,0.0
1285.0,0.0
1284.0,0.0
1283.0,0.0001
1282.0,0.0
1281.0,0.0
1280.0,0.0
1279.0,0.0
1278.0,0.0
1277.0,0.0
1276.0,0.0
1275.0,0.0001
1274.0,0.0001
1273.0,0.0001
1272.0,0.0002
1271.0,0.0002
1270.0,0.0002
1269.0,0.0001
1268.0,0.0001
1267.0,0.0002
1266.0,0.0002
1265.0,0.0002
1264.0,0.0002
1263.0,0.0003
1262.0,0.0003
1261.0,0.0003
1260.0,0.0003
1259.0,0.0004
1258.0,0.0004
1257.0,0.0005
1256.0,0.0005
1255.0,0.0005
1254.0,0.0006
1253.0,0.0006
1252.0,0.0006
1251.0,0.0006
1250.0,0.0006
1249.0,0.0005
1248.0,0.0004
1247.0,0.0004
1246.0,0.0003
1245.0,0.0003
1244.0,0.0004
1243.0,0.0004
1242.0,0.0003
1241.0,0.0003
1240.0,0.0003
1239.0,0.0003
1238.0,0.0004
1237.0,0.0004
1236.0,0.0005
1235.0,0.0005
1234.0,0.0005
1233.0,0.0004
1232.0,0.0004
1231.0,0.0004
1230.0,0.0004
1229.0,0.0004
1228.0,0.0004
1227.0,0.0004
1226.0,0.0004
1225.0,0.0004
1224.0,0.0004
1223.0,0.0005
1222.0,0.0005
1221.0,0.0005
1220.0,0.0004
1219.0,0.0004
1218.0,0.0004
1217.0,0.0003
1216.0,0.0002
1215.0,0.0001
1214.0,0.0001
1213.0,0.0001
1212.0,0.0001
1211.0,0.0001
1210.0,0.0001
1209.0,0.0001
1208.0,0.0001
1207.0,0.0001
1206.0,0.0002
1205.0,0.0002
1204.0,0.0002
1203.0,0.0003
1202.0,0.0002
1201.0,0.0002
1200.0,0.0002
1199.0,0.0002
1198.0,0.0002
1197.0,0.0001
1196.0,0.0001
1195.0,0.0
1194.0,0.0001
1193.0,0.0001
1192.0,0.0001
1191.0,0.0002
1190.0,0.0002
1189.0,0.0001
1188.0,0.0001
1187.0,0.0001
1186.0,0.0002
1185.0,0.0002
1184.0,0.0002
1183.0,0.0002
1182.0,0.0001
1181.0,0.0002
1180.0,0.0002
1179.0,0.0001
1178.0,0.0001
1177.0,0.0
1176.0,0.0
1175.0,0.0001
1174.0,0.0002
1173.0,0.0003
1172.0,0.0004
1171.0,0.0005
1170.0,0.0006
1169.0,0.0008
1168.0,0.0009
1167.0,0.0009
1166.0,0.0009
1165.0,0.0009
1164.0,0.0009
1163.0,0.0009
1162.0,0.0008
1161.0,0.0008
1160.0,0.0007
1159.0,0.0007
1158.0,0.0007
1157.0,0.0007
1156.0,0.0006
1155.0,0.0006
1154.0,0.0005
1153.0,0.0005
1152.0,0.0005
1151.0,0.0005
1150.0,0.0005
1149.0,0.0005
1148.0,0.0005
1147.0,0.0006
1146.0,0.0006
1145.0,0.0007
1144.0,0.0007
1143.0,0.0007
1142.0,0.0006
1141.0,0.0006
1140.0,0.0005
1139.0,0.0005
1138.0,0.0005
1137.0,0.0005
1136.0,0.0005
1135.0,0.0005
1134.0,0.0004
1133.0,0.0005
1132.0,0.0005
1131.0,0.0005
1130.0,0.0005
1129.0,0.0005
1128.0,0.0005
1127.0,0.0005
1126.0,0.0005
1125.0,0.0004
1124.0,0.0004
1123.0,0.0004
1122.0,0.0005
1121.0,0.0005
1120.0,0.0005
1119.0,0.0005
1118.0,0.0004
1117.0,0.0004
1116.0,0.0004
1115.0,0.0004
1114.0,0.0005
1113.0,0.0005
1112.0,0.0006
1111.0,0.0006
1110.0,0.0007
1109.0,0.0007
1108.0,0.0007
1107.0,0.0008
1106.0,0.0009
1105.0,0.0009
1104.0,0.001
1103.0,0.001
1102.0,0.001
1101.0,0.001
1100.0,0.001
1099.0,0.001
1098.0,0.001
1097.0,0.001
1096.0,0.0011
1095.0,0.0011
1094.0,0.0011
1093.0,0.001
1092.0,0.0011
1091.0,0.0011
1090.0,0.0012
1089.0,0.0012
1088.0,0.0013
1087.0,0.0013
1086.0,0.0013
1085.0,0.0013
1084.0,0.0013
1083.0,0.0014
1082.0,0.0015
1081.0,0.0016
1080.0,0.0017
1079.0,0.0017
1078.0,0.0018
1077.0,0.0019
1076.0,0.002
1075.0,0.0021
1074.0,0.0021
1073.0,0.002
1072.0,0.0019
1071.0,0.0019
1070.0,0.0019
1069.0,0.002
1068.0,0.0021
1067.0,0.0022
1066.0,0.0022
1065.0,0.0022
1064.0,0.002
1063.0,0.0019
1062.0,0.0018
1061.0,0.0019
1060.0,0.002
1059.0,0.0021
1058.0,0.0022
1057.0,0.0021
1056.0,0.002
1055.0,0.0019
1054.0,0.0019
1053.0,0.0019
1052.0,0.002
1051.0,0.0022
1050.0,0.0022
1049.0,0.0023
1048.0,0.0022
1047.0,0.0022
1046.0,0.0021
1045.0,0.002
1044.0,0.002
1043.0,0.0019
1042.0,0.0019
1041.0,0.0019
1040.0,0.0019
1039.0,0.0018
1038.0,0.0018
1037.0,0.0016
1036.0,0.0016
1035.0,0.0015
1034.0,0.0015
1033.0,0.0015
1032.0,0.0015
1031.0,0.0015
1030.0,0.0015
1029.0,0.0014
1028.0,0.0014
1027.0,0.0014
1026.0,0.0014
1025.0,0.0014
1024.0,0.0013
1023.0,0.0012
1022.0,0.0012
1021.0,0.0011
1020.0,0.0011
1019.0,0.001
1018.0,0.001
1017.0,0.0011
1016.0,0.0011
1015.0,0.0011
1014.0,0.001
1013.0,0.001
1012.0,0.001
1011.0,0.001
1010.0,0.001
1009.0,0.001
1008.0,0.001
1007.0,0.001
1006.0,0.0009
1005.0,0.0009
1004.0,0.0009
1003.0,0.001
1002.0,0.0011
1001.0,0.0012
1000.0,0.0014
999.0,0.0017
998.0,0.002
997.0,0.0022
996.0,0.0023
995.0,0.0022
994.0,0.002
993.0,0.0019
992.0,0.0018
991.0,0.0016
990.0,0.0015
989.0,0.0014
988.0,0.0013
987.0,0.0012
986.0,0.0012
985.0,0.0011
984.0,0.0011
983.0,0.001
982.0,0.0011
981.0,0.0011
980.0,0.0012
979.0,0.0013
978.0,0.0014
977.0,0.0015
976.0,0.0018
975.0,0.0021
974.0,0.0023
973.0,0.0026
972.0,0.0027
971.0,0.0027
970.0,0.0026
969.0,0.0025
968.0,0.0023
967.0,0.0021
966.0,0.002
965.0,0.0019
964.0,0.0018
963.0,0.0018
962.0,0.0018
961.0,0.0017
960.0,0.0016
959.0,0.0015
958.0,0.0014
957.0,0.0014
956.0,0.0014
955.0,0.0015
954.0,0.0015
953.0,0.0015
952.0,0.0015
951.0,0.0015
950.0,0.0015
949.0,0.0015
948.0,0.0015
947.0,0.0016
946.0,0.0016
945.0,0.0016
944.0,0.0015
943.0,0.0015
942.0,0.0015
941.0,0.0014
940.0,0.0014
939.0,0.0013
938.0,0.0013
937.0,0.0013
936.0,0.0013
935.0,0.0014
934.0,0.0014
933.0,0.0014
932.0,0.0014
931.0,0.0014
930.0,0.0014
929.0,0.0013
928.0,0.0012
927.0,0.0012
926.0,0.0012
925.0,0.0013
924.0,0.0012
923.0,0.0012
922.0,0.0012
921.0,0.0013
920.0,0.0014
919.0,0.0015
918.0,0.0016
917.0,0.0016
916.0,0.0016
915.0,0.0016
914.0,0.0016
913.0,0.0016
912.0,0.0016
911.0,0.0016
910.0,0.0016
909.0,0.0016
908.0,0.0016
907.0,0.0015
906.0,0.0015
905.0,0.0015
904.0,0.0016
903.0,0.0018
902.0,0.002
901.0,0.0021
900.0,0.0023
899.0,0.0023
898.0,0.0022
897.0,0.0021
896.0,0.0021
895.0,0.0021
894.0,0.002
893.0,0.002
892.0,0.0019
891.0,0.0018
890.0,0.0017
889.0,0.0017
888.0,0.0017
887.0,0.0018
886.0,0.0018
885.0,0.0019
884.0,0.0019
883.0,0.0018
882.0,0.0018
881.0,0.0018
880.0,0.0018
879.0,0.0018
878.0,0.0018
877.0,0.0018
876.0,0.0018
875.0,0.0019
874.0,0.0019
873.0,0.0019
872.0,0.0018
871.0,0.0016
870.0,0.0015
869.0,0.0015
868.0,0.0015
867.0,0.0016
866.0,0.0017
865.0,0.0018
864.0,0.0019
863.0,0.002
862.0,0.0019
861.0,0.0018
860.0,0.0017
859.0,0.0017
858.0,0.0017
857.0,0.0018
856.0,0.0018
855.0,0.0018
854.0,0.0019
853.0,0.0019
852.0,0.0019
851.0,0.0018
850.0,0.0017
849.0,0.0018
848.0,0.0018
847.0,0.0019
846.0,0.0019
845.0,0.002
844.0,0.0023
843.0,0.0029
842.0,0.0034
841.0,0.0038
840.0,0.0038
839.0,0.0036
838.0,0.0033
837.0,0.003
836.0,0.0028
835.0,0.0027
834.0,0.0027
833.0,0.0027
832.0,0.0026
831.0,0.0027
830.0,0.0027
829.0,0.0027
828.0,0.0026
827.0,0.0027
826.0,0.0027
825.0,0.0027
824.0,0.0027
823.0,0.0027
822.0,0.0026
821.0,0.0025
820.0,0.0024
819.0,0.0023
818.0,0.0023
817.0,0.0023
816.0,0.0024
815.0,0.0024
814.0,0.0025
813.0,0.0026
812.0,0.0026
811.0,0.0027
810.0,0.0027
809.0,0.0027
808.0,0.0027
807.0,0.0028
806.0,0.0028
805.0,0.0028
804.0,0.0028
803.0,0.0028
802.0,0.0028
801.0,0.0027
800.0,0.0026
799.0,0.0025
798.0,0.0025
797.0,0.0025
796.0,0.0025
795.0,0.0026
794.0,0.0027
793.0,0.0027
792.0,0.0027
791.0,0.0025
790.0,0.0025
789.0,0.0025
788.0,0.0024
787.0,0.0024
786.0,0.0023
785.0,0.0022
784.0,0.0021
783.0,0.0022
782.0,0.0022
781.0,0.0022
780.0,0.0021
779.0,0.0021
778.0,0.0021
777.0,0.0022
776.0,0.0023
775.0,0.0024
774.0,0.0024
773.0,0.0024
772.0,0.0023
771.0,0.0023
770.0,0.0024
769.0,0.0025
768.0,0.0026
767.0,0.0027
766.0,0.0027
765.0,0.0026
764.0,0.0026
763.0,0.0026
762.0,0.0026
761.0,0.0027
760.0,0.0028
759.0,0.0028
758.0,0.0027
757.0,0.0027
756.0,0.0026
755.0,0.0026
754.0,0.0027
753.0,0.0028
752.0,0.0029
751.0,0.003
750.0,0.003
749.0,0.0031
748.0,0.003
747.0,0.0029
746.0,0.0028
745.0,0.0028
744.0,0.0029
743.0,0.003
742.0,0.0029
741.0,0.0028
740.0,0.0026
739.0,0.0026
738.0,0.0026
737.0,0.0028
736.0,0.0031
735.0,0.0033
734.0,0.0035
733.0,0.0035
732.0,0.0032
731.0,0.003
730.0,0.0028
729.0,0.0029
728.0,0.003
727.0,0.0032
726.0,0.0033
725.0,0.0032
724.0,0.0032
723.0,0.0031
722.0,0.0031
721.0,0.0031
720.0,0.0032
719.0,0.0033
718.0,0.0034
717.0,0.0035
716.0,0.0035
715.0,0.0033
714.0,0.003
713.0,0.0029
712.0,0.0031
711.0,0.0034
710.0,0.0037
709.0,0.0039
708.0,0.0039
707.0,0.0037
706.0,0.0035
705.0,0.0032
704.0,0.003
703.0,0.0031
702.0,0.0032
701.0,0.0033
700.0,0.0034
699.0,0.0035
698.0,0.0036
697.0,0.0036
696.0,0.0038
695.0,0.004
694.0,0.004
693.0,0.0039
692.0,0.0036
691.0,0.0034
690.0,0.0033
689.0,0.0034
688.0,0.0037
687.0,0.004
686.0,0.0042
685.0,0.0042
684.0,0.0043
683.0,0.0043
682.0,0.0044
681.0,0.0045
680.0,0.0048
679.0,0.0051
678.0,0.005
677.0,0.0048
676.0,0.0045
675.0,0.0044
674.0,0.0044
673.0,0.0044
672.0,0.0044
671.0,0.0043
670.0,0.0045
669.0,0.0049
668.0,0.0052
667.0,0.005
666.0,0.0047
665.0,0.0046
664.0,0.0045
663.0,0.0044
662.0,0.0043
661.0,0.0042
660.0,0.0041
659.0,0.0039
658.0,0.0038
657.0,0.0038
656.0,0.004
655.0,0.0042
654.0,0.0042
653.0,0.0042
652.0,0.0042
651.0,0.0043
650.0,0.0045
649.0,0.0048
648.0,0.0052
647.0,0.0056
646.0,0.0057
645.0,0.0055
644.0,0.0052
643.0,0.0051
642.0,0.0052
641.0,0.0055
640.0,0.0058
639.0,0.006
638.0,0.006
637.0,0.0059
636.0,0.0057
635.0,0.0055
634.0,0.0055
633.0,0.0055
632.0,0.0054
631.0,0.0052
630.0,0.0049
629.0,0.0046
628.0,0.0042
627.0,0.0039
626.0,0.0036
625.0,0.0036
624.0,0.0038
623.0,0.0041
622.0,0.0043
621.0,0.0045
620.0,0.0047
619.0,0.005
618.0,0.0053
617.0,0.0055
616.0,0.0057
615.0,0.0059
614.0,0.006
613.0,0.0059
612.0,0.0056
611.0,0.0053
610.0,0.0051
609.0,0.005
608.0,0.0047
607.0,0.0043
606.0,0.0041
605.0,0.0045
604.0,0.0056
603.0,0.007
602.0,0.008
601.0,0.008
600.0,0.0072
