nm,Intensity
526.5,829.6
526.637,830.0
526.774,828.7
526.91,827.2
527.047,828.7
527.184,828.1
527.32,827.7
527.457,827.9
527.594,830.4
527.73,828.0
527.867,828.8
528.004,827.1
528.14,829.8
528.277,828.6
528.414,828.7
528.55,828.6
528.687,830.1
528.823,827.7
528.96,828.1
529.096,830.0
529.233,828.8
529.37,827.8
529.506,829.1
529.643,828.8
529.779,829.5
529.916,828.1
530.052,829.5
530.189,829.8
530.325,828.9
530.462,830.1
530.598,828.4
530.735,828.6
530.871,829.1
531.008,830.3
531.144,828.9
531.28,827.3
531.417,829.2
531.553,827.5
531.69,828.5
531.826,828.9
531.962,834.0
532.099,864.8
532.235,871.9
532.372,839.7
532.508,828.6
532.644,828.3
532.781,828.3
532.917,828.8
533.053,829.4
533.19,828.7
533.326,828.9
533.462,830.8
533.599,828.5
533.735,830.7
533.871,832.2
534.007,838.5
534.144,837.2
534.28,838.9
534.416,836.5
534.552,838.3
534.689,840.7
534.825,840.7
534.961,841.6
535.097,843.5
535.234,843.3
535.37,841.2
535.506,836.6
535.642,836.1
535.778,836.3
535.914,835.4
536.051,832.7
536.187,832.6
536.323,835.2
536.459,832.1
536.595,833.8
536.731,836.2
536.867,834.5
537.003,835.9
537.14,838.5
537.276,838.0
537.412,838.0
537.548,834.6
537.684,834.6
537.82,834.0
537.956,834.0
538.092,833.8
538.228,832.8
538.364,832.9
538.5,833.7
538.636,833.3
538.772,833.0
538.908,835.1
539.044,835.8
539.18,832.9
539.316,834.5
539.452,832.9
539.588,832.7
539.724,835.7
539.86,832.4
539.996,831.4
540.132,832.1
540.268,831.8
540.403,832.6
540.539,831.7
540.675,831.9
540.811,832.0
540.947,833.4
541.083,833.0
541.219,833.9
541.355,832.4
541.49,834.2
541.626,833.2
541.762,832.3
541.898,833.2
542.034,832.7
542.17,831.9
542.305,831.7
542.441,832.8
542.577,831.5
542.713,832.7
542.848,831.6
542.984,831.1
543.12,831.8
543.256,833.4
543.391,835.8
543.527,838.0
543.663,840.3
543.799,841.3
543.934,836.8
544.07,835.7
544.206,834.9
544.341,834.4
544.477,832.6
544.613,833.9
544.748,833.9
544.884,831.8
545.02,832.2
545.155,833.3
545.291,833.4
545.427,834.3
545.562,834.6
545.698,834.5
545.833,833.7
545.969,831.6
546.105,833.6
546.24,831.9
546.376,832.3
546.511,833.3
546.647,832.5
546.782,833.1
546.918,833.1
547.053,830.7
547.189,834.5
547.325,834.0
547.46,833.0
547.596,833.9
547.731,833.5
547.867,833.0
548.002,832.1
548.137,831.9
548.273,833.7
548.408,830.7
548.544,831.5
548.679,831.9
548.815,831.3
548.95,831.5
549.086,831.5
549.221,832.9
549.356,832.4
549.492,832.7
549.627,831.4
549.763,833.0
549.898,831.8
550.033,832.7
550.169,832.3
550.304,832.9
550.439,832.6
550.575,832.5
550.71,830.5
550.845,832.0
550.981,830.7
551.116,831.4
551.251,830.8
551.387,833.1
551.522,832.7
551.657,832.7
551.793,832.8
551.928,833.5
552.063,833.2
552.198,832.2
552.334,831.1
552.469,832.6
552.604,831.4
552.739,831.1
552.874,831.4
553.01,831.5
553.145,830.9
553.28,830.5
553.415,831.1
553.55,832.8
553.686,833.4
553.821,832.1
553.956,832.1
554.091,832.4
554.226,831.9
554.361,831.6
554.497,832.9
554.632,831.4
554.767,833.2
554.902,832.3
555.037,832.6
555.172,832.7
555.307,832.3
555.442,832.1
555.577,832.7
555.712,835.3
555.848,833.8
555.983,840.9
556.118,848.3
556.253,843.1
556.388,836.4
556.523,834.4
556.658,837.1
556.793,835.3
556.928,840.3
557.063,844.4
557.198,843.3
557.333,838.6
557.468,833.9
557.603,835.9
557.738,834.5
557.873,834.7
558.008,832.9
558.142,834.0
558.277,833.4
558.412,834.4
558.547,832.6
558.682,832.8
558.817,833.0
558.952,832.4
559.087,833.2
559.222,832.7
559.357,832.3
559.492,832.5
559.626,833.7
559.761,833.3
559.896,832.2
560.031,833.4
560.166,835.9
560.301,834.9
560.435,834.1
560.57,833.2
560.705,834.5
560.84,831.7
560.975,833.5
561.109,836.0
561.244,837.6
561.379,836.2
561.514,836.6
561.649,834.4
561.783,834.9
561.918,837.0
562.053,837.6
562.188,842.7
562.322,848.0
562.457,846.3
562.592,836.5
562.726,833.9
562.861,834.5
562.996,833.8
563.131,834.2
563.265,836.6
563.4,835.2
563.535,834.7
563.669,834.2
563.804,834.3
563.939,833.6
564.073,832.6
564.208,834.0
564.342,832.3
564.477,833.2
564.612,831.2
564.746,831.2
564.881,832.5
565.015,833.5
565.15,832.9
565.285,834.4
565.419,834.6
565.554,833.2
565.688,833.5
565.823,833.3
565.957,834.5
566.092,834.7
566.227,835.1
566.361,837.4
566.496,838.5
566.63,838.1
566.765,839.7
566.899,843.5
567.034,843.6
567.168,840.0
567.303,838.6
567.437,839.2
567.572,838.2
567.706,834.7
567.84,834.0
567.975,834.4
568.109,832.3
568.244,834.0
568.378,834.5
568.513,834.4
568.647,835.0
568.781,833.7
568.916,835.4
569.05,836.2
569.185,836.7
569.319,835.4
569.453,833.8
569.588,832.5
569.722,833.4
569.857,834.4
569.991,833.7
570.125,835.2
570.26,834.7
570.394,834.4
570.528,833.6
570.663,836.1
570.797,834.3
570.931,834.9
571.065,833.4
571.2,833.8
571.334,834.4
571.468,835.2
571.603,834.9
571.737,835.6
571.871,835.7
572.005,835.6
572.14,834.1
572.274,834.6
572.408,839.3
572.542,843.6
572.677,847.2
572.811,845.7
572.945,839.9
573.079,837.2
573.213,836.0
573.348,834.7
573.482,835.5
573.616,838.2
573.75,838.4
573.884,838.5
574.018,836.3
574.153,835.5
574.287,836.3
574.421,835.2
574.555,834.4
574.689,833.0
574.823,833.1
574.957,832.8
575.092,833.9
575.226,833.0
575.36,832.8
575.494,833.3
575.628,831.9
575.762,835.4
575.896,834.5
576.03,836.0
576.164,840.4
576.298,839.8
576.432,839.1
576.566,839.5
576.7,844.2
576.834,846.1
576.968,851.5
577.103,848.6
577.237,843.3
577.371,837.9
577.505,834.6
577.639,834.1
577.773,834.4
577.907,833.4
578.04,832.8
578.174,832.2
578.308,833.4
578.442,833.3
578.576,833.5
578.71,833.9
578.844,831.6
578.978,833.3
579.112,833.8
579.246,830.9
579.38,832.8
579.514,832.9
579.648,832.9
579.782,833.2
579.916,834.3
580.049,833.7
580.183,833.6
580.317,834.1
580.451,833.7
580.585,831.2
580.719,833.3
580.853,830.5
580.986,833.5
581.12,833.1
581.254,834.2
581.388,833.0
581.522,831.9
581.656,833.4
581.789,833.4
581.923,833.3
582.057,832.4
582.191,832.3
582.325,832.1
582.458,832.0
582.592,832.7
582.726,833.0
582.86,833.5
582.993,833.0
583.127,833.6
583.261,831.6
583.395,832.3
583.528,832.3
583.662,833.3
583.796,832.6
583.93,833.2
584.063,832.3
584.197,832.4
584.331,830.9
584.464,833.5
584.598,833.2
584.732,833.7
584.865,832.1
584.999,833.1
585.133,832.3
585.266,832.4
585.4,833.6
585.534,833.9
585.667,834.5
585.801,832.2
585.935,831.8
586.068,833.8
586.202,832.6
586.336,833.3
586.469,832.9
586.603,833.8
586.736,833.6
586.87,832.6
587.004,833.8
587.137,832.7
587.271,832.1
587.404,832.3
587.538,831.8
587.671,832.3
587.805,831.0
587.938,831.9
588.072,832.3
588.206,832.8
588.339,833.5
588.473,833.1
588.606,831.3
588.74,832.7
588.873,832.8
589.007,833.9
589.14,832.7
589.274,832.8
589.407,832.9
589.541,833.2
589.674,831.8
589.808,834.0
589.941,832.3
590.074,832.8
590.208,832.5
590.341,832.9
590.475,834.4
590.608,833.8
590.742,833.6
590.875,834.4
591.009,833.6
591.142,832.2
591.275,832.7
591.409,831.9
591.542,831.4
591.676,833.1
591.809,832.8
591.942,833.0
592.076,833.8
592.209,834.0
592.342,832.6
592.476,833.1
592.609,833.8
592.743,833.8
592.876,833.0
593.009,833.2
593.143,834.1
593.276,833.0
593.409,833.2
593.543,833.6
593.676,833.0
593.809,834.2
593.942,832.8
594.076,833.5
594.209,833.2
594.342,832.6
594.476,834.3
594.609,833.4
594.742,833.4
594.875,832.0
595.009,832.4
595.142,832.6
595.275,832.1
595.408,833.1
595.542,832.8
595.675,833.4
595.808,833.3
595.941,835.2
596.075,833.7
596.208,835.2
596.341,834.1
596.474,833.1
596.607,833.5
596.741,832.9
596.874,832.7
597.007,833.0
597.14,832.9
597.273,833.2
597.406,833.6
597.54,832.7
597.673,833.7
597.806,833.7
597.939,832.5
598.072,833.7
598.205,833.9
598.338,834.9
598.472,832.6
598.605,833.1
598.738,832.1
598.871,832.8
599.004,833.6
599.137,832.3
599.27,830.9
599.403,834.1
599.536,832.3
599.67,832.4
599.803,833.6
599.936,834.0
600.069,833.9
600.202,832.5
600.335,833.7
600.468,832.7
600.601,834.3
600.734,833.3
600.867,832.5
601.0,833.5
601.133,832.4
601.266,833.2
601.399,832.2
601.532,832.6
601.665,832.8
601.798,830.7
601.931,832.7
602.064,832.5
602.197,833.6
602.33,834.0
602.463,834.2
602.596,833.4
602.729,833.1
602.862,833.3
602.995,831.7
603.128,832.4
603.261,832.7
603.394,833.6
603.527,833.9
603.66,832.5
603.793,835.0
603.925,831.6
604.058,832.5
604.191,833.2
604.324,831.9
604.457,834.3
604.59,833.2
604.723,831.4
604.856,832.8
604.989,834.7
605.122,831.0
605.254,832.4
605.387,833.1
605.52,833.2
605.653,832.3
605.786,832.6
605.919,833.5
606.052,833.0
606.184,832.2
606.317,834.2
606.45,833.1
606.583,832.8
606.716,832.5
606.849,831.8
606.981,831.5
607.114,831.8
607.247,833.5
607.38,832.4
607.513,834.0
607.645,831.4
607.778,834.4
607.911,833.6
608.044,833.1
608.177,833.6
608.309,832.7
608.442,834.1
608.575,832.0
608.708,831.6
608.84,832.8
608.973,833.6
609.106,833.2
609.239,831.8
609.371,832.9
609.504,833.9
609.637,832.7
609.769,833.9
609.902,832.6
610.035,834.1
610.168,833.0
610.3,831.1
610.433,833.8
610.566,833.8
610.698,833.1
610.831,831.9
610.964,833.1
611.096,833.2
611.229,831.4
611.362,832.8
611.494,833.8
611.627,831.8
611.76,833.2
611.892,834.2
612.025,832.8
612.158,831.9
612.29,833.6
612.423,831.9
612.556,833.5
612.688,833.1
612.821,831.9
612.953,835.1
613.086,831.3
613.219,834.9
613.351,834.2
613.484,833.3
613.616,832.8
613.749,833.1
613.882,832.9
614.014,832.3
614.147,832.5
614.279,832.8
614.412,831.4
614.544,831.5
614.677,832.1
614.809,834.0
614.942,834.0
615.075,834.6
615.207,832.9
615.34,834.1
615.472,833.1
615.605,833.4
615.737,832.8
615.87,832.7
616.002,832.0
616.135,834.7
616.267,833.4
616.4,831.6
616.532,832.3
616.665,833.3
616.797,833.3
616.93,833.3
617.062,834.9
617.195,833.4
617.327,833.5
617.46,833.0
617.592,833.8
617.725,834.1
617.857,834.0
617.989,832.9
618.122,831.8
618.254,834.3
618.387,833.2
618.519,833.4
618.652,833.6
618.784,834.2
618.917,833.5
619.049,834.6
619.181,833.1
619.314,833.4
619.446,834.8
619.579,833.5
619.711,833.9
619.843,835.6
619.976,833.9
620.108,834.6
620.241,835.5
620.373,836.3
620.505,833.2
620.638,834.5
620.77,834.0
620.902,834.4
621.035,835.8
621.167,834.3
621.299,835.3
621.432,833.7
621.564,834.7
621.696,835.1
621.829,836.5
621.961,837.6
622.093,839.0
622.226,838.7
622.358,840.4
622.49,841.8
622.623,838.9
622.755,838.4
622.887,837.9
623.02,838.7
623.152,836.4
623.284,835.1
623.416,837.0
623.549,834.8
623.681,835.2
623.813,834.8
623.946,834.8
624.078,835.3
624.21,834.7
624.342,833.9
624.475,833.4
624.607,834.0
624.739,834.7
624.871,833.7
625.004,834.9
625.136,834.0
625.268,834.4
625.4,835.7
625.533,835.7
625.665,836.0
625.797,836.1
625.929,836.6
626.061,837.0
626.194,836.9
626.326,839.0
626.458,842.1
626.59,849.0
626.722,860.0
626.855,870.7
626.987,879.3
627.119,872.8
627.251,862.5
627.383,854.5
627.516,849.9
627.648,853.2
627.78,865.0
627.912,885.5
628.044,902.6
628.176,902.9
628.308,904.3
628.441,916.2
628.573,928.7
628.705,932.5
628.837,925.3
628.969,919.1
629.101,905.8
629.233,903.4
629.366,906.7
629.498,914.8
629.63,906.7
629.762,893.3
629.894,885.4
630.026,884.6
630.158,885.3
630.29,888.2
630.422,884.1
630.554,880.6
630.687,867.4
630.819,859.8
630.951,858.0
631.083,862.0
631.215,871.2
631.347,883.7
631.479,887.5
631.611,880.0
631.743,878.1
631.875,875.5
632.007,867.7
632.139,859.8
632.271,853.1
632.403,848.7
632.535,844.0
632.667,838.9
632.799,838.6
632.931,837.6
633.063,836.3
633.195,837.4
633.328,835.8
633.46,835.8
633.592,835.5
633.724,836.2
633.856,834.3
633.988,832.3
634.12,834.6
634.252,833.9
634.384,834.7
634.516,834.0
634.647,835.4
634.779,834.5
634.911,830.5
635.043,832.5
635.175,833.4
635.307,833.5
635.439,834.3
635.571,833.0
635.703,833.3
635.835,832.1
635.967,833.7
636.099,834.2
636.231,833.3
636.363,833.8
636.495,833.0
636.627,833.1
636.759,834.2
636.891,833.8
637.023,833.4
637.155,833.5
637.286,833.8
637.418,832.2
637.55,832.1
637.682,833.8
637.814,832.1
637.946,833.1
638.078,832.8
638.21,831.5
638.342,832.3
638.474,832.9
638.605,834.6
638.737,832.2
638.869,833.9
639.001,832.3
639.133,832.3
639.265,833.9
639.397,832.3
639.529,833.2
639.66,833.7
639.792,832.2
639.924,832.7
640.056,834.1
640.188,832.6
640.32,832.9
640.452,833.8
640.583,833.5
640.715,832.8
640.847,833.7
640.979,834.1
641.111,835.4
641.243,834.4
641.374,833.0
641.506,831.8
641.638,833.7
641.77,834.0
641.902,833.6
642.033,832.6
642.165,832.9
642.297,834.8
642.429,832.3
642.561,833.6
642.692,831.2
642.824,833.0
642.956,831.2
643.088,833.5
643.22,832.9
643.351,832.0
643.483,833.1
643.615,831.2
643.747,830.6
643.878,831.2
644.01,833.6
644.142,834.0
644.274,832.8
644.405,833.9
644.537,832.0
644.669,831.6
644.801,832.2
644.932,833.5
645.064,831.8
645.196,832.0
645.328,833.3
645.459,832.4
645.591,832.8
645.723,832.5
645.854,830.6
645.986,832.3
646.118,833.8
646.25,831.7
646.381,833.0
646.513,832.2
646.645,832.3
646.776,831.6
646.908,832.5
647.04,832.6
647.172,833.0
647.303,831.9
647.435,834.3
647.567,833.5
647.698,833.1
647.83,831.9
647.962,831.4
648.093,833.5
648.225,832.8
648.357,833.0
648.488,832.2
648.62,831.7
648.752,833.0
648.883,833.2
649.015,833.5
649.147,833.1
649.278,831.9
649.41,832.8
649.542,833.3
649.673,831.5
649.805,833.3
649.937,834.9
650.068,831.6
650.2,831.7
650.331,830.5
650.463,833.4
650.595,831.8
650.726,832.2
650.858,831.3
650.99,832.9
651.121,832.9
651.253,833.3
651.384,833.4
651.516,832.1
651.648,831.9
651.779,833.1
651.911,832.9
652.042,831.8
652.174,832.7
652.306,832.9
652.437,831.1
652.569,834.5
652.7,832.0
652.832,833.3
652.963,833.6
653.095,833.4
653.227,834.1
653.358,832.4
653.49,834.8
653.621,833.9
653.753,834.1
653.884,834.6
654.016,834.3
654.148,834.5
654.279,832.8
654.411,833.4
654.542,831.9
654.674,833.4
654.805,830.8
654.937,833.3
655.068,833.1
655.2,833.3
655.331,831.9
655.463,833.2
655.595,831.9
655.726,831.8
655.858,832.3
655.989,831.1
656.121,832.8
656.252,833.4
656.384,833.0
656.515,832.1
656.647,832.8
656.778,831.8
656.91,831.6
657.041,830.3
657.173,833.1
657.304,831.0
657.436,832.9
657.567,832.0
657.699,831.6
657.83,832.5
657.962,830.2
658.093,832.3
658.225,830.8
658.356,832.9
658.488,832.1
658.619,831.4
658.751,831.9
658.882,830.4
659.013,831.1
659.145,832.4
659.276,831.3
659.408,831.5
659.539,832.5
659.671,830.2
659.802,831.4
659.934,831.2
660.065,831.7
660.197,833.6
660.328,831.9
660.459,830.7
660.591,832.1
660.722,830.8
660.854,832.0
660.985,831.3
661.117,831.8
661.248,831.3
661.38,830.6
661.511,830.9
661.642,831.6
661.774,830.1
661.905,831.7
662.037,831.5
662.168,830.2
662.299,828.7
662.431,829.1
662.562,830.1
662.694,829.9
662.825,830.3
662.957,830.4
663.088,830.7
