cm-1,A
4000.0,-0.0037
3999.0,-0.0037
3998.0,-0.0037
3997.0,-0.0036
3996.0,-0.0036
3995.0,-0.0036
3994.0,-0.0036
3993.0,-0.0036
3992.0,-0.0035
3991.0,-0.0035
3990.0,-0.0035
3989.0,-0.0036
3988.0,-0.0036
3987.0,-0.0035
3986.0,-0.0035
3985.0,-0.0034
3984.0,-0.0034
3983.0,-0.0035
3982.0,-0.0036
3981.0,-0.0036
3980.0,-0.0036
3979.0,-0.0035
3978.0,-0.0035
3977.0,-0.0035
3976.0,-0.0036
3975.0,-0.0036
3974.0,-0.0037
3973.0,-0.0037
3972.0,-0.0037
3971.0,-0.0037
3970.0,-0.0037
3969.0,-0.0036
3968.0,-0.0035
3967.0,-0.0035
3966.0,-0.0035
3965.0,-0.0035
3964.0,-0.0036
3963.0,-0.0037
3962.0,-0.0037
3961.0,-0.0037
3960.0,-0.0037
3959.0,-0.0036
3958.0,-0.0036
3957.0,-0.0036
3956.0,-0.0035
3955.0,-0.0035
3954.0,-0.0035
3953.0,-0.0036
3952.0,-0.0037
3951.0,-0.0037
3950.0,-0.0038
3949.0,-0.0038
3948.0,-0.0037
3947.0,-0.0037
3946.0,-0.0035
3945.0,-0.0034
3944.0,-0.0034
3943.0,-0.0034
3942.0,-0.0035
3941.0,-0.0035
3940.0,-0.0036
3939.0,-0.0036
3938.0,-0.0037
3937.0,-0.0038
3936.0,-0.0038
3935.0,-0.0038
3934.0,-0.0038
3933.0,-0.0037
3932.0,-0.0036
3931.0,-0.0036
3930.0,-0.0036
3929.0,-0.0036
3928.0,-0.0036
3927.0,-0.0036
3926.0,-0.0035
3925.0,-0.0035
3924.0,-0.0035
3923.0,-0.0035
3922.0,-0.0035
3921.0,-0.0035
3920.0,-0.0035
3919.0,-0.0034
3918.0,-0.0033
3917.0,-0.0033
3916.0,-0.0034
3915.0,-0.0034
3914.0,-0.0035
3913.0,-0.0035
3912.0,-0.0036
3911.0,-0.0036
3910.0,-0.0037
3909.0,-0.0037
3908.0,-0.0037
3907.0,-0.0037
3906.0,-0.0037
3905.0,-0.0037
3904.0,-0.0037
3903.0,-0.0036
3902.0,-0.0034
3901.0,-0.0033
3900.0,-0.0032
3899.0,-0.0033
3898.0,-0.0034
3897.0,-0.0035
3896.0,-0.0036
3895.0,-0.0037
3894.0,-0.0038
3893.0,-0.0037
3892.0,-0.0036
3891.0,-0.0035
3890.0,-0.0035
3889.0,-0.0034
3888.0,-0.0033
3887.0,-0.0033
3886.0,-0.0032
3885.0,-0.0033
3884.0,-0.0033
3883.0,-0.0034
3882.0,-0.0035
3881.0,-0.0036
3880.0,-0.0037
3879.0,-0.0037
3878.0,-0.0037
3877.0,-0.0037
3876.0,-0.0037
3875.0,-0.0037
3874.0,-0.0037
3873.0,-0.0038
3872.0,-0.0038
3871.0,-0.0037
3870.0,-0.0036
3869.0,-0.0036
3868.0,-0.0035
3867.0,-0.0034
3866.0,-0.0034
3865.0,-0.0034
3864.0,-0.0033
3863.0,-0.0033
3862.0,-0.0033
3861.0,-0.0033
3860.0,-0.0033
3859.0,-0.0033
3858.0,-0.0033
3857.0,-0.0033
3856.0,-0.0032
3855.0,-0.0031
3854.0,-0.0031
3853.0,-0.0033
3852.0,-0.0034
3851.0,-0.0034
3850.0,-0.0034
3849.0,-0.0034
3848.0,-0.0034
3847.0,-0.0034
3846.0,-0.0034
3845.0,-0.0034
3844.0,-0.0034
3843.0,-0.0035
3842.0,-0.0035
3841.0,-0.0035
3840.0,-0.0035
3839.0,-0.0035
3838.0,-0.0035
3837.0,-0.0036
3836.0,-0.0036
3835.0,-0.0035
3834.0,-0.0034
3833.0,-0.0033
3832.0,-0.0032
3831.0,-0.0032
3830.0,-0.0032
3829.0,-0.0032
3828.0,-0.0032
3827.0,-0.0032
3826.0,-0.0033
3825.0,-0.0033
3824.0,-0.0034
3823.0,-0.0034
3822.0,-0.0033
3821.0,-0.0034
3820.0,-0.0034
3819.0,-0.0033
3818.0,-0.0033
3817.0,-0.0033
3816.0,-0.0034
3815.0,-0.0035
3814.0,-0.0034
3813.0,-0.0033
3812.0,-0.0033
3811.0,-0.0033
3810.0,-0.0034
3809.0,-0.0033
3808.0,-0.0032
3807.0,-0.0032
3806.0,-0.0033
3805.0,-0.0033
3804.0,-0.0034
3803.0,-0.0034
3802.0,-0.0034
3801.0,-0.0034
3800.0,-0.0033
3799.0,-0.0032
3798.0,-0.0032
3797.0,-0.0032
3796.0,-0.0033
3795.0,-0.0034
3794.0,-0.0034
3793.0,-0.0033
3792.0,-0.0033
3791.0,-0.0032
3790.0,-0.0032
3789.0,-0.0032
3788.0,-0.0032
3787.0,-0.0033
3786.0,-0.0033
3785.0,-0.0034
3784.0,-0.0034
3783.0,-0.0035
3782.0,-0.0034
3781.0,-0.0033
3780.0,-0.0033
3779.0,-0.0032
3778.0,-0.0033
3777.0,-0.0033
3776.0,-0.0033
3775.0,-0.0033
3774.0,-0.0033
3773.0,-0.0033
3772.0,-0.0033
3771.0,-0.0033
3770.0,-0.0033
3769.0,-0.0033
3768.0,-0.0033
3767.0,-0.0032
3766.0,-0.0033
3765.0,-0.0033
3764.0,-0.0033
3763.0,-0.0033
3762.0,-0.0032
3761.0,-0.0033
3760.0,-0.0033
3759.0,-0.0033
3758.0,-0.0033
3757.0,-0.0033
3756.0,-0.0034
3755.0,-0.0034
3754.0,-0.0035
3753.0,-0.0036
3752.0,-0.0036
3751.0,-0.0035
3750.0,-0.0034
3749.0,-0.0033
3748.0,-0.0032
3747.0,-0.0031
3746.0,-0.0031
3745.0,-0.0031
3744.0,-0.0032
3743.0,-0.0031
3742.0,-0.0031
3741.0,-0.0031
3740.0,-0.0032
3739.0,-0.0033
3738.0,-0.0032
3737.0,-0.0031
3736.0,-0.0031
3735.0,-0.0031
3734.0,-0.0032
3733.0,-0.0031
3732.0,-0.0031
3731.0,-0.003
3730.0,-0.0029
3729.0,-0.0029
3728.0,-0.0029
3727.0,-0.0029
3726.0,-0.003
3725.0,-0.0031
3724.0,-0.0031
3723.0,-0.0032
3722.0,-0.0032
3721.0,-0.0032
3720.0,-0.0032
3719.0,-0.0032
3718.0,-0.0033
3717.0,-0.0034
3716.0,-0.0035
3715.0,-0.0037
3714.0,-0.0037
3713.0,-0.0037
3712.0,-0.0036
3711.0,-0.0036
3710.0,-0.0036
3709.0,-0.0035
3708.0,-0.0034
3707.0,-0.0033
3706.0,-0.0033
3705.0,-0.0033
3704.0,-0.0034
3703.0,-0.0035
3702.0,-0.0036
3701.0,-0.0037
3700.0,-0.0038
3699.0,-0.0038
3698.0,-0.0037
3697.0,-0.0037
3696.0,-0.0037
3695.0,-0.0038
3694.0,-0.0038
3693.0,-0.0038
3692.0,-0.0039
3691.0,-0.0039
3690.0,-0.0039
3689.0,-0.0039
3688.0,-0.0038
3687.0,-0.0038
3686.0,-0.0037
3685.0,-0.0037
3684.0,-0.0037
3683.0,-0.0037
3682.0,-0.0037
3681.0,-0.0037
3680.0,-0.0037
3679.0,-0.0038
3678.0,-0.004
3677.0,-0.0041
3676.0,-0.0041
3675.0,-0.0042
3674.0,-0.0042
3673.0,-0.0041
3672.0,-0.0039
3671.0,-0.0039
3670.0,-0.0039
3669.0,-0.004
3668.0,-0.004
3667.0,-0.004
3666.0,-0.0041
3665.0,-0.0042
3664.0,-0.0043
3663.0,-0.0044
3662.0,-0.0045
3661.0,-0.0047
3660.0,-0.0048
3659.0,-0.005
3658.0,-0.0051
3657.0,-0.0053
3656.0,-0.0055
3655.0,-0.0056
3654.0,-0.0056
3653.0,-0.0056
3652.0,-0.0057
3651.0,-0.0058
3650.0,-0.0061
3649.0,-0.0064
3648.0,-0.0066
3647.0,-0.0067
3646.0,-0.0068
3645.0,-0.0068
3644.0,-0.0069
3643.0,-0.0072
3642.0,-0.0074
3641.0,-0.0077
3640.0,-0.0079
3639.0,-0.0081
3638.0,-0.0084
3637.0,-0.0086
3636.0,-0.0088
3635.0,-0.0091
3634.0,-0.0093
3633.0,-0.0094
3632.0,-0.0095
3631.0,-0.0095
3630.0,-0.0096
3629.0,-0.0098
3628.0,-0.0101
3627.0,-0.0103
3626.0,-0.0104
3625.0,-0.0107
3624.0,-0.011
3623.0,-0.0114
3622.0,-0.0117
3621.0,-0.012
3620.0,-0.0123
3619.0,-0.0126
3618.0,-0.0128
3617.0,-0.013
3616.0,-0.0132
3615.0,-0.0134
3614.0,-0.0137
3613.0,-0.014
3612.0,-0.0143
3611.0,-0.0144
3610.0,-0.0145
3609.0,-0.0145
3608.0,-0.0147
3607.0,-0.0148
3606.0,-0.0151
3605.0,-0.0154
3604.0,-0.0156
3603.0,-0.0159
3602.0,-0.0161
3601.0,-0.0163
3600.0,-0.0165
3599.0,-0.0168
3598.0,-0.017
3597.0,-0.0171
3596.0,-0.0172
3595.0,-0.0174
3594.0,-0.0176
3593.0,-0.0178
3592.0,-0.0181
3591.0,-0.0183
3590.0,-0.0185
3589.0,-0.0186
3588.0,-0.0186
3587.0,-0.0186
3586.0,-0.0188
3585.0,-0.0189
3584.0,-0.0191
3583.0,-0.0194
3582.0,-0.0197
3581.0,-0.02
3580.0,-0.0203
3579.0,-0.0205
3578.0,-0.0208
3577.0,-0.021
3576.0,-0.0211
3575.0,-0.0213
3574.0,-0.0215
3573.0,-0.0217
3572.0,-0.0218
3571.0,-0.0219
3570.0,-0.022
3569.0,-0.0221
3568.0,-0.0223
3567.0,-0.0225
3566.0,-0.0228
3565.0,-0.0231
3564.0,-0.0234
3563.0,-0.0237
3562.0,-0.024
3561.0,-0.0242
3560.0,-0.0243
3559.0,-0.0243
3558.0,-0.0244
3557.0,-0.0246
3556.0,-0.0248
3555.0,-0.0251
3554.0,-0.0254
3553.0,-0.0257
3552.0,-0.0259
3551.0,-0.026
3550.0,-0.0262
3549.0,-0.0263
3548.0,-0.0265
3547.0,-0.0267
3546.0,-0.027
3545.0,-0.0272
3544.0,-0.0273
3543.0,-0.0275
3542.0,-0.0277
3541.0,-0.0279
3540.0,-0.0281
3539.0,-0.0284
3538.0,-0.0286
3537.0,-0.0288
3536.0,-0.029
3535.0,-0.0292
3534.0,-0.0294
3533.0,-0.0296
3532.0,-0.0298
3531.0,-0.03
3530.0,-0.0302
3529.0,-0.0304
3528.0,-0.0306
3527.0,-0.0308
3526.0,-0.0309
3525.0,-0.0311
3524.0,-0.0313
3523.0,-0.0316
3522.0,-0.0318
3521.0,-0.032
3520.0,-0.0322
3519.0,-0.0324
3518.0,-0.0326
3517.0,-0.0328
3516.0,-0.0329
3515.0,-0.033
3514.0,-0.0331
3513.0,-0.0333
3512.0,-0.0334
3511.0,-0.0335
3510.0,-0.0336
3509.0,-0.0338
3508.0,-0.034
3507.0,-0.0343
3506.0,-0.0345
3505.0,-0.0348
3504.0,-0.0351
3503.0,-0.0354
3502.0,-0.0357
3501.0,-0.036
3500.0,-0.0363
3499.0,-0.0366
3498.0,-0.0369
3497.0,-0.0372
3496.0,-0.0375
3495.0,-0.0378
3494.0,-0.0381
3493.0,-0.0384
3492.0,-0.0388
3491.0,-0.0392
3490.0,-0.0395
3489.0,-0.0398
3488.0,-0.0402
3487.0,-0.0405
3486.0,-0.0408
3485.0,-0.041
3484.0,-0.0412
3483.0,-0.0415
3482.0,-0.0418
3481.0,-0.0422
3480.0,-0.0424
3479.0,-0.0427
3478.0,-0.0429
3477.0,-0.0431
3476.0,-0.0434
3475.0,-0.0438
3474.0,-0.0442
3473.0,-0.0446
3472.0,-0.045
3471.0,-0.0454
3470.0,-0.0458
3469.0,-0.0462
3468.0,-0.0466
3467.0,-0.047
3466.0,-0.0473
3465.0,-0.0475
3464.0,-0.0478
3463.0,-0.0481
3462.0,-0.0484
3461.0,-0.0488
3460.0,-0.0493
3459.0,-0.0498
3458.0,-0.0502
3457.0,-0.0506
3456.0,-0.0509
3455.0,-0.0511
3454.0,-0.0513
3453.0,-0.0515
3452.0,-0.0519
3451.0,-0.0522
3450.0,-0.0526
3449.0,-0.0529
3448.0,-0.0531
3447.0,-0.0534
3446.0,-0.0538
3445.0,-0.0541
3444.0,-0.0544
3443.0,-0.0546
3442.0,-0.0549
3441.0,-0.0552
3440.0,-0.0556
3439.0,-0.056
3438.0,-0.0564
3437.0,-0.0568
3436.0,-0.057
3435.0,-0.0573
3434.0,-0.0575
3433.0,-0.0578
3432.0,-0.0581
3431.0,-0.0585
3430.0,-0.0589
3429.0,-0.0592
3428.0,-0.0595
3427.0,-0.0596
3426.0,-0.0598
3425.0,-0.06
3424.0,-0.0602
3423.0,-0.0605
3422.0,-0.0609
3421.0,-0.0613
3420.0,-0.0617
3419.0,-0.0622
3418.0,-0.0626
3417.0,-0.063
3416.0,-0.0634
3415.0,-0.0639
3414.0,-0.0643
3413.0,-0.0646
3412.0,-0.0649
3411.0,-0.0652
3410.0,-0.0656
3409.0,-0.0661
3408.0,-0.0666
3407.0,-0.067
3406.0,-0.0672
3405.0,-0.0675
3404.0,-0.0679
3403.0,-0.0683
3402.0,-0.0688
3401.0,-0.0692
3400.0,-0.0696
3399.0,-0.07
3398.0,-0.0705
3397.0,-0.0709
3396.0,-0.0713
3395.0,-0.0717
3394.0,-0.072
3393.0,-0.0723
3392.0,-0.0726
3391.0,-0.073
3390.0,-0.0734
3389.0,-0.0739
3388.0,-0.0744
3387.0,-0.0748
3386.0,-0.0752
3385.0,-0.0757
3384.0,-0.0762
3383.0,-0.0766
3382.0,-0.0771
3381.0,-0.0775
3380.0,-0.0779
3379.0,-0.0784
3378.0,-0.0789
3377.0,-0.0794
3376.0,-0.0798
3375.0,-0.0802
3374.0,-0.0805
3373.0,-0.0809
3372.0,-0.0812
3371.0,-0.0816
3370.0,-0.082
3369.0,-0.0824
3368.0,-0.0828
3367.0,-0.0832
3366.0,-0.0837
3365.0,-0.084
3364.0,-0.0843
3363.0,-0.0845
3362.0,-0.0847
3361.0,-0.085
3360.0,-0.0852
3359.0,-0.0855
3358.0,-0.0857
3357.0,-0.0859
3356.0,-0.0862
3355.0,-0.0864
3354.0,-0.0868
3353.0,-0.0871
3352.0,-0.0873
3351.0,-0.0875
3350.0,-0.0876
3349.0,-0.0876
3348.0,-0.0877
3347.0,-0.0878
3346.0,-0.088
3345.0,-0.0881
3344.0,-0.0883
3343.0,-0.0884
3342.0,-0.0886
3341.0,-0.0887
3340.0,-0.0888
3339.0,-0.0889
3338.0,-0.089
3337.0,-0.0891
3336.0,-0.0892
3335.0,-0.0893
3334.0,-0.0893
3333.0,-0.0893
3332.0,-0.0891
3331.0,-0.089
3330.0,-0.089
3329.0,-0.089
3328.0,-0.089
3327.0,-0.089
3326.0,-0.089
3325.0,-0.0889
3324.0,-0.0889
3323.0,-0.0888
3322.0,-0.0887
3321.0,-0.0886
3320.0,-0.0885
3319.0,-0.0884
3318.0,-0.0882
3317.0,-0.088
3316.0,-0.0879
3315.0,-0.0878
3314.0,-0.0877
3313.0,-0.0876
3312.0,-0.0874
3311.0,-0.0874
3310.0,-0.0873
3309.0,-0.0873
3308.0,-0.0873
3307.0,-0.0872
3306.0,-0.087
3305.0,-0.0868
3304.0,-0.0866
3303.0,-0.0863
3302.0,-0.0861
3301.0,-0.0859
3300.0,-0.0857
3299.0,-0.0855
3298.0,-0.0853
3297.0,-0.0851
3296.0,-0.0849
3295.0,-0.0848
3294.0,-0.0846
3293.0,-0.0845
3292.0,-0.0844
3291.0,-0.0842
3290.0,-0.0841
3289.0,-0.0839
3288.0,-0.0838
3287.0,-0.0836
3286.0,-0.0834
3285.0,-0.0832
3284.0,-0.0831
3283.0,-0.083
3282.0,-0.0829
3281.0,-0.0827
3280.0,-0.0826
3279.0,-0.0825
3278.0,-0.0824
3277.0,-0.0823
3276.0,-0.0821
3275.0,-0.082
3274.0,-0.0819
3273.0,-0.0818
3272.0,-0.0816
3271.0,-0.0814
3270.0,-0.0811
3269.0,-0.0809
3268.0,-0.0807
3267.0,-0.0807
3266.0,-0.0806
3265.0,-0.0805
3264.0,-0.0803
3263.0,-0.0801
3262.0,-0.0799
3261.0,-0.0797
3260.0,-0.0796
3259.0,-0.0795
3258.0,-0.0793
3257.0,-0.0791
3256.0,-0.079
3255.0,-0.0788
3254.0,-0.0788
3253.0,-0.0787
3252.0,-0.0786
3251.0,-0.0784
3250.0,-0.0782
3249.0,-0.078
3248.0,-0.0778
3247.0,-0.0775
3246.0,-0.0774
3245.0,-0.0773
3244.0,-0.0772
3243.0,-0.077
3242.0,-0.0769
3241.0,-0.0767
3240.0,-0.0765
3239.0,-0.0763
3238.0,-0.0762
3237.0,-0.0761
3236.0,-0.0761
3235.0,-0.076
3234.0,-0.0758
3233.0,-0.0756
3232.0,-0.0753
3231.0,-0.0751
3230.0,-0.0749
3229.0,-0.0747
3228.0,-0.0746
3227.0,-0.0744
3226.0,-0.0742
3225.0,-0.074
3224.0,-0.0737
3223.0,-0.0734
3222.0,-0.0732
3221.0,-0.0729
3220.0,-0.0727
3219.0,-0.0724
3218.0,-0.0721
3217.0,-0.0718
3216.0,-0.0715
3215.0,-0.0712
3214.0,-0.071
3213.0,-0.0707
3212.0,-0.0703
3211.0,-0.0699
3210.0,-0.0695
3209.0,-0.0691
3208.0,-0.0689
3207.0,-0.0686
3206.0,-0.0684
3205.0,-0.0681
3204.0,-0.0677
3203.0,-0.0673
3202.0,-0.0669
3201.0,-0.0665
3200.0,-0.0661
3199.0,-0.0659
3198.0,-0.0656
3197.0,-0.0653
3196.0,-0.0649
3195.0,-0.0645
3194.0,-0.0641
3193.0,-0.0637
3192.0,-0.0633
3191.0,-0.0629
3190.0,-0.0625
3189.0,-0.062
3188.0,-0.0616
3187.0,-0.0612
3186.0,-0.0608
3185.0,-0.0605
3184.0,-0.0602
3183.0,-0.0599
3182.0,-0.0595
3181.0,-0.0592
3180.0,-0.0588
3179.0,-0.0584
3178.0,-0.0581
3177.0,-0.0577
3176.0,-0.0574
3175.0,-0.057
3174.0,-0.0565
3173.0,-0.0561
3172.0,-0.0557
3171.0,-0.0553
3170.0,-0.0549
3169.0,-0.0545
3168.0,-0.0541
3167.0,-0.0537
3166.0,-0.0533
3165.0,-0.0529
3164.0,-0.0526
3163.0,-0.0523
3162.0,-0.0521
3161.0,-0.0518
3160.0,-0.0515
3159.0,-0.0511
3158.0,-0.0506
3157.0,-0.0502
3156.0,-0.0498
3155.0,-0.0494
3154.0,-0.049
3153.0,-0.0487
3152.0,-0.0483
3151.0,-0.048
3150.0,-0.0478
3149.0,-0.0475
3148.0,-0.0471
3147.0,-0.0468
3146.0,-0.0465
3145.0,-0.0461
3144.0,-0.0457
3143.0,-0.0453
3142.0,-0.0449
3141.0,-0.0446
3140.0,-0.0443
3139.0,-0.0441
3138.0,-0.0438
3137.0,-0.0434
3136.0,-0.0431
3135.0,-0.0427
3134.0,-0.0424
3133.0,-0.042
3132.0,-0.0416
3131.0,-0.0412
3130.0,-0.0409
3129.0,-0.0407
3128.0,-0.0405
3127.0,-0.0403
3126.0,-0.0401
3125.0,-0.0398
3124.0,-0.0395
3123.0,-0.0392
3122.0,-0.0389
3121.0,-0.0385
3120.0,-0.0382
3119.0,-0.0379
3118.0,-0.0376
3117.0,-0.0373
3116.0,-0.037
3115.0,-0.0368
3114.0,-0.0365
3113.0,-0.0362
3112.0,-0.0359
3111.0,-0.0356
3110.0,-0.0352
3109.0,-0.035
3108.0,-0.0348
3107.0,-0.0346
3106.0,-0.0343
3105.0,-0.0341
3104.0,-0.0337
3103.0,-0.0334
3102.0,-0.0331
3101.0,-0.0328
3100.0,-0.0325
3099.0,-0.0322
3098.0,-0.032
3097.0,-0.0318
3096.0,-0.0315
3095.0,-0.0313
3094.0,-0.031
3093.0,-0.0307
3092.0,-0.0304
3091.0,-0.0302
3090.0,-0.03
3089.0,-0.0298
3088.0,-0.0296
3087.0,-0.0293
3086.0,-0.0291
3085.0,-0.0288
3084.0,-0.0286
3083.0,-0.0284
3082.0,-0.0282
3081.0,-0.0279
3080.0,-0.0277
3079.0,-0.0274
3078.0,-0.0271
3077.0,-0.0268
3076.0,-0.0267
3075.0,-0.0265
3074.0,-0.0264
3073.0,-0.0262
3072.0,-0.0261
3071.0,-0.026
3070.0,-0.0258
3069.0,-0.0255
3068.0,-0.0253
3067.0,-0.0251
3066.0,-0.0249
3065.0,-0.0248
3064.0,-0.0246
3063.0,-0.0243
3062.0,-0.0241
3061.0,-0.0238
3060.0,-0.0236
3059.0,-0.0235
3058.0,-0.0233
3057.0,-0.0232
3056.0,-0.0231
3055.0,-0.0229
3054.0,-0.0227
3053.0,-0.0225
3052.0,-0.0223
3051.0,-0.0221
3050.0,-0.0219
3049.0,-0.0217
3048.0,-0.0215
3047.0,-0.0214
3046.0,-0.0213
3045.0,-0.0211
3044.0,-0.021
3043.0,-0.0208
3042.0,-0.0206
3041.0,-0.0204
3040.0,-0.0202
3039.0,-0.0199
3038.0,-0.0197
3037.0,-0.0194
3036.0,-0.0192
3035.0,-0.0189
3034.0,-0.0187
3033.0,-0.0186
3032.0,-0.0184
3031.0,-0.0182
3030.0,-0.0179
3029.0,-0.0175
3028.0,-0.0171
3027.0,-0.0167
3026.0,-0.0163
3025.0,-0.0159
3024.0,-0.0155
3023.0,-0.015
3022.0,-0.0146
3021.0,-0.0141
3020.0,-0.0135
3019.0,-0.0128
3018.0,-0.012
3017.0,-0.0113
3016.0,-0.0105
3015.0,-0.0097
3014.0,-0.0089
3013.0,-0.008
3012.0,-0.0069
3011.0,-0.0058
3010.0,-0.0046
3009.0,-0.0034
3008.0,-0.0021
3007.0,-0.0008
3006.0,0.0006
3005.0,0.0019
3004.0,0.0033
3003.0,0.0046
3002.0,0.0058
3001.0,0.0071
3000.0,0.0083
2999.0,0.0094
2998.0,0.0104
2997.0,0.0112
2996.0,0.0117
2995.0,0.0119
2994.0,0.0117
2993.0,0.0112
2992.0,0.0105
2991.0,0.0096
2990.0,0.0085
2989.0,0.0072
2988.0,0.006
2987.0,0.0047
2986.0,0.0036
2985.0,0.0027
2984.0,0.0018
2983.0,0.0011
2982.0,0.0005
2981.0,-0.0001
2980.0,-0.0005
2979.0,-0.0009
2978.0,-0.0012
2977.0,-0.0014
2976.0,-0.0015
2975.0,-0.0016
2974.0,-0.0016
2973.0,-0.0016
2972.0,-0.0016
2971.0,-0.0015
2970.0,-0.0014
2969.0,-0.0012
2968.0,-0.001
2967.0,-0.0009
2966.0,-0.0007
2965.0,-0.0004
2964.0,-0.0002
2963.0,0.0002
2962.0,0.0005
2961.0,0.0009
2960.0,0.0014
2959.0,0.0019
2958.0,0.0025
2957.0,0.0032
2956.0,0.0039
2955.0,0.0047
2954.0,0.0056
2953.0,0.0066
2952.0,0.0077
2951.0,0.0089
2950.0,0.01
2949.0,0.011
2948.0,0.0119
2947.0,0.0126
2946.0,0.0132
2945.0,0.0133
2944.0,0.0131
2943.0,0.0126
2942.0,0.0116
2941.0,0.0105
2940.0,0.0093
2939.0,0.0081
2938.0,0.0069
2937.0,0.0059
2936.0,0.005
2935.0,0.0042
2934.0,0.0035
2933.0,0.0029
2932.0,0.0024
2931.0,0.0019
2930.0,0.0015
2929.0,0.0011
2928.0,0.0007
2927.0,0.0004
2926.0,0.0001
2925.0,-0.0002
2924.0,-0.0005
2923.0,-0.0008
2922.0,-0.001
2921.0,-0.0011
2920.0,-0.0012
2919.0,-0.0013
2918.0,-0.0014
2917.0,-0.0016
2916.0,-0.0017
2915.0,-0.0019
2914.0,-0.002
2913.0,-0.0021
2912.0,-0.0022
2911.0,-0.0022
2910.0,-0.0022
2909.0,-0.0023
2908.0,-0.0023
2907.0,-0.0023
2906.0,-0.0023
2905.0,-0.0023
2904.0,-0.0023
2903.0,-0.0023
2902.0,-0.0023
2901.0,-0.0023
2900.0,-0.0023
2899.0,-0.0024
2898.0,-0.0024
2897.0,-0.0024
2896.0,-0.0024
2895.0,-0.0024
2894.0,-0.0024
2893.0,-0.0023
2892.0,-0.0023
2891.0,-0.0022
2890.0,-0.0021
2889.0,-0.0019
2888.0,-0.0017
2887.0,-0.0014
2886.0,-0.0012
2885.0,-0.0009
2884.0,-0.0006
2883.0,-0.0003
2882.0,-0.0001
2881.0,0.0001
2880.0,0.0
2879.0,-0.0001
2878.0,-0.0003
2877.0,-0.0006
2876.0,-0.0009
2875.0,-0.0013
2874.0,-0.0017
2873.0,-0.002
2872.0,-0.0023
2871.0,-0.0026
2870.0,-0.0028
2869.0,-0.003
2868.0,-0.0031
2867.0,-0.0032
2866.0,-0.0033
2865.0,-0.0033
2864.0,-0.0034
2863.0,-0.0035
2862.0,-0.0036
2861.0,-0.0035
2860.0,-0.0035
2859.0,-0.0035
2858.0,-0.0035
2857.0,-0.0035
2856.0,-0.0035
2855.0,-0.0035
2854.0,-0.0035
2853.0,-0.0035
2852.0,-0.0035
2851.0,-0.0035
2850.0,-0.0035
2849.0,-0.0036
2848.0,-0.0038
2847.0,-0.0039
2846.0,-0.0039
2845.0,-0.0039
2844.0,-0.004
2843.0,-0.004
2842.0,-0.004
2841.0,-0.004
2840.0,-0.004
2839.0,-0.0039
2838.0,-0.0039
2837.0,-0.0039
2836.0,-0.0039
2835.0,-0.0039
2834.0,-0.0039
2833.0,-0.0039
2832.0,-0.0039
2831.0,-0.0038
2830.0,-0.0038
2829.0,-0.0039
2828.0,-0.0039
2827.0,-0.004
2826.0,-0.004
2825.0,-0.004
2824.0,-0.004
2823.0,-0.0039
2822.0,-0.0039
2821.0,-0.0039
2820.0,-0.0039
2819.0,-0.0039
2818.0,-0.0039
2817.0,-0.004
2816.0,-0.004
2815.0,-0.0041
2814.0,-0.0041
2813.0,-0.0042
2812.0,-0.0042
2811.0,-0.0042
2810.0,-0.0042
2809.0,-0.0042
2808.0,-0.0042
2807.0,-0.0042
2806.0,-0.0042
2805.0,-0.0042
2804.0,-0.0043
2803.0,-0.0043
2802.0,-0.0043
2801.0,-0.0042
2800.0,-0.0042
2799.0,-0.0042
2798.0,-0.0042
2797.0,-0.0041
2796.0,-0.0041
2795.0,-0.0041
2794.0,-0.0042
2793.0,-0.0042
2792.0,-0.0043
2791.0,-0.0043
2790.0,-0.0043
2789.0,-0.0043
2788.0,-0.0043
2787.0,-0.0043
2786.0,-0.0043
2785.0,-0.0043
2784.0,-0.0043
2783.0,-0.0043
2782.0,-0.0043
2781.0,-0.0044
2780.0,-0.0044
2779.0,-0.0043
2778.0,-0.0043
2777.0,-0.0043
2776.0,-0.0043
2775.0,-0.0044
2774.0,-0.0045
2773.0,-0.0045
2772.0,-0.0044
2771.0,-0.0043
2770.0,-0.0043
2769.0,-0.0043
2768.0,-0.0043
2767.0,-0.0043
2766.0,-0.0043
2765.0,-0.0043
2764.0,-0.0042
2763.0,-0.0042
2762.0,-0.0042
2761.0,-0.0043
2760.0,-0.0043
2759.0,-0.0043
2758.0,-0.0042
2757.0,-0.0042
2756.0,-0.0042
2755.0,-0.0041
2754.0,-0.0041
2753.0,-0.004
2752.0,-0.004
2751.0,-0.004
2750.0,-0.0041
2749.0,-0.0041
2748.0,-0.0041
2747.0,-0.0041
2746.0,-0.004
2745.0,-0.004
2744.0,-0.0039
2743.0,-0.0039
2742.0,-0.0039
2741.0,-0.0039
2740.0,-0.004
2739.0,-0.004
2738.0,-0.004
2737.0,-0.004
2736.0,-0.004
2735.0,-0.0039
2734.0,-0.0039
2733.0,-0.0038
2732.0,-0.0038
2731.0,-0.0037
2730.0,-0.0038
2729.0,-0.0038
2728.0,-0.0038
2727.0,-0.0039
2726.0,-0.0039
2725.0,-0.0039
2724.0,-0.0039
2723.0,-0.0039
2722.0,-0.0039
2721.0,-0.0039
2720.0,-0.0039
2719.0,-0.0039
2718.0,-0.0039
2717.0,-0.0039
2716.0,-0.0038
2715.0,-0.0038
2714.0,-0.0038
2713.0,-0.0038
2712.0,-0.0038
2711.0,-0.0038
2710.0,-0.0037
2709.0,-0.0037
2708.0,-0.0038
2707.0,-0.0038
2706.0,-0.0038
2705.0,-0.0038
2704.0,-0.0038
2703.0,-0.0038
2702.0,-0.0038
2701.0,-0.0037
2700.0,-0.0037
2699.0,-0.0037
2698.0,-0.0036
2697.0,-0.0036
2696.0,-0.0036
2695.0,-0.0036
2694.0,-0.0036
2693.0,-0.0036
2692.0,-0.0036
2691.0,-0.0035
2690.0,-0.0035
2689.0,-0.0035
2688.0,-0.0035
2687.0,-0.0035
2686.0,-0.0035
2685.0,-0.0034
2684.0,-0.0034
2683.0,-0.0035
2682.0,-0.0035
2681.0,-0.0035
2680.0,-0.0034
2679.0,-0.0033
2678.0,-0.0032
2677.0,-0.0032
2676.0,-0.0032
2675.0,-0.0032
2674.0,-0.0033
2673.0,-0.0033
2672.0,-0.0034
2671.0,-0.0034
2670.0,-0.0034
2669.0,-0.0033
2668.0,-0.0033
2667.0,-0.0032
2666.0,-0.0032
2665.0,-0.0032
2664.0,-0.0032
2663.0,-0.0033
2662.0,-0.0033
2661.0,-0.0034
2660.0,-0.0034
2659.0,-0.0034
2658.0,-0.0034
2657.0,-0.0034
2656.0,-0.0034
2655.0,-0.0034
2654.0,-0.0034
2653.0,-0.0033
2652.0,-0.0033
2651.0,-0.0032
2650.0,-0.0032
2649.0,-0.0032
2648.0,-0.0032
2647.0,-0.0033
2646.0,-0.0033
2645.0,-0.0033
2644.0,-0.0033
2643.0,-0.0032
2642.0,-0.0032
2641.0,-0.0032
2640.0,-0.0032
2639.0,-0.0032
2638.0,-0.0031
2637.0,-0.0032
2636.0,-0.0032
2635.0,-0.0032
2634.0,-0.0032
2633.0,-0.0032
2632.0,-0.0031
2631.0,-0.0031
2630.0,-0.0031
2629.0,-0.0031
2628.0,-0.0031
2627.0,-0.0031
2626.0,-0.0032
2625.0,-0.0032
2624.0,-0.0032
2623.0,-0.0033
2622.0,-0.0033
2621.0,-0.0032
2620.0,-0.0032
2619.0,-0.0033
2618.0,-0.0033
2617.0,-0.0033
2616.0,-0.0033
2615.0,-0.0033
2614.0,-0.0033
2613.0,-0.0032
2612.0,-0.0033
2611.0,-0.0033
2610.0,-0.0033
2609.0,-0.0033
2608.0,-0.0033
2607.0,-0.0033
2606.0,-0.0034
2605.0,-0.0034
2604.0,-0.0034
2603.0,-0.0033
2602.0,-0.0033
2601.0,-0.0033
2600.0,-0.0034
2599.0,-0.0034
2598.0,-0.0034
2597.0,-0.0034
2596.0,-0.0034
2595.0,-0.0033
2594.0,-0.0033
2593.0,-0.0033
2592.0,-0.0032
2591.0,-0.0032
2590.0,-0.0032
2589.0,-0.0033
2588.0,-0.0033
2587.0,-0.0033
2586.0,-0.0033
2585.0,-0.0033
2584.0,-0.0033
2583.0,-0.0033
2582.0,-0.0033
2581.0,-0.0033
2580.0,-0.0033
2579.0,-0.0034
2578.0,-0.0034
2577.0,-0.0034
2576.0,-0.0034
2575.0,-0.0035
2574.0,-0.0035
2573.0,-0.0035
2572.0,-0.0035
2571.0,-0.0035
2570.0,-0.0035
2569.0,-0.0035
2568.0,-0.0035
2567.0,-0.0035
2566.0,-0.0035
2565.0,-0.0035
2564.0,-0.0036
2563.0,-0.0036
2562.0,-0.0037
2561.0,-0.0036
2560.0,-0.0036
2559.0,-0.0035
2558.0,-0.0035
2557.0,-0.0035
2556.0,-0.0035
2555.0,-0.0035
2554.0,-0.0035
2553.0,-0.0035
2552.0,-0.0035
2551.0,-0.0035
2550.0,-0.0036
2549.0,-0.0036
2548.0,-0.0036
2547.0,-0.0036
2546.0,-0.0036
2545.0,-0.0036
2544.0,-0.0036
2543.0,-0.0035
2542.0,-0.0035
2541.0,-0.0035
2540.0,-0.0035
2539.0,-0.0036
2538.0,-0.0036
2537.0,-0.0036
2536.0,-0.0037
2535.0,-0.0037
2534.0,-0.0037
2533.0,-0.0037
2532.0,-0.0037
2531.0,-0.0037
2530.0,-0.0037
2529.0,-0.0036
2528.0,-0.0036
2527.0,-0.0036
2526.0,-0.0037
2525.0,-0.0037
2524.0,-0.0037
2523.0,-0.0038
2522.0,-0.0039
2521.0,-0.004
2520.0,-0.004
2519.0,-0.0039
2518.0,-0.0039
2517.0,-0.0039
2516.0,-0.0038
2515.0,-0.0039
2514.0,-0.0039
2513.0,-0.0039
2512.0,-0.0039
2511.0,-0.0039
2510.0,-0.0038
2509.0,-0.0038
2508.0,-0.0037
2507.0,-0.0036
2506.0,-0.0037
2505.0,-0.0037
2504.0,-0.0038
2503.0,-0.0039
2502.0,-0.004
2501.0,-0.004
2500.0,-0.0039
2499.0,-0.0039
2498.0,-0.0039
2497.0,-0.0039
2496.0,-0.004
2495.0,-0.004
2494.0,-0.004
2493.0,-0.0041
2492.0,-0.0041
2491.0,-0.0041
2490.0,-0.004
2489.0,-0.004
2488.0,-0.0041
2487.0,-0.0041
2486.0,-0.0042
2485.0,-0.0042
2484.0,-0.0043
2483.0,-0.0043
2482.0,-0.0043
2481.0,-0.0043
2480.0,-0.0043
2479.0,-0.0042
2478.0,-0.0042
2477.0,-0.0042
2476.0,-0.0042
2475.0,-0.0042
2474.0,-0.0042
2473.0,-0.0043
2472.0,-0.0043
2471.0,-0.0044
2470.0,-0.0044
2469.0,-0.0045
2468.0,-0.0045
2467.0,-0.0045
2466.0,-0.0045
2465.0,-0.0045
2464.0,-0.0045
2463.0,-0.0045
2462.0,-0.0046
2461.0,-0.0046
2460.0,-0.0047
2459.0,-0.0047
2458.0,-0.0047
2457.0,-0.0047
2456.0,-0.0047
2455.0,-0.0047
2454.0,-0.0047
2453.0,-0.0047
2452.0,-0.0047
2451.0,-0.0048
2450.0,-0.0048
2449.0,-0.0048
2448.0,-0.0049
2447.0,-0.0048
2446.0,-0.0048
2445.0,-0.0048
2444.0,-0.0047
2443.0,-0.0047
2442.0,-0.0047
2441.0,-0.0047
2440.0,-0.0046
2439.0,-0.0046
2438.0,-0.0045
2437.0,-0.0045
2436.0,-0.0045
2435.0,-0.0046
2434.0,-0.0046
2433.0,-0.0046
2432.0,-0.0046
2431.0,-0.0045
2430.0,-0.0045
2429.0,-0.0044
2428.0,-0.0044
2427.0,-0.0044
2426.0,-0.0044
2425.0,-0.0044
2424.0,-0.0044
2423.0,-0.0044
2422.0,-0.0044
2421.0,-0.0044
2420.0,-0.0044
2419.0,-0.0044
2418.0,-0.0044
2417.0,-0.0044
2416.0,-0.0044
2415.0,-0.0044
2414.0,-0.0044
2413.0,-0.0044
2412.0,-0.0044
2411.0,-0.0044
2410.0,-0.0044
2409.0,-0.0044
2408.0,-0.0044
2407.0,-0.0044
2406.0,-0.0043
2405.0,-0.0043
2404.0,-0.0043
2403.0,-0.0043
2402.0,-0.0044
2401.0,-0.0045
2400.0,-0.0045
2399.0,-0.0044
2398.0,-0.0044
2397.0,-0.0043
2396.0,-0.0044
2395.0,-0.0044
2394.0,-0.0044
2393.0,-0.0045
2392.0,-0.0045
2391.0,-0.0045
2390.0,-0.0046
2389.0,-0.0046
2388.0,-0.0047
2387.0,-0.0047
2386.0,-0.0048
2385.0,-0.0049
2384.0,-0.0049
2383.0,-0.0048
2382.0,-0.0047
2381.0,-0.0046
2380.0,-0.0046
2379.0,-0.0046
2378.0,-0.0045
2377.0,-0.0044
2376.0,-0.0042
2375.0,-0.004
2374.0,-0.0039
2373.0,-0.0041
2372.0,-0.0043
2371.0,-0.0046
2370.0,-0.0046
2369.0,-0.0044
2368.0,-0.0041
2367.0,-0.0041
2366.0,-0.0046
2365.0,-0.0054
2364.0,-0.0065
2363.0,-0.0074
2362.0,-0.0078
2361.0,-0.007
2360.0,-0.0053
2359.0,-0.0034
2358.0,-0.002
2357.0,-0.0013
2356.0,-0.0009
2355.0,-0.0009
2354.0,-0.0011
2353.0,-0.0017
2352.0,-0.0023
2351.0,-0.0038
2350.0,-0.0054
2349.0,-0.0077
2348.0,-0.0063
2347.0,-0.0045
2346.0,-0.0048
2345.0,-0.0022
2344.0,-0.0017
2343.0,-0.0016
2342.0,-0.0022
2341.0,-0.0028
2340.0,-0.0033
2339.0,-0.0035
2338.0,-0.0033
2337.0,-0.0028
2336.0,-0.0023
2335.0,-0.0023
2334.0,-0.0026
2333.0,-0.003
2332.0,-0.0033
2331.0,-0.0033
2330.0,-0.0033
2329.0,-0.0034
2328.0,-0.0038
2327.0,-0.0043
2326.0,-0.0046
2325.0,-0.0046
2324.0,-0.0045
2323.0,-0.0046
2322.0,-0.0047
2321.0,-0.0049
2320.0,-0.0049
2319.0,-0.005
2318.0,-0.0051
2317.0,-0.0053
2316.0,-0.0055
2315.0,-0.0055
2314.0,-0.0054
2313.0,-0.0053
2312.0,-0.0052
2311.0,-0.0052
2310.0,-0.0053
2309.0,-0.0053
2308.0,-0.0054
2307.0,-0.0055
2306.0,-0.0055
2305.0,-0.0055
2304.0,-0.0056
2303.0,-0.0057
2302.0,-0.0057
2301.0,-0.0057
2300.0,-0.0058
2299.0,-0.0058
2298.0,-0.0059
2297.0,-0.006
2296.0,-0.0061
2295.0,-0.0061
2294.0,-0.0062
2293.0,-0.0062
2292.0,-0.0062
2291.0,-0.0062
2290.0,-0.0062
2289.0,-0.0062
2288.0,-0.0063
2287.0,-0.0063
2286.0,-0.0063
2285.0,-0.0063
2284.0,-0.0064
2283.0,-0.0064
2282.0,-0.0064
2281.0,-0.0064
2280.0,-0.0065
2279.0,-0.0065
2278.0,-0.0066
2277.0,-0.0066
2276.0,-0.0067
2275.0,-0.0067
2274.0,-0.0068
2273.0,-0.0068
2272.0,-0.0068
2271.0,-0.0067
2270.0,-0.0067
2269.0,-0.0068
2268.0,-0.0068
2267.0,-0.0069
2266.0,-0.0069
2265.0,-0.0069
2264.0,-0.0069
2263.0,-0.0068
2262.0,-0.0068
2261.0,-0.0068
2260.0,-0.0068
2259.0,-0.0068
2258.0,-0.0068
2257.0,-0.0068
2256.0,-0.0069
2255.0,-0.0069
2254.0,-0.0069
2253.0,-0.007
2252.0,-0.007
2251.0,-0.007
2250.0,-0.007
2249.0,-0.007
2248.0,-0.007
2247.0,-0.0071
2246.0,-0.0071
2245.0,-0.0071
2244.0,-0.0071
2243.0,-0.0071
2242.0,-0.0071
2241.0,-0.0071
2240.0,-0.0071
2239.0,-0.0072
2238.0,-0.0072
2237.0,-0.0073
2236.0,-0.0074
2235.0,-0.0075
2234.0,-0.0075
2233.0,-0.0075
2232.0,-0.0074
2231.0,-0.0074
2230.0,-0.0073
2229.0,-0.0073
2228.0,-0.0074
2227.0,-0.0075
2226.0,-0.0076
2225.0,-0.0076
2224.0,-0.0076
2223.0,-0.0076
2222.0,-0.0076
2221.0,-0.0076
2220.0,-0.0077
2219.0,-0.0077
2218.0,-0.0077
2217.0,-0.0077
2216.0,-0.0077
2215.0,-0.0078
2214.0,-0.0078
2213.0,-0.0078
2212.0,-0.0079
2211.0,-0.008
2210.0,-0.008
2209.0,-0.008
2208.0,-0.008
2207.0,-0.008
2206.0,-0.008
2205.0,-0.008
2204.0,-0.008
2203.0,-0.008
2202.0,-0.008
2201.0,-0.008
2200.0,-0.008
2199.0,-0.0081
2198.0,-0.0081
2197.0,-0.0081
2196.0,-0.0081
2195.0,-0.0081
2194.0,-0.0081
2193.0,-0.0081
2192.0,-0.0082
2191.0,-0.0082
2190.0,-0.0082
2189.0,-0.0082
2188.0,-0.0081
2187.0,-0.0081
2186.0,-0.0081
2185.0,-0.0081
2184.0,-0.0081
2183.0,-0.0081
2182.0,-0.0081
2181.0,-0.0081
2180.0,-0.0081
2179.0,-0.0081
2178.0,-0.0081
2177.0,-0.0081
2176.0,-0.0081
2175.0,-0.0081
2174.0,-0.0081
2173.0,-0.0081
2172.0,-0.0081
2171.0,-0.0081
2170.0,-0.0081
2169.0,-0.0081
2168.0,-0.0081
2167.0,-0.0082
2166.0,-0.0082
2165.0,-0.0083
2164.0,-0.0083
2163.0,-0.0083
2162.0,-0.0082
2161.0,-0.0082
2160.0,-0.0082
2159.0,-0.0082
2158.0,-0.0082
2157.0,-0.0083
2156.0,-0.0083
2155.0,-0.0084
2154.0,-0.0083
2153.0,-0.0083
2152.0,-0.0083
2151.0,-0.0083
2150.0,-0.0082
2149.0,-0.0082
2148.0,-0.0082
2147.0,-0.0082
2146.0,-0.0081
2145.0,-0.0081
2144.0,-0.0081
2143.0,-0.0081
2142.0,-0.0081
2141.0,-0.008
2140.0,-0.008
2139.0,-0.008
2138.0,-0.0079
2137.0,-0.008
2136.0,-0.008
2135.0,-0.008
2134.0,-0.0081
2133.0,-0.008
2132.0,-0.008
2131.0,-0.0079
2130.0,-0.0079
2129.0,-0.0079
2128.0,-0.0079
2127.0,-0.0079
2126.0,-0.0079
2125.0,-0.0079
2124.0,-0.0079
2123.0,-0.0079
2122.0,-0.0079
2121.0,-0.0079
2120.0,-0.0079
2119.0,-0.0079
2118.0,-0.0079
2117.0,-0.008
2116.0,-0.008
2115.0,-0.008
2114.0,-0.008
2113.0,-0.008
2112.0,-0.008
2111.0,-0.008
2110.0,-0.008
2109.0,-0.008
2108.0,-0.008
2107.0,-0.0081
2106.0,-0.0081
2105.0,-0.0081
2104.0,-0.0081
2103.0,-0.0081
2102.0,-0.008
2101.0,-0.008
2100.0,-0.0079
2099.0,-0.0079
2098.0,-0.0079
2097.0,-0.0078
2096.0,-0.0078
2095.0,-0.0078
2094.0,-0.0078
2093.0,-0.0078
2092.0,-0.0078
2091.0,-0.0078
2090.0,-0.0078
2089.0,-0.0078
2088.0,-0.0078
2087.0,-0.0079
2086.0,-0.0079
2085.0,-0.0079
2084.0,-0.0079
2083.0,-0.0079
2082.0,-0.0078
2081.0,-0.0078
2080.0,-0.0079
2079.0,-0.0079
2078.0,-0.0079
2077.0,-0.0079
2076.0,-0.008
2075.0,-0.0081
2074.0,-0.0081
2073.0,-0.0082
2072.0,-0.0082
2071.0,-0.0082
2070.0,-0.0083
2069.0,-0.0083
2068.0,-0.0083
2067.0,-0.0083
2066.0,-0.0084
2065.0,-0.0084
2064.0,-0.0085
2063.0,-0.0085
2062.0,-0.0086
2061.0,-0.0086
2060.0,-0.0087
2059.0,-0.0087
2058.0,-0.0088
2057.0,-0.0088
2056.0,-0.0089
2055.0,-0.009
2054.0,-0.009
2053.0,-0.0091
2052.0,-0.0091
2051.0,-0.0092
2050.0,-0.0092
2049.0,-0.0093
2048.0,-0.0094
2047.0,-0.0095
2046.0,-0.0095
2045.0,-0.0095
2044.0,-0.0095
2043.0,-0.0096
2042.0,-0.0097
2041.0,-0.0097
2040.0,-0.0098
2039.0,-0.0098
2038.0,-0.0098
2037.0,-0.0099
2036.0,-0.0099
2035.0,-0.01
2034.0,-0.01
2033.0,-0.01
2032.0,-0.01
2031.0,-0.0101
2030.0,-0.0101
2029.0,-0.0101
2028.0,-0.0102
2027.0,-0.0102
2026.0,-0.0102
2025.0,-0.0102
2024.0,-0.0101
2023.0,-0.0101
2022.0,-0.0101
2021.0,-0.01
2020.0,-0.01
2019.0,-0.01
2018.0,-0.01
2017.0,-0.01
2016.0,-0.01
2015.0,-0.01
2014.0,-0.01
2013.0,-0.0099
2012.0,-0.0099
2011.0,-0.0098
2010.0,-0.0097
2009.0,-0.0097
2008.0,-0.0097
2007.0,-0.0097
2006.0,-0.0097
2005.0,-0.0097
2004.0,-0.0097
2003.0,-0.0097
2002.0,-0.0097
2001.0,-0.0097
2000.0,-0.0097
1999.0,-0.0097
1998.0,-0.0097
1997.0,-0.0097
1996.0,-0.0097
1995.0,-0.0098
1994.0,-0.0097
1993.0,-0.0097
1992.0,-0.0098
1991.0,-0.0098
1990.0,-0.0098
1989.0,-0.0098
1988.0,-0.0098
1987.0,-0.0098
1986.0,-0.0097
1985.0,-0.0096
1984.0,-0.0096
1983.0,-0.0097
1982.0,-0.0097
1981.0,-0.0096
1980.0,-0.0096
1979.0,-0.0096
1978.0,-0.0096
1977.0,-0.0096
1976.0,-0.0096
1975.0,-0.0095
1974.0,-0.0095
1973.0,-0.0095
1972.0,-0.0094
1971.0,-0.0093
1970.0,-0.0093
1969.0,-0.0093
1968.0,-0.0093
1967.0,-0.0094
1966.0,-0.0095
1965.0,-0.0095
1964.0,-0.0095
1963.0,-0.0095
1962.0,-0.0095
1961.0,-0.0095
1960.0,-0.0095
1959.0,-0.0096
1958.0,-0.0096
1957.0,-0.0097
1956.0,-0.0098
1955.0,-0.0098
1954.0,-0.0099
1953.0,-0.01
1952.0,-0.01
1951.0,-0.01
1950.0,-0.0101
1949.0,-0.0101
1948.0,-0.0102
1947.0,-0.0102
1946.0,-0.0103
1945.0,-0.0103
1944.0,-0.0104
1943.0,-0.0105
1942.0,-0.0106
1941.0,-0.0106
1940.0,-0.0106
1939.0,-0.0107
1938.0,-0.0107
1937.0,-0.0108
1936.0,-0.0108
1935.0,-0.0108
1934.0,-0.0108
1933.0,-0.0108
1932.0,-0.0108
1931.0,-0.0108
1930.0,-0.0109
1929.0,-0.0109
1928.0,-0.0108
1927.0,-0.0108
1926.0,-0.0108
1925.0,-0.0109
1924.0,-0.0109
1923.0,-0.0109
1922.0,-0.0109
1921.0,-0.0108
1920.0,-0.0108
1919.0,-0.0107
1918.0,-0.0108
1917.0,-0.0108
1916.0,-0.0108
1915.0,-0.0108
1914.0,-0.0108
1913.0,-0.0108
1912.0,-0.0107
1911.0,-0.0108
1910.0,-0.0108
1909.0,-0.0109
1908.0,-0.011
1907.0,-0.011
1906.0,-0.0109
1905.0,-0.0109
1904.0,-0.0109
1903.0,-0.0109
1902.0,-0.011
1901.0,-0.011
1900.0,-0.011
1899.0,-0.011
1898.0,-0.011
1897.0,-0.011
1896.0,-0.011
1895.0,-0.0111
1894.0,-0.0111
1893.0,-0.0111
1892.0,-0.0111
1891.0,-0.0111
1890.0,-0.0111
1889.0,-0.0112
1888.0,-0.0112
1887.0,-0.0112
1886.0,-0.0112
1885.0,-0.0112
1884.0,-0.0112
1883.0,-0.0112
1882.0,-0.0112
1881.0,-0.0111
1880.0,-0.0111
1879.0,-0.0111
1878.0,-0.0112
1877.0,-0.0112
1876.0,-0.0111
1875.0,-0.0111
1874.0,-0.0111
1873.0,-0.0111
1872.0,-0.011
1871.0,-0.0109
1870.0,-0.0109
1869.0,-0.011
1868.0,-0.0111
1867.0,-0.011
1866.0,-0.011
1865.0,-0.0109
1864.0,-0.0108
1863.0,-0.0108
1862.0,-0.0107
1861.0,-0.0106
1860.0,-0.0105
1859.0,-0.0105
1858.0,-0.0104
1857.0,-0.0104
1856.0,-0.0103
1855.0,-0.0103
1854.0,-0.0102
1853.0,-0.0101
1852.0,-0.01
1851.0,-0.0099
1850.0,-0.0098
1849.0,-0.0097
1848.0,-0.0095
1847.0,-0.0093
1846.0,-0.0091
1845.0,-0.009
1844.0,-0.0089
1843.0,-0.0088
1842.0,-0.0086
1841.0,-0.0084
1840.0,-0.0081
1839.0,-0.0079
1838.0,-0.0077
1837.0,-0.0075
1836.0,-0.0072
1835.0,-0.0069
1834.0,-0.0067
1833.0,-0.0064
1832.0,-0.0061
1831.0,-0.0058
1830.0,-0.0057
1829.0,-0.0055
1828.0,-0.0052
1827.0,-0.0048
1826.0,-0.0045
1825.0,-0.0043
1824.0,-0.004
1823.0,-0.0038
1822.0,-0.0036
1821.0,-0.0034
1820.0,-0.003
1819.0,-0.0026
1818.0,-0.0024
1817.0,-0.0021
1816.0,-0.0019
1815.0,-0.0016
1814.0,-0.0014
1813.0,-0.0011
1812.0,-0.0008
1811.0,-0.0005
1810.0,-0.0002
1809.0,0.0001
1808.0,0.0007
1807.0,0.0011
1806.0,0.0015
1805.0,0.0019
1804.0,0.0025
1803.0,0.0031
1802.0,0.0037
1801.0,0.0044
1800.0,0.0052
1799.0,0.006
1798.0,0.0067
1797.0,0.0076
1796.0,0.0088
1795.0,0.0101
1794.0,0.0115
1793.0,0.0137
1792.0,0.0166
1791.0,0.0194
1790.0,0.022
1789.0,0.0249
1788.0,0.0283
1787.0,0.0322
1786.0,0.0369
1785.0,0.0424
1784.0,0.0482
1783.0,0.0538
1782.0,0.0598
1781.0,0.067
1780.0,0.0745
1779.0,0.0813
1778.0,0.0872
1777.0,0.0932
1776.0,0.0991
1775.0,0.1046
1774.0,0.1107
1773.0,0.1193
1772.0,0.1296
1771.0,0.1383
1770.0,0.1457
1769.0,0.1546
1768.0,0.1656
1767.0,0.177
1766.0,0.1876
1765.0,0.1984
1764.0,0.2112
1763.0,0.228
1762.0,0.2489
1761.0,0.2701
1760.0,0.288
1759.0,0.3033
1758.0,0.3203
1757.0,0.3408
1756.0,0.3598
1755.0,0.3722
1754.0,0.3802
1753.0,0.3881
1752.0,0.397
1751.0,0.4045
1750.0,0.4094
1749.0,0.4125
1748.0,0.4119
1747.0,0.4063
1746.0,0.3974
1745.0,0.3862
1744.0,0.3716
1743.0,0.354
1742.0,0.335
1741.0,0.3137
1740.0,0.2888
1739.0,0.2646
1738.0,0.246
1737.0,0.2315
1736.0,0.2157
1735.0,0.1941
1734.0,0.1714
1733.0,0.1558
1732.0,0.1456
1731.0,0.1366
1730.0,0.128
1729.0,0.1201
1728.0,0.1132
1727.0,0.1074
1726.0,0.1025
1725.0,0.0979
1724.0,0.0934
1723.0,0.0893
1722.0,0.0862
1721.0,0.0835
1720.0,0.0803
1719.0,0.0767
1718.0,0.0731
1717.0,0.0698
1716.0,0.0665
1715.0,0.0634
1714.0,0.0608
1713.0,0.0583
1712.0,0.0555
1711.0,0.0528
1710.0,0.0503
1709.0,0.0481
1708.0,0.0458
1707.0,0.0433
1706.0,0.0409
1705.0,0.0388
1704.0,0.037
1703.0,0.0354
1702.0,0.0339
1701.0,0.0321
1700.0,0.0299
1699.0,0.0282
1698.0,0.0272
1697.0,0.0261
1696.0,0.0244
1695.0,0.0227
1694.0,0.0217
1693.0,0.0208
1692.0,0.0197
1691.0,0.0184
1690.0,0.0173
1689.0,0.0163
1688.0,0.0154
1687.0,0.0145
1686.0,0.0137
1685.0,0.0127
1684.0,0.0112
1683.0,0.0099
1682.0,0.0092
1681.0,0.0085
1680.0,0.0076
1679.0,0.0066
1678.0,0.0059
1677.0,0.0053
1676.0,0.0043
1675.0,0.0033
1674.0,0.0024
1673.0,0.0017
1672.0,0.0009
1671.0,0.0001
1670.0,-0.0007
1669.0,-0.0015
1668.0,-0.0024
1667.0,-0.0031
1666.0,-0.0037
1665.0,-0.0043
1664.0,-0.005
1663.0,-0.0059
1662.0,-0.0067
1661.0,-0.0074
1660.0,-0.008
1659.0,-0.0086
1658.0,-0.0091
1657.0,-0.0096
1656.0,-0.0101
1655.0,-0.0105
1654.0,-0.0109
1653.0,-0.0115
1652.0,-0.0122
1651.0,-0.0125
1650.0,-0.0125
1649.0,-0.0125
1648.0,-0.0125
1647.0,-0.0125
1646.0,-0.0125
1645.0,-0.0126
1644.0,-0.0127
1643.0,-0.0128
1642.0,-0.0127
1641.0,-0.0127
1640.0,-0.0128
1639.0,-0.013
1638.0,-0.013
1637.0,-0.0131
1636.0,-0.0135
1635.0,-0.014
1634.0,-0.0144
1633.0,-0.0146
1632.0,-0.015
1631.0,-0.0153
1630.0,-0.0155
1629.0,-0.0155
1628.0,-0.0156
1627.0,-0.0157
1626.0,-0.0158
1625.0,-0.0157
1624.0,-0.0157
1623.0,-0.0156
1622.0,-0.0155
1621.0,-0.0155
1620.0,-0.0154
1619.0,-0.0154
1618.0,-0.0152
1617.0,-0.015
1616.0,-0.0148
1615.0,-0.0148
1614.0,-0.0147
1613.0,-0.0145
1612.0,-0.0144
1611.0,-0.0143
1610.0,-0.0141
1609.0,-0.0139
1608.0,-0.0138
1607.0,-0.0137
1606.0,-0.0135
1605.0,-0.0134
1604.0,-0.0132
1603.0,-0.013
1602.0,-0.0128
1601.0,-0.0125
1600.0,-0.0123
1599.0,-0.0122
1598.0,-0.0121
1597.0,-0.0119
1596.0,-0.0117
1595.0,-0.0115
1594.0,-0.0113
1593.0,-0.011
1592.0,-0.0108
1591.0,-0.0106
1590.0,-0.0103
1589.0,-0.0101
1588.0,-0.01
1587.0,-0.0098
1586.0,-0.0096
1585.0,-0.0094
1584.0,-0.0093
1583.0,-0.0092
1582.0,-0.009
1581.0,-0.0089
1580.0,-0.0088
1579.0,-0.0087
1578.0,-0.0086
1577.0,-0.0084
1576.0,-0.0082
1575.0,-0.0081
1574.0,-0.008
1573.0,-0.0079
1572.0,-0.0078
1571.0,-0.0078
1570.0,-0.0077
1569.0,-0.0077
1568.0,-0.0076
1567.0,-0.0075
1566.0,-0.0075
1565.0,-0.0074
1564.0,-0.0073
1563.0,-0.0073
1562.0,-0.0072
1561.0,-0.0072
1560.0,-0.0072
1559.0,-0.0071
1558.0,-0.0071
1557.0,-0.0068
1556.0,-0.0066
1555.0,-0.0066
1554.0,-0.0066
1553.0,-0.0066
1552.0,-0.0066
1551.0,-0.0065
1550.0,-0.0064
1549.0,-0.0063
1548.0,-0.0063
1547.0,-0.0062
1546.0,-0.0062
1545.0,-0.0062
1544.0,-0.0062
1543.0,-0.0063
1542.0,-0.0064
1541.0,-0.0062
1540.0,-0.006
1539.0,-0.0061
1538.0,-0.0061
1537.0,-0.006
1536.0,-0.0059
1535.0,-0.0058
1534.0,-0.0059
1533.0,-0.0059
1532.0,-0.0058
1531.0,-0.0058
1530.0,-0.0058
1529.0,-0.0058
1528.0,-0.0057
1527.0,-0.0056
1526.0,-0.0056
1525.0,-0.0056
1524.0,-0.0056
1523.0,-0.0055
1522.0,-0.0056
1521.0,-0.0056
1520.0,-0.0055
1519.0,-0.0054
1518.0,-0.0055
1517.0,-0.0055
1516.0,-0.0056
1515.0,-0.0056
1514.0,-0.0056
1513.0,-0.0056
1512.0,-0.0055
1511.0,-0.0055
1510.0,-0.0056
1509.0,-0.0057
1508.0,-0.0057
1507.0,-0.0057
1506.0,-0.0059
1505.0,-0.0059
1504.0,-0.0059
1503.0,-0.0059
1502.0,-0.006
1501.0,-0.0061
1500.0,-0.0061
1499.0,-0.0061
1498.0,-0.0062
1497.0,-0.0062
1496.0,-0.0061
1495.0,-0.0061
1494.0,-0.0062
1493.0,-0.0061
1492.0,-0.006
1491.0,-0.0059
1490.0,-0.006
1489.0,-0.0059
1488.0,-0.0058
1487.0,-0.0057
1486.0,-0.0057
1485.0,-0.0055
1484.0,-0.0052
1483.0,-0.0049
1482.0,-0.0048
1481.0,-0.0045
1480.0,-0.004
1479.0,-0.0035
1478.0,-0.0029
1477.0,-0.0021
1476.0,-0.001
1475.0,0.0
1474.0,0.0015
1473.0,0.0041
1472.0,0.0072
1471.0,0.0099
1470.0,0.0125
1469.0,0.0154
1468.0,0.0189
1467.0,0.0233
1466.0,0.0294
1465.0,0.0374
1464.0,0.0455
1463.0,0.052
1462.0,0.0573
1461.0,0.0623
1460.0,0.0674
1459.0,0.0733
1458.0,0.0815
1457.0,0.0909
1456.0,0.0969
1455.0,0.0994
1454.0,0.1007
1453.0,0.1017
1452.0,0.1022
1451.0,0.1019
1450.0,0.101
1449.0,0.0989
1448.0,0.0955
1447.0,0.0909
1446.0,0.0857
1445.0,0.0797
1444.0,0.0727
1443.0,0.065
1442.0,0.0572
1441.0,0.0499
1440.0,0.0435
1439.0,0.0379
1438.0,0.0325
1437.0,0.0267
1436.0,0.0216
1435.0,0.0183
1434.0,0.0161
1433.0,0.0142
1432.0,0.0122
1431.0,0.0105
1430.0,0.009
1429.0,0.0076
1428.0,0.0065
1427.0,0.0057
1426.0,0.005
1425.0,0.0042
1424.0,0.0033
1423.0,0.0028
1422.0,0.0024
1421.0,0.0021
1420.0,0.0016
1419.0,0.0012
1418.0,0.0008
1417.0,0.0003
1416.0,-0.0
1415.0,-0.0002
1414.0,-0.0003
1413.0,-0.0005
1412.0,-0.0007
1411.0,-0.0007
1410.0,-0.0007
1409.0,-0.0007
1408.0,-0.0007
1407.0,-0.0004
1406.0,-0.0
1405.0,0.0003
1404.0,0.0008
1403.0,0.0014
1402.0,0.0021
1401.0,0.003
1400.0,0.0044
1399.0,0.0065
1398.0,0.0088
1397.0,0.0115
1396.0,0.0153
1395.0,0.0206
1394.0,0.0263
1393.0,0.0316
1392.0,0.0367
1391.0,0.0418
1390.0,0.0473
1389.0,0.0534
1388.0,0.0604
1387.0,0.0678
1386.0,0.0738
1385.0,0.0782
1384.0,0.0813
1383.0,0.0835
1382.0,0.0842
1381.0,0.0835
1380.0,0.0813
1379.0,0.0779
1378.0,0.0738
1377.0,0.0696
1376.0,0.0661
1375.0,0.0639
1374.0,0.0635
1373.0,0.0647
1372.0,0.0669
1371.0,0.0696
1370.0,0.0725
1369.0,0.0752
1368.0,0.0776
1367.0,0.0794
1366.0,0.0805
1365.0,0.0814
1364.0,0.0824
1363.0,0.0836
1362.0,0.0849
1361.0,0.0857
1360.0,0.0862
1359.0,0.0863
1358.0,0.086
1357.0,0.0853
1356.0,0.0841
1355.0,0.0825
1354.0,0.0804
1353.0,0.078
1352.0,0.0754
1351.0,0.0727
1350.0,0.0699
1349.0,0.0671
1348.0,0.0644
1347.0,0.0618
1346.0,0.0594
1345.0,0.0571
1344.0,0.055
1343.0,0.053
1342.0,0.0513
1341.0,0.0495
1340.0,0.0479
1339.0,0.0464
1338.0,0.045
1337.0,0.0439
1336.0,0.0428
1335.0,0.0418
1334.0,0.0408
1333.0,0.0399
1332.0,0.0391
1331.0,0.0384
1330.0,0.0377
1329.0,0.0372
1328.0,0.0368
1327.0,0.0366
1326.0,0.0364
1325.0,0.0363
1324.0,0.0362
1323.0,0.0361
1322.0,0.036
1321.0,0.0359
1320.0,0.0358
1319.0,0.0358
1318.0,0.0358
1317.0,0.0357
1316.0,0.0357
1315.0,0.0357
1314.0,0.0357
1313.0,0.0358
1312.0,0.0359
1311.0,0.0359
1310.0,0.036
1309.0,0.0361
1308.0,0.0361
1307.0,0.0361
1306.0,0.036
1305.0,0.0359
1304.0,0.0358
1303.0,0.0357
1302.0,0.0354
1301.0,0.0351
1300.0,0.0346
1299.0,0.034
1298.0,0.0331
1297.0,0.0321
1296.0,0.0309
1295.0,0.0297
1294.0,0.0284
1293.0,0.0273
1292.0,0.0266
1291.0,0.0262
1290.0,0.0264
1289.0,0.0272
1288.0,0.0286
1287.0,0.0306
1286.0,0.0331
1285.0,0.0361
1284.0,0.0394
1283.0,0.0431
1282.0,0.047
1281.0,0.051
1280.0,0.0551
1279.0,0.0592
1278.0,0.0632
1277.0,0.067
1276.0,0.0706
1275.0,0.074
1274.0,0.0769
1273.0,0.0795
1272.0,0.0818
1271.0,0.0838
1270.0,0.0853
1269.0,0.0865
1268.0,0.0872
1267.0,0.0876
1266.0,0.0876
1265.0,0.0873
1264.0,0.0866
1263.0,0.0856
1262.0,0.0844
1261.0,0.083
1260.0,0.0814
1259.0,0.0798
1258.0,0.0781
1257.0,0.0764
1256.0,0.0748
1255.0,0.0733
1254.0,0.0719
1253.0,0.0706
1252.0,0.0695
1251.0,0.0687
1250.0,0.0679
1249.0,0.0674
1248.0,0.0669
1247.0,0.0667
1246.0,0.0666
1245.0,0.0666
1244.0,0.0668
1243.0,0.0671
1242.0,0.0676
1241.0,0.0682
1240.0,0.0691
1239.0,0.07
1238.0,0.0712
1237.0,0.0725
1236.0,0.0739
1235.0,0.0756
1234.0,0.0776
1233.0,0.0797
1232.0,0.0822
1231.0,0.085
1230.0,0.088
1229.0,0.0914
1228.0,0.0951
1227.0,0.0992
1226.0,0.1035
1225.0,0.108
1224.0,0.1128
1223.0,0.1179
1222.0,0.1232
1221.0,0.1286
1220.0,0.1343
1219.0,0.14
1218.0,0.1457
1217.0,0.1513
1216.0,0.1567
1215.0,0.162
1214.0,0.167
1213.0,0.1716
1212.0,0.1757
1211.0,0.1792
1210.0,0.1822
1209.0,0.1846
1208.0,0.1866
1207.0,0.1883
1206.0,0.1898
1205.0,0.1912
1204.0,0.1925
1203.0,0.194
1202.0,0.1957
1201.0,0.1976
1200.0,0.2001
1199.0,0.2033
1198.0,0.2071
1197.0,0.2117
1196.0,0.217
1195.0,0.2234
1194.0,0.2308
1193.0,0.2393
1192.0,0.2492
1191.0,0.2605
1190.0,0.2733
1189.0,0.2875
1188.0,0.3032
1187.0,0.3201
1186.0,0.3377
1185.0,0.355
1184.0,0.3709
1183.0,0.3841
1182.0,0.3926
1181.0,0.3944
1180.0,0.3883
1179.0,0.3742
1178.0,0.3529
1177.0,0.3264
1176.0,0.2972
1175.0,0.2675
1174.0,0.2391
1173.0,0.213
1172.0,0.1896
1171.0,0.169
1170.0,0.151
1169.0,0.1353
1168.0,0.1217
1167.0,0.11
1166.0,0.0999
1165.0,0.0911
1164.0,0.0835
1163.0,0.0769
1162.0,0.0712
1161.0,0.0662
1160.0,0.0618
1159.0,0.0581
1158.0,0.055
1157.0,0.0524
1156.0,0.0504
1155.0,0.0489
1154.0,0.048
1153.0,0.0478
1152.0,0.0483
1151.0,0.0497
1150.0,0.0519
1149.0,0.0552
1148.0,0.0597
1147.0,0.0654
1146.0,0.0725
1145.0,0.0808
1144.0,0.0903
1143.0,0.101
1142.0,0.1127
1141.0,0.1251
1140.0,0.1379
1139.0,0.1509
1138.0,0.1636
1137.0,0.1758
1136.0,0.1873
1135.0,0.1978
1134.0,0.2073
1133.0,0.2159
1132.0,0.2234
1131.0,0.23
1130.0,0.2352
1129.0,0.2386
1128.0,0.2399
1127.0,0.239
1126.0,0.2358
1125.0,0.2307
1124.0,0.2244
1123.0,0.2176
1122.0,0.2108
1121.0,0.2045
1120.0,0.1989
1119.0,0.1942
1118.0,0.1904
1117.0,0.1875
1116.0,0.1855
1115.0,0.1845
1114.0,0.1847
1113.0,0.1861
1112.0,0.189
1111.0,0.1935
1110.0,0.1996
1109.0,0.2071
1108.0,0.216
1107.0,0.2259
1106.0,0.2369
1105.0,0.2485
1104.0,0.2607
1103.0,0.2735
1102.0,0.2866
1101.0,0.2999
1100.0,0.3134
1099.0,0.3272
1098.0,0.3413
1097.0,0.3555
1096.0,0.3698
1095.0,0.3845
1094.0,0.3995
1093.0,0.4147
1092.0,0.4303
1091.0,0.446
1090.0,0.4617
1089.0,0.4769
1088.0,0.4912
1087.0,0.5043
1086.0,0.5155
1085.0,0.5241
1084.0,0.5298
1083.0,0.5322
1082.0,0.5314
1081.0,0.5272
1080.0,0.5199
1079.0,0.51
1078.0,0.4977
1077.0,0.4833
1076.0,0.4669
1075.0,0.449
1074.0,0.4297
1073.0,0.4095
1072.0,0.3888
1071.0,0.3681
1070.0,0.3478
1069.0,0.3283
1068.0,0.3097
1067.0,0.2927
1066.0,0.2775
1065.0,0.2645
1064.0,0.2539
1063.0,0.2458
1062.0,0.2402
1061.0,0.237
1060.0,0.2358
1059.0,0.2364
1058.0,0.2383
1057.0,0.241
1056.0,0.2443
1055.0,0.2477
1054.0,0.2513
1053.0,0.255
1052.0,0.2589
1051.0,0.263
1050.0,0.2673
1049.0,0.2717
1048.0,0.2758
1047.0,0.2794
1046.0,0.2823
1045.0,0.2841
1044.0,0.2846
1043.0,0.2839
1042.0,0.2818
1041.0,0.2785
1040.0,0.2738
1039.0,0.2677
1038.0,0.2605
1037.0,0.2525
1036.0,0.2441
1035.0,0.2356
1034.0,0.2274
1033.0,0.2197
1032.0,0.2128
1031.0,0.2066
1030.0,0.2011
1029.0,0.1964
1028.0,0.192
1027.0,0.1879
1026.0,0.1839
1025.0,0.1797
1024.0,0.1753
1023.0,0.1705
1022.0,0.1652
1021.0,0.1596
1020.0,0.1538
1019.0,0.1479
1018.0,0.1419
1017.0,0.1361
1016.0,0.1305
1015.0,0.1251
1014.0,0.1201
1013.0,0.1154
1012.0,0.111
1011.0,0.107
1010.0,0.1034
1009.0,0.1001
1008.0,0.0971
1007.0,0.0943
1006.0,0.0918
1005.0,0.0895
1004.0,0.0873
1003.0,0.0854
1002.0,0.0835
1001.0,0.0819
1000.0,0.0803
999.0,0.0788
998.0,0.0774
997.0,0.0762
996.0,0.075
995.0,0.0739
994.0,0.0728
993.0,0.0717
992.0,0.0707
991.0,0.0697
990.0,0.0688
989.0,0.0679
988.0,0.067
987.0,0.066
986.0,0.065
985.0,0.0641
984.0,0.0633
983.0,0.0625
982.0,0.0618
981.0,0.0611
980.0,0.0605
979.0,0.0598
978.0,0.0591
977.0,0.0584
976.0,0.0578
975.0,0.0571
974.0,0.0566
973.0,0.0561
972.0,0.0556
971.0,0.0551
970.0,0.0546
969.0,0.0542
968.0,0.0539
967.0,0.0539
966.0,0.054
965.0,0.0545
964.0,0.0552
963.0,0.0563
962.0,0.0579
961.0,0.0597
960.0,0.0617
959.0,0.0635
958.0,0.0649
957.0,0.0657
956.0,0.066
955.0,0.0658
954.0,0.0652
953.0,0.0643
952.0,0.0632
951.0,0.0621
950.0,0.061
949.0,0.06
948.0,0.059
947.0,0.0581
946.0,0.0572
945.0,0.0564
944.0,0.0556
943.0,0.055
942.0,0.0545
941.0,0.054
940.0,0.0535
939.0,0.053
938.0,0.0527
937.0,0.0524
936.0,0.0523
935.0,0.052
934.0,0.0518
933.0,0.0515
932.0,0.0513
931.0,0.0512
930.0,0.0512
929.0,0.0512
928.0,0.0512
927.0,0.0513
926.0,0.0513
925.0,0.0513
924.0,0.0513
923.0,0.0512
922.0,0.0512
921.0,0.0512
920.0,0.0512
919.0,0.0511
918.0,0.051
917.0,0.0509
916.0,0.0508
915.0,0.0507
914.0,0.0505
913.0,0.0503
912.0,0.0502
911.0,0.05
910.0,0.0499
909.0,0.0497
908.0,0.0495
907.0,0.0494
906.0,0.0493
905.0,0.0492
904.0,0.0492
903.0,0.0491
902.0,0.0491
901.0,0.0491
900.0,0.0492
899.0,0.0493
898.0,0.0494
897.0,0.0494
896.0,0.0494
895.0,0.0492
894.0,0.0489
893.0,0.0485
892.0,0.048
891.0,0.0474
890.0,0.0467
889.0,0.0459
888.0,0.0451
887.0,0.0446
886.0,0.0443
885.0,0.0446
884.0,0.0455
883.0,0.047
882.0,0.0491
881.0,0.052
880.0,0.0553
879.0,0.0592
878.0,0.0634
877.0,0.0679
876.0,0.0725
875.0,0.077
874.0,0.0811
873.0,0.0847
872.0,0.0876
871.0,0.0897
870.0,0.0912
869.0,0.0923
868.0,0.093
867.0,0.0933
866.0,0.093
865.0,0.0923
864.0,0.091
863.0,0.0891
862.0,0.0867
861.0,0.0837
860.0,0.0801
859.0,0.0761
858.0,0.0718
857.0,0.0674
856.0,0.0632
855.0,0.0595
854.0,0.0565
853.0,0.0542
852.0,0.0525
851.0,0.0514
850.0,0.0505
849.0,0.0498
848.0,0.0491
847.0,0.0482
846.0,0.047
845.0,0.0456
844.0,0.044
843.0,0.0423
842.0,0.0406
841.0,0.039
840.0,0.0376
839.0,0.0363
838.0,0.0351
837.0,0.0342
836.0,0.0333
835.0,0.0325
834.0,0.0317
833.0,0.031
832.0,0.0304
831.0,0.0298
830.0,0.0293
829.0,0.0288
828.0,0.0284
827.0,0.0279
826.0,0.0275
825.0,0.0271
824.0,0.0267
823.0,0.0263
822.0,0.026
821.0,0.0256
820.0,0.0253
819.0,0.025
818.0,0.0248
817.0,0.0246
816.0,0.0243
815.0,0.0241
814.0,0.0238
813.0,0.0235
812.0,0.0233
811.0,0.023
810.0,0.0227
809.0,0.0223
808.0,0.0219
807.0,0.0215
806.0,0.0212
805.0,0.0209
804.0,0.0207
803.0,0.0204
802.0,0.0202
801.0,0.02
800.0,0.0198
799.0,0.0196
798.0,0.0194
797.0,0.0194
796.0,0.0194
795.0,0.0194
794.0,0.0195
793.0,0.0196
792.0,0.0197
791.0,0.02
790.0,0.0205
789.0,0.021
788.0,0.0216
787.0,0.0223
786.0,0.023
785.0,0.0238
784.0,0.0248
783.0,0.0258
782.0,0.0267
781.0,0.0275
780.0,0.0282
779.0,0.029
778.0,0.03
777.0,0.0311
776.0,0.0324
775.0,0.0339
774.0,0.0355
773.0,0.0373
772.0,0.0391
771.0,0.041
770.0,0.0429
769.0,0.0449
768.0,0.0471
767.0,0.0495
766.0,0.052
765.0,0.0546
764.0,0.0573
763.0,0.0603
762.0,0.0635
761.0,0.0667
760.0,0.0699
759.0,0.0728
758.0,0.0753
757.0,0.0772
756.0,0.0785
755.0,0.079
754.0,0.0789
753.0,0.0783
752.0,0.0773
751.0,0.076
750.0,0.0746
749.0,0.0733
748.0,0.0721
747.0,0.0708
746.0,0.0694
745.0,0.068
744.0,0.0665
743.0,0.065
742.0,0.0634
741.0,0.0618
740.0,0.0599
739.0,0.0577
738.0,0.0551
737.0,0.0523
736.0,0.0493
735.0,0.046
734.0,0.0425
733.0,0.0388
732.0,0.0354
731.0,0.0325
730.0,0.0302
729.0,0.0285
728.0,0.0274
727.0,0.0267
726.0,0.0264
725.0,0.0266
724.0,0.0273
723.0,0.0285
722.0,0.03
721.0,0.0318
720.0,0.0336
719.0,0.0354
718.0,0.0372
717.0,0.039
716.0,0.0408
715.0,0.0425
714.0,0.0436
713.0,0.0443
712.0,0.0448
711.0,0.0454
710.0,0.046
709.0,0.0467
708.0,0.0472
707.0,0.0476
706.0,0.0478
705.0,0.0481
704.0,0.0484
703.0,0.0486
702.0,0.0484
701.0,0.0479
700.0,0.0472
699.0,0.0468
698.0,0.0467
697.0,0.0467
696.0,0.0467
695.0,0.0464
694.0,0.0458
693.0,0.0453
692.0,0.0447
691.0,0.0441
690.0,0.0434
689.0,0.0424
688.0,0.0411
687.0,0.0399
686.0,0.0395
685.0,0.0404
684.0,0.0421
683.0,0.0436
682.0,0.044
681.0,0.0432
680.0,0.042
679.0,0.0412
678.0,0.041
677.0,0.041
676.0,0.0409
675.0,0.0407
674.0,0.0406
673.0,0.0404
672.0,0.04
671.0,0.0393
670.0,0.0389
669.0,0.0397
668.0,0.0408
667.0,0.0402
666.0,0.0388
665.0,0.038
664.0,0.038
663.0,0.0383
662.0,0.0384
661.0,0.038
660.0,0.0375
659.0,0.0371
658.0,0.0367
657.0,0.0363
656.0,0.0358
655.0,0.0351
654.0,0.0344
653.0,0.0336
652.0,0.0326
651.0,0.0316
650.0,0.031
649.0,0.031
648.0,0.0311
647.0,0.0308
646.0,0.0301
645.0,0.0296
644.0,0.0297
643.0,0.0304
642.0,0.0312
641.0,0.0318
640.0,0.0318
639.0,0.0315
638.0,0.0312
637.0,0.0312
636.0,0.0316
635.0,0.032
634.0,0.0321
633.0,0.0314
632.0,0.0299
631.0,0.0279
630.0,0.0261
629.0,0.0248
628.0,0.0242
627.0,0.0238
626.0,0.0234
625.0,0.023
624.0,0.0227
623.0,0.0222
622.0,0.0214
621.0,0.0203
620.0,0.0194
619.0,0.0193
618.0,0.0196
617.0,0.0198
616.0,0.0193
615.0,0.0182
614.0,0.0169
613.0,0.0159
612.0,0.0152
611.0,0.0145
610.0,0.0139
609.0,0.0137
608.0,0.014
607.0,0.0142
606.0,0.0138
605.0,0.0127
604.0,0.0114
603.0,0.0106
602.0,0.0103
601.0,0.0104
600.0,0.0106
