cm-1,A
4000.0,0.0035
3999.0,0.0035
3998.0,0.0034
3997.0,0.0034
3996.0,0.0033
3995.0,0.0034
3994.0,0.0034
3993.0,0.0035
3992.0,0.0035
3991.0,0.0035
3990.0,0.0034
3989.0,0.0034
3988.0,0.0035
3987.0,0.0035
3986.0,0.0036
3985.0,0.0036
3984.0,0.0036
3983.0,0.0035
3982.0,0.0035
3981.0,0.0035
3980.0,0.0035
3979.0,0.0035
3978.0,0.0036
3977.0,0.0036
3976.0,0.0036
3975.0,0.0035
3974.0,0.0035
3973.0,0.0035
3972.0,0.0035
3971.0,0.0035
3970.0,0.0035
3969.0,0.0035
3968.0,0.0034
3967.0,0.0034
3966.0,0.0033
3965.0,0.0033
3964.0,0.0034
3963.0,0.0034
3962.0,0.0035
3961.0,0.0036
3960.0,0.0036
3959.0,0.0036
3958.0,0.0036
3957.0,0.0036
3956.0,0.0035
3955.0,0.0035
3954.0,0.0036
3953.0,0.0036
3952.0,0.0037
3951.0,0.0037
3950.0,0.0036
3949.0,0.0036
3948.0,0.0036
3947.0,0.0036
3946.0,0.0036
3945.0,0.0036
3944.0,0.0037
3943.0,0.0038
3942.0,0.0038
3941.0,0.0039
3940.0,0.0038
3939.0,0.0037
3938.0,0.0036
3937.0,0.0036
3936.0,0.0036
3935.0,0.0036
3934.0,0.0037
3933.0,0.0037
3932.0,0.0037
3931.0,0.0037
3930.0,0.0038
3929.0,0.0038
3928.0,0.0038
3927.0,0.0038
3926.0,0.0038
3925.0,0.0037
3924.0,0.0037
3923.0,0.0038
3922.0,0.0038
3921.0,0.0038
3920.0,0.0037
3919.0,0.0036
3918.0,0.0036
3917.0,0.0036
3916.0,0.0036
3915.0,0.0036
3914.0,0.0036
3913.0,0.0035
3912.0,0.0035
3911.0,0.0035
3910.0,0.0036
3909.0,0.0037
3908.0,0.0038
3907.0,0.0039
3906.0,0.0039
3905.0,0.0038
3904.0,0.0037
3903.0,0.0037
3902.0,0.0037
3901.0,0.0038
3900.0,0.0038
3899.0,0.0038
3898.0,0.0038
3897.0,0.0037
3896.0,0.0037
3895.0,0.0036
3894.0,0.0036
3893.0,0.0036
3892.0,0.0037
3891.0,0.0038
3890.0,0.0039
3889.0,0.004
3888.0,0.004
3887.0,0.0039
3886.0,0.0038
3885.0,0.0038
3884.0,0.004
3883.0,0.0042
3882.0,0.0043
3881.0,0.0043
3880.0,0.0043
3879.0,0.0043
3878.0,0.0043
3877.0,0.0043
3876.0,0.0043
3875.0,0.0042
3874.0,0.0041
3873.0,0.0042
3872.0,0.0042
3871.0,0.0042
3870.0,0.0041
3869.0,0.0041
3868.0,0.0042
3867.0,0.0042
3866.0,0.0042
3865.0,0.0041
3864.0,0.0041
3863.0,0.0041
3862.0,0.0042
3861.0,0.0041
3860.0,0.0041
3859.0,0.004
3858.0,0.0039
3857.0,0.004
3856.0,0.0042
3855.0,0.0042
3854.0,0.0042
3853.0,0.0041
3852.0,0.0042
3851.0,0.0042
3850.0,0.0042
3849.0,0.0041
3848.0,0.0041
3847.0,0.0041
3846.0,0.0041
3845.0,0.0041
3844.0,0.0042
3843.0,0.0044
3842.0,0.0045
3841.0,0.0046
3840.0,0.0046
3839.0,0.0046
3838.0,0.0045
3837.0,0.0044
3836.0,0.0044
3835.0,0.0043
3834.0,0.0042
3833.0,0.0042
3832.0,0.0042
3831.0,0.0042
3830.0,0.0043
3829.0,0.0043
3828.0,0.0043
3827.0,0.0042
3826.0,0.0042
3825.0,0.0044
3824.0,0.0046
3823.0,0.0047
3822.0,0.0046
3821.0,0.0044
3820.0,0.0042
3819.0,0.0041
3818.0,0.0041
3817.0,0.004
3816.0,0.0041
3815.0,0.0042
3814.0,0.0043
3813.0,0.0043
3812.0,0.0042
3811.0,0.0042
3810.0,0.0043
3809.0,0.0044
3808.0,0.0043
3807.0,0.0043
3806.0,0.0043
3805.0,0.0045
3804.0,0.0046
3803.0,0.0046
3802.0,0.0046
3801.0,0.0046
3800.0,0.0046
3799.0,0.0046
3798.0,0.0046
3797.0,0.0045
3796.0,0.0044
3795.0,0.0044
3794.0,0.0043
3793.0,0.0043
3792.0,0.0043
3791.0,0.0043
3790.0,0.0043
3789.0,0.0043
3788.0,0.0043
3787.0,0.0044
3786.0,0.0044
3785.0,0.0044
3784.0,0.0044
3783.0,0.0045
3782.0,0.0047
3781.0,0.0047
3780.0,0.0047
3779.0,0.0046
3778.0,0.0045
3777.0,0.0045
3776.0,0.0044
3775.0,0.0044
3774.0,0.0044
3773.0,0.0044
3772.0,0.0045
3771.0,0.0044
3770.0,0.0043
3769.0,0.0044
3768.0,0.0044
3767.0,0.0045
3766.0,0.0045
3765.0,0.0045
3764.0,0.0045
3763.0,0.0046
3762.0,0.0047
3761.0,0.0047
3760.0,0.0047
3759.0,0.0048
3758.0,0.0047
3757.0,0.0046
3756.0,0.0045
3755.0,0.0045
3754.0,0.0045
3753.0,0.0045
3752.0,0.0044
3751.0,0.0044
3750.0,0.0044
3749.0,0.0044
3748.0,0.0044
3747.0,0.0045
3746.0,0.0045
3745.0,0.0044
3744.0,0.0044
3743.0,0.0045
3742.0,0.0045
3741.0,0.0044
3740.0,0.0044
3739.0,0.0044
3738.0,0.0044
3737.0,0.0043
3736.0,0.0041
3735.0,0.004
3734.0,0.0039
3733.0,0.0038
3732.0,0.0037
3731.0,0.0036
3730.0,0.0036
3729.0,0.0036
3728.0,0.0036
3727.0,0.0037
3726.0,0.0038
3725.0,0.004
3724.0,0.0042
3723.0,0.0042
3722.0,0.0043
3721.0,0.0042
3720.0,0.0042
3719.0,0.0042
3718.0,0.0042
3717.0,0.0042
3716.0,0.0042
3715.0,0.0044
3714.0,0.0044
3713.0,0.0044
3712.0,0.0043
3711.0,0.0042
3710.0,0.0041
3709.0,0.004
3708.0,0.0039
3707.0,0.0039
3706.0,0.004
3705.0,0.0041
3704.0,0.0042
3703.0,0.0043
3702.0,0.0042
3701.0,0.0042
3700.0,0.0041
3699.0,0.0041
3698.0,0.0041
3697.0,0.0042
3696.0,0.0042
3695.0,0.0043
3694.0,0.0044
3693.0,0.0045
3692.0,0.0046
3691.0,0.0045
3690.0,0.0045
3689.0,0.0045
3688.0,0.0045
3687.0,0.0044
3686.0,0.0045
3685.0,0.0045
3684.0,0.0045
3683.0,0.0046
3682.0,0.0048
3681.0,0.0048
3680.0,0.0049
3679.0,0.005
3678.0,0.0051
3677.0,0.0052
3676.0,0.0051
3675.0,0.0051
3674.0,0.0051
3673.0,0.0052
3672.0,0.0051
3671.0,0.005
3670.0,0.0048
3669.0,0.0048
3668.0,0.0048
3667.0,0.0048
3666.0,0.0048
3665.0,0.0049
3664.0,0.0049
3663.0,0.0049
3662.0,0.0049
3661.0,0.0049
3660.0,0.0049
3659.0,0.005
3658.0,0.005
3657.0,0.0051
3656.0,0.0051
3655.0,0.0051
3654.0,0.0052
3653.0,0.0054
3652.0,0.0054
3651.0,0.0054
3650.0,0.0054
3649.0,0.0055
3648.0,0.0055
3647.0,0.0054
3646.0,0.0053
3645.0,0.0052
3644.0,0.0051
3643.0,0.005
3642.0,0.005
3641.0,0.005
3640.0,0.005
3639.0,0.005
3638.0,0.005
3637.0,0.005
3636.0,0.0051
3635.0,0.0051
3634.0,0.0051
3633.0,0.0051
3632.0,0.0051
3631.0,0.0051
3630.0,0.0049
3629.0,0.0048
3628.0,0.0048
3627.0,0.0049
3626.0,0.0049
3625.0,0.0049
3624.0,0.0049
3623.0,0.005
3622.0,0.0052
3621.0,0.0053
3620.0,0.0054
3619.0,0.0055
3618.0,0.0056
3617.0,0.0057
3616.0,0.0057
3615.0,0.0056
3614.0,0.0055
3613.0,0.0053
3612.0,0.0051
3611.0,0.005
3610.0,0.005
3609.0,0.005
3608.0,0.005
3607.0,0.0051
3606.0,0.0051
3605.0,0.0051
3604.0,0.0051
3603.0,0.0052
3602.0,0.0052
3601.0,0.0052
3600.0,0.0052
3599.0,0.0052
3598.0,0.0052
3597.0,0.0052
3596.0,0.0052
3595.0,0.0051
3594.0,0.0051
3593.0,0.0051
3592.0,0.0051
3591.0,0.0051
3590.0,0.0052
3589.0,0.0053
3588.0,0.0054
3587.0,0.0055
3586.0,0.0056
3585.0,0.0056
3584.0,0.0056
3583.0,0.0056
3582.0,0.0055
3581.0,0.0056
3580.0,0.0057
3579.0,0.0057
3578.0,0.0058
3577.0,0.0057
3576.0,0.0056
3575.0,0.0056
3574.0,0.0056
3573.0,0.0056
3572.0,0.0057
3571.0,0.0057
3570.0,0.0058
3569.0,0.0058
3568.0,0.0058
3567.0,0.0059
3566.0,0.006
3565.0,0.006
3564.0,0.006
3563.0,0.0059
3562.0,0.0059
3561.0,0.0059
3560.0,0.0059
3559.0,0.0059
3558.0,0.0058
3557.0,0.0058
3556.0,0.0058
3555.0,0.0059
3554.0,0.006
3553.0,0.006
3552.0,0.006
3551.0,0.006
3550.0,0.006
3549.0,0.006
3548.0,0.006
3547.0,0.006
3546.0,0.0061
3545.0,0.006
3544.0,0.006
3543.0,0.0059
3542.0,0.0059
3541.0,0.0059
3540.0,0.006
3539.0,0.006
3538.0,0.006
3537.0,0.006
3536.0,0.0059
3535.0,0.0059
3534.0,0.0059
3533.0,0.006
3532.0,0.006
3531.0,0.0061
3530.0,0.0062
3529.0,0.0063
3528.0,0.0064
3527.0,0.0064
3526.0,0.0064
3525.0,0.0063
3524.0,0.0063
3523.0,0.0062
3522.0,0.0062
3521.0,0.0061
3520.0,0.006
3519.0,0.0059
3518.0,0.0059
3517.0,0.0059
3516.0,0.0059
3515.0,0.006
3514.0,0.006
3513.0,0.006
3512.0,0.006
3511.0,0.0059
3510.0,0.0058
3509.0,0.0058
3508.0,0.0059
3507.0,0.006
3506.0,0.0061
3505.0,0.0062
3504.0,0.0062
3503.0,0.0062
3502.0,0.0062
3501.0,0.0062
3500.0,0.0061
3499.0,0.006
3498.0,0.0059
3497.0,0.0058
3496.0,0.0058
3495.0,0.0058
3494.0,0.0058
3493.0,0.0059
3492.0,0.0059
3491.0,0.0059
3490.0,0.0059
3489.0,0.0059
3488.0,0.0059
3487.0,0.0059
3486.0,0.006
3485.0,0.0061
3484.0,0.0061
3483.0,0.006
3482.0,0.0059
3481.0,0.0058
3480.0,0.0059
3479.0,0.0059
3478.0,0.006
3477.0,0.006
3476.0,0.006
3475.0,0.0061
3474.0,0.0061
3473.0,0.0062
3472.0,0.0062
3471.0,0.0061
3470.0,0.006
3469.0,0.006
3468.0,0.0059
3467.0,0.0059
3466.0,0.006
3465.0,0.0059
3464.0,0.0059
3463.0,0.0059
3462.0,0.0059
3461.0,0.0059
3460.0,0.006
3459.0,0.006
3458.0,0.006
3457.0,0.006
3456.0,0.006
3455.0,0.0061
3454.0,0.0061
3453.0,0.0061
3452.0,0.0061
3451.0,0.0061
3450.0,0.0062
3449.0,0.0063
3448.0,0.0064
3447.0,0.0065
3446.0,0.0066
3445.0,0.0066
3444.0,0.0066
3443.0,0.0065
3442.0,0.0065
3441.0,0.0065
3440.0,0.0065
3439.0,0.0065
3438.0,0.0064
3437.0,0.0064
3436.0,0.0064
3435.0,0.0065
3434.0,0.0066
3433.0,0.0067
3432.0,0.0068
3431.0,0.0068
3430.0,0.0068
3429.0,0.0067
3428.0,0.0066
3427.0,0.0065
3426.0,0.0065
3425.0,0.0064
3424.0,0.0064
3423.0,0.0064
3422.0,0.0064
3421.0,0.0063
3420.0,0.0063
3419.0,0.0063
3418.0,0.0063
3417.0,0.0064
3416.0,0.0065
3415.0,0.0065
3414.0,0.0066
3413.0,0.0065
3412.0,0.0064
3411.0,0.0064
3410.0,0.0064
3409.0,0.0064
3408.0,0.0064
3407.0,0.0063
3406.0,0.0062
3405.0,0.0061
3404.0,0.006
3403.0,0.0059
3402.0,0.0058
3401.0,0.0058
3400.0,0.0057
3399.0,0.0058
3398.0,0.006
3397.0,0.0061
3396.0,0.0062
3395.0,0.0061
3394.0,0.006
3393.0,0.0059
3392.0,0.0059
3391.0,0.0059
3390.0,0.0058
3389.0,0.0058
3388.0,0.0058
3387.0,0.0058
3386.0,0.0058
3385.0,0.0057
3384.0,0.0057
3383.0,0.0057
3382.0,0.0057
3381.0,0.0058
3380.0,0.0058
3379.0,0.0058
3378.0,0.0058
3377.0,0.0058
3376.0,0.0058
3375.0,0.0058
3374.0,0.0057
3373.0,0.0057
3372.0,0.0056
3371.0,0.0056
3370.0,0.0056
3369.0,0.0057
3368.0,0.0058
3367.0,0.0059
3366.0,0.006
3365.0,0.006
3364.0,0.006
3363.0,0.0059
3362.0,0.0059
3361.0,0.0059
3360.0,0.006
3359.0,0.0059
3358.0,0.0059
3357.0,0.0058
3356.0,0.0057
3355.0,0.0056
3354.0,0.0056
3353.0,0.0056
3352.0,0.0055
3351.0,0.0054
3350.0,0.0054
3349.0,0.0054
3348.0,0.0055
3347.0,0.0057
3346.0,0.0057
3345.0,0.0058
3344.0,0.0057
3343.0,0.0057
3342.0,0.0057
3341.0,0.0057
3340.0,0.0057
3339.0,0.0057
3338.0,0.0058
3337.0,0.0059
3336.0,0.0059
3335.0,0.0059
3334.0,0.0059
3333.0,0.0059
3332.0,0.0059
3331.0,0.0059
3330.0,0.0059
3329.0,0.0058
3328.0,0.0058
3327.0,0.0057
3326.0,0.0056
3325.0,0.0056
3324.0,0.0056
3323.0,0.0056
3322.0,0.0056
3321.0,0.0056
3320.0,0.0056
3319.0,0.0056
3318.0,0.0056
3317.0,0.0056
3316.0,0.0057
3315.0,0.0057
3314.0,0.0057
3313.0,0.0057
3312.0,0.0056
3311.0,0.0055
3310.0,0.0055
3309.0,0.0055
3308.0,0.0055
3307.0,0.0055
3306.0,0.0056
3305.0,0.0056
3304.0,0.0057
3303.0,0.0058
3302.0,0.0058
3301.0,0.0057
3300.0,0.0057
3299.0,0.0057
3298.0,0.0057
3297.0,0.0056
3296.0,0.0056
3295.0,0.0055
3294.0,0.0055
3293.0,0.0055
3292.0,0.0056
3291.0,0.0058
3290.0,0.0059
3289.0,0.0059
3288.0,0.0058
3287.0,0.0056
3286.0,0.0055
3285.0,0.0054
3284.0,0.0054
3283.0,0.0053
3282.0,0.0053
3281.0,0.0053
3280.0,0.0054
3279.0,0.0055
3278.0,0.0056
3277.0,0.0056
3276.0,0.0056
3275.0,0.0055
3274.0,0.0055
3273.0,0.0054
3272.0,0.0053
3271.0,0.0053
3270.0,0.0053
3269.0,0.0053
3268.0,0.0053
3267.0,0.0053
3266.0,0.0053
3265.0,0.0053
3264.0,0.0053
3263.0,0.0053
3262.0,0.0052
3261.0,0.0052
3260.0,0.0053
3259.0,0.0053
3258.0,0.0053
3257.0,0.0053
3256.0,0.0053
3255.0,0.0053
3254.0,0.0053
3253.0,0.0052
3252.0,0.0052
3251.0,0.0052
3250.0,0.0053
3249.0,0.0053
3248.0,0.0053
3247.0,0.0053
3246.0,0.0052
3245.0,0.0052
3244.0,0.0051
3243.0,0.0051
3242.0,0.0051
3241.0,0.0052
3240.0,0.0053
3239.0,0.0053
3238.0,0.0053
3237.0,0.0052
3236.0,0.005
3235.0,0.0049
3234.0,0.0049
3233.0,0.0049
3232.0,0.0049
3231.0,0.0049
3230.0,0.005
3229.0,0.005
3228.0,0.005
3227.0,0.0049
3226.0,0.005
3225.0,0.005
3224.0,0.0051
3223.0,0.0051
3222.0,0.005
3221.0,0.0049
3220.0,0.0048
3219.0,0.0048
3218.0,0.0049
3217.0,0.005
3216.0,0.0051
3215.0,0.0051
3214.0,0.0051
3213.0,0.005
3212.0,0.005
3211.0,0.005
3210.0,0.005
3209.0,0.0051
3208.0,0.0052
3207.0,0.0053
3206.0,0.0052
3205.0,0.005
3204.0,0.0048
3203.0,0.0047
3202.0,0.0047
3201.0,0.0048
3200.0,0.0048
3199.0,0.0048
3198.0,0.0049
3197.0,0.0048
3196.0,0.0048
3195.0,0.0048
3194.0,0.0048
3193.0,0.0048
3192.0,0.0049
3191.0,0.005
3190.0,0.005
3189.0,0.005
3188.0,0.0051
3187.0,0.0051
3186.0,0.0052
3185.0,0.0052
3184.0,0.0052
3183.0,0.0051
3182.0,0.0051
3181.0,0.0051
3180.0,0.0051
3179.0,0.0052
3178.0,0.0053
3177.0,0.0053
3176.0,0.0053
3175.0,0.0053
3174.0,0.0052
3173.0,0.0051
3172.0,0.005
3171.0,0.005
3170.0,0.0049
3169.0,0.005
3168.0,0.005
3167.0,0.0051
3166.0,0.005
3165.0,0.005
3164.0,0.0049
3163.0,0.0049
3162.0,0.005
3161.0,0.005
3160.0,0.0051
3159.0,0.0051
3158.0,0.0051
3157.0,0.0051
3156.0,0.0051
3155.0,0.005
3154.0,0.005
3153.0,0.0049
3152.0,0.0049
3151.0,0.0049
3150.0,0.005
3149.0,0.005
3148.0,0.005
3147.0,0.005
3146.0,0.0049
3145.0,0.005
3144.0,0.0051
3143.0,0.0052
3142.0,0.0052
3141.0,0.0051
3140.0,0.005
3139.0,0.005
3138.0,0.005
3137.0,0.0051
3136.0,0.0052
3135.0,0.0052
3134.0,0.0052
3133.0,0.0052
3132.0,0.0052
3131.0,0.0051
3130.0,0.0051
3129.0,0.0052
3128.0,0.0053
3127.0,0.0053
3126.0,0.0054
3125.0,0.0053
3124.0,0.0053
3123.0,0.0053
3122.0,0.0052
3121.0,0.0052
3120.0,0.0052
3119.0,0.0053
3118.0,0.0053
3117.0,0.0054
3116.0,0.0054
3115.0,0.0055
3114.0,0.0055
3113.0,0.0055
3112.0,0.0055
3111.0,0.0055
3110.0,0.0055
3109.0,0.0055
3108.0,0.0056
3107.0,0.0056
3106.0,0.0057
3105.0,0.0057
3104.0,0.0058
3103.0,0.0058
3102.0,0.0058
3101.0,0.0057
3100.0,0.0056
3099.0,0.0056
3098.0,0.0056
3097.0,0.0057
3096.0,0.0058
3095.0,0.0059
3094.0,0.0059
3093.0,0.0058
3092.0,0.0058
3091.0,0.0058
3090.0,0.0058
3089.0,0.0058
3088.0,0.0058
3087.0,0.0059
3086.0,0.006
3085.0,0.0061
3084.0,0.0062
3083.0,0.0061
3082.0,0.0061
3081.0,0.0061
3080.0,0.0061
3079.0,0.0061
3078.0,0.0061
3077.0,0.0061
3076.0,0.0061
3075.0,0.0061
3074.0,0.0061
3073.0,0.0061
3072.0,0.0061
3071.0,0.0062
3070.0,0.0062
3069.0,0.0062
3068.0,0.0062
3067.0,0.0061
3066.0,0.0061
3065.0,0.0062
3064.0,0.0062
3063.0,0.0062
3062.0,0.0062
3061.0,0.0061
3060.0,0.0061
3059.0,0.0061
3058.0,0.0062
3057.0,0.0062
3056.0,0.0063
3055.0,0.0064
3054.0,0.0064
3053.0,0.0064
3052.0,0.0064
3051.0,0.0064
3050.0,0.0063
3049.0,0.0062
3048.0,0.0061
3047.0,0.006
3046.0,0.0059
3045.0,0.0059
3044.0,0.0059
3043.0,0.0059
3042.0,0.0058
3041.0,0.0057
3040.0,0.0057
3039.0,0.0057
3038.0,0.0056
3037.0,0.0056
3036.0,0.0056
3035.0,0.0057
3034.0,0.0057
3033.0,0.0057
3032.0,0.0057
3031.0,0.0057
3030.0,0.0057
3029.0,0.0057
3028.0,0.0057
3027.0,0.0058
3026.0,0.0058
3025.0,0.0058
3024.0,0.0058
3023.0,0.0058
3022.0,0.0059
3021.0,0.0059
3020.0,0.006
3019.0,0.006
3018.0,0.006
3017.0,0.0061
3016.0,0.0061
3015.0,0.0061
3014.0,0.0062
3013.0,0.0063
3012.0,0.0064
3011.0,0.0065
3010.0,0.0065
3009.0,0.0066
3008.0,0.0066
3007.0,0.0065
3006.0,0.0065
3005.0,0.0065
3004.0,0.0066
3003.0,0.0066
3002.0,0.0067
3001.0,0.0068
3000.0,0.0069
2999.0,0.007
2998.0,0.007
2997.0,0.007
2996.0,0.007
2995.0,0.007
2994.0,0.007
2993.0,0.0071
2992.0,0.0072
2991.0,0.0074
2990.0,0.0075
2989.0,0.0076
2988.0,0.0077
2987.0,0.0077
2986.0,0.0077
2985.0,0.0077
2984.0,0.0077
2983.0,0.0078
2982.0,0.0079
2981.0,0.0081
2980.0,0.0082
2979.0,0.0083
2978.0,0.0085
2977.0,0.0087
2976.0,0.0089
2975.0,0.0091
2974.0,0.0092
2973.0,0.0093
2972.0,0.0093
2971.0,0.0093
2970.0,0.0093
2969.0,0.0093
2968.0,0.0094
2967.0,0.0096
2966.0,0.0098
2965.0,0.0099
2964.0,0.01
2963.0,0.0101
2962.0,0.0101
2961.0,0.0101
2960.0,0.01
2959.0,0.01
2958.0,0.01
2957.0,0.01
2956.0,0.0099
2955.0,0.0098
2954.0,0.0097
2953.0,0.0096
2952.0,0.0094
2951.0,0.0093
2950.0,0.0092
2949.0,0.0091
2948.0,0.009
2947.0,0.009
2946.0,0.0089
2945.0,0.0088
2944.0,0.0087
2943.0,0.0086
2942.0,0.0085
2941.0,0.0084
2940.0,0.0083
2939.0,0.0082
2938.0,0.008
2937.0,0.0079
2936.0,0.0078
2935.0,0.0077
2934.0,0.0077
2933.0,0.0076
2932.0,0.0076
2931.0,0.0076
2930.0,0.0075
2929.0,0.0075
2928.0,0.0075
2927.0,0.0075
2926.0,0.0075
2925.0,0.0075
2924.0,0.0075
2923.0,0.0074
2922.0,0.0074
2921.0,0.0074
2920.0,0.0074
2919.0,0.0073
2918.0,0.0073
2917.0,0.0074
2916.0,0.0076
2915.0,0.0077
2914.0,0.0077
2913.0,0.0077
2912.0,0.0077
2911.0,0.0077
2910.0,0.0078
2909.0,0.0079
2908.0,0.0079
2907.0,0.008
2906.0,0.0079
2905.0,0.0079
2904.0,0.0079
2903.0,0.0079
2902.0,0.0079
2901.0,0.0078
2900.0,0.0078
2899.0,0.0077
2898.0,0.0077
2897.0,0.0077
2896.0,0.0077
2895.0,0.0077
2894.0,0.0077
2893.0,0.0076
2892.0,0.0076
2891.0,0.0077
2890.0,0.0077
2889.0,0.0078
2888.0,0.0078
2887.0,0.0078
2886.0,0.0078
2885.0,0.0078
2884.0,0.0077
2883.0,0.0077
2882.0,0.0076
2881.0,0.0076
2880.0,0.0075
2879.0,0.0075
2878.0,0.0075
2877.0,0.0075
2876.0,0.0074
2875.0,0.0074
2874.0,0.0074
2873.0,0.0074
2872.0,0.0075
2871.0,0.0074
2870.0,0.0074
2869.0,0.0074
2868.0,0.0073
2867.0,0.0073
2866.0,0.0073
2865.0,0.0072
2864.0,0.0072
2863.0,0.0072
2862.0,0.0072
2861.0,0.0072
2860.0,0.0073
2859.0,0.0073
2858.0,0.0073
2857.0,0.0072
2856.0,0.0071
2855.0,0.0071
2854.0,0.0071
2853.0,0.0071
2852.0,0.0071
2851.0,0.0071
2850.0,0.007
2849.0,0.007
2848.0,0.0069
2847.0,0.0069
2846.0,0.0069
2845.0,0.0069
2844.0,0.0069
2843.0,0.0068
2842.0,0.0068
2841.0,0.0067
2840.0,0.0067
2839.0,0.0067
2838.0,0.0067
2837.0,0.0066
2836.0,0.0065
2835.0,0.0066
2834.0,0.0066
2833.0,0.0066
2832.0,0.0066
2831.0,0.0066
2830.0,0.0066
2829.0,0.0066
2828.0,0.0065
2827.0,0.0065
2826.0,0.0066
2825.0,0.0066
2824.0,0.0066
2823.0,0.0066
2822.0,0.0066
2821.0,0.0065
2820.0,0.0064
2819.0,0.0064
2818.0,0.0064
2817.0,0.0064
2816.0,0.0064
2815.0,0.0064
2814.0,0.0064
2813.0,0.0063
2812.0,0.0063
2811.0,0.0064
2810.0,0.0064
2809.0,0.0064
2808.0,0.0065
2807.0,0.0065
2806.0,0.0065
2805.0,0.0065
2804.0,0.0065
2803.0,0.0065
2802.0,0.0064
2801.0,0.0064
2800.0,0.0064
2799.0,0.0064
2798.0,0.0063
2797.0,0.0063
2796.0,0.0063
2795.0,0.0063
2794.0,0.0063
2793.0,0.0063
2792.0,0.0064
2791.0,0.0064
2790.0,0.0064
2789.0,0.0064
2788.0,0.0064
2787.0,0.0064
2786.0,0.0064
2785.0,0.0064
2784.0,0.0064
2783.0,0.0064
2782.0,0.0063
2781.0,0.0063
2780.0,0.0063
2779.0,0.0063
2778.0,0.0063
2777.0,0.0063
2776.0,0.0063
2775.0,0.0063
2774.0,0.0062
2773.0,0.0062
2772.0,0.0062
2771.0,0.0061
2770.0,0.0061
2769.0,0.0062
2768.0,0.0062
2767.0,0.0063
2766.0,0.0063
2765.0,0.0063
2764.0,0.0063
2763.0,0.0063
2762.0,0.0064
2761.0,0.0064
2760.0,0.0064
2759.0,0.0064
2758.0,0.0063
2757.0,0.0063
2756.0,0.0063
2755.0,0.0063
2754.0,0.0063
2753.0,0.0062
2752.0,0.0061
2751.0,0.0061
2750.0,0.006
2749.0,0.006
2748.0,0.006
2747.0,0.006
2746.0,0.0061
2745.0,0.0061
2744.0,0.0062
2743.0,0.0062
2742.0,0.0062
2741.0,0.0061
2740.0,0.006
2739.0,0.006
2738.0,0.006
2737.0,0.006
2736.0,0.0061
2735.0,0.0061
2734.0,0.0062
2733.0,0.0062
2732.0,0.0062
2731.0,0.0062
2730.0,0.0061
2729.0,0.0061
2728.0,0.0061
2727.0,0.0061
2726.0,0.0061
2725.0,0.006
2724.0,0.006
2723.0,0.006
2722.0,0.006
2721.0,0.006
2720.0,0.006
2719.0,0.0061
2718.0,0.0061
2717.0,0.0061
2716.0,0.0061
2715.0,0.0061
2714.0,0.006
2713.0,0.006
2712.0,0.006
2711.0,0.006
2710.0,0.006
2709.0,0.006
2708.0,0.006
2707.0,0.006
2706.0,0.006
2705.0,0.0059
2704.0,0.0059
2703.0,0.0058
2702.0,0.0058
2701.0,0.0059
2700.0,0.0059
2699.0,0.006
2698.0,0.006
2697.0,0.006
2696.0,0.006
2695.0,0.0059
2694.0,0.0059
2693.0,0.0059
2692.0,0.006
2691.0,0.006
2690.0,0.006
2689.0,0.006
2688.0,0.006
2687.0,0.006
2686.0,0.006
2685.0,0.0059
2684.0,0.0059
2683.0,0.0059
2682.0,0.006
2681.0,0.006
2680.0,0.006
2679.0,0.006
2678.0,0.006
2677.0,0.006
2676.0,0.006
2675.0,0.006
2674.0,0.006
2673.0,0.006
2672.0,0.006
2671.0,0.006
2670.0,0.006
2669.0,0.0059
2668.0,0.0059
2667.0,0.0058
2666.0,0.0057
2665.0,0.0058
2664.0,0.0058
2663.0,0.0059
2662.0,0.0059
2661.0,0.0059
2660.0,0.0059
2659.0,0.0058
2658.0,0.0058
2657.0,0.0058
2656.0,0.0058
2655.0,0.0058
2654.0,0.0058
2653.0,0.0058
2652.0,0.0058
2651.0,0.0058
2650.0,0.0058
2649.0,0.0058
2648.0,0.0057
2647.0,0.0057
2646.0,0.0057
2645.0,0.0057
2644.0,0.0057
2643.0,0.0057
2642.0,0.0057
2641.0,0.0057
2640.0,0.0057
2639.0,0.0057
2638.0,0.0057
2637.0,0.0057
2636.0,0.0057
2635.0,0.0057
2634.0,0.0057
2633.0,0.0057
2632.0,0.0058
2631.0,0.0058
2630.0,0.0059
2629.0,0.0059
2628.0,0.0059
2627.0,0.0059
2626.0,0.0058
2625.0,0.0057
2624.0,0.0057
2623.0,0.0057
2622.0,0.0057
2621.0,0.0057
2620.0,0.0057
2619.0,0.0057
2618.0,0.0057
2617.0,0.0057
2616.0,0.0057
2615.0,0.0057
2614.0,0.0057
2613.0,0.0058
2612.0,0.0058
2611.0,0.0057
2610.0,0.0057
2609.0,0.0056
2608.0,0.0056
2607.0,0.0055
2606.0,0.0056
2605.0,0.0056
2604.0,0.0056
2603.0,0.0057
2602.0,0.0057
2601.0,0.0056
2600.0,0.0056
2599.0,0.0056
2598.0,0.0056
2597.0,0.0057
2596.0,0.0056
2595.0,0.0056
2594.0,0.0056
2593.0,0.0056
2592.0,0.0057
2591.0,0.0057
2590.0,0.0057
2589.0,0.0057
2588.0,0.0057
2587.0,0.0056
2586.0,0.0056
2585.0,0.0057
2584.0,0.0057
2583.0,0.0058
2582.0,0.0058
2581.0,0.0057
2580.0,0.0057
2579.0,0.0057
2578.0,0.0057
2577.0,0.0057
2576.0,0.0057
2575.0,0.0057
2574.0,0.0057
2573.0,0.0057
2572.0,0.0057
2571.0,0.0057
2570.0,0.0058
2569.0,0.0058
2568.0,0.0058
2567.0,0.0058
2566.0,0.0058
2565.0,0.0058
2564.0,0.0057
2563.0,0.0058
2562.0,0.0058
2561.0,0.0058
2560.0,0.0058
2559.0,0.0058
2558.0,0.0058
2557.0,0.0057
2556.0,0.0057
2555.0,0.0057
2554.0,0.0058
2553.0,0.0058
2552.0,0.0059
2551.0,0.0059
2550.0,0.0058
2549.0,0.0058
2548.0,0.0058
2547.0,0.0058
2546.0,0.0058
2545.0,0.0058
2544.0,0.0058
2543.0,0.0057
2542.0,0.0057
2541.0,0.0057
2540.0,0.0057
2539.0,0.0057
2538.0,0.0056
2537.0,0.0056
2536.0,0.0056
2535.0,0.0056
2534.0,0.0056
2533.0,0.0055
2532.0,0.0055
2531.0,0.0055
2530.0,0.0055
2529.0,0.0055
2528.0,0.0055
2527.0,0.0055
2526.0,0.0056
2525.0,0.0056
2524.0,0.0056
2523.0,0.0056
2522.0,0.0056
2521.0,0.0056
2520.0,0.0056
2519.0,0.0055
2518.0,0.0055
2517.0,0.0055
2516.0,0.0056
2515.0,0.0056
2514.0,0.0056
2513.0,0.0055
2512.0,0.0055
2511.0,0.0055
2510.0,0.0055
2509.0,0.0055
2508.0,0.0055
2507.0,0.0054
2506.0,0.0054
2505.0,0.0054
2504.0,0.0054
2503.0,0.0054
2502.0,0.0054
2501.0,0.0055
2500.0,0.0055
2499.0,0.0054
2498.0,0.0054
2497.0,0.0054
2496.0,0.0054
2495.0,0.0054
2494.0,0.0054
2493.0,0.0054
2492.0,0.0054
2491.0,0.0054
2490.0,0.0054
2489.0,0.0054
2488.0,0.0054
2487.0,0.0054
2486.0,0.0054
2485.0,0.0054
2484.0,0.0053
2483.0,0.0053
2482.0,0.0053
2481.0,0.0053
2480.0,0.0052
2479.0,0.0052
2478.0,0.0052
2477.0,0.0052
2476.0,0.0052
2475.0,0.0052
2474.0,0.0052
2473.0,0.0052
2472.0,0.0052
2471.0,0.0052
2470.0,0.0052
2469.0,0.0051
2468.0,0.0051
2467.0,0.005
2466.0,0.005
2465.0,0.0051
2464.0,0.0051
2463.0,0.0051
2462.0,0.0051
2461.0,0.0051
2460.0,0.0051
2459.0,0.0051
2458.0,0.0051
2457.0,0.0051
2456.0,0.005
2455.0,0.005
2454.0,0.005
2453.0,0.005
2452.0,0.005
2451.0,0.005
2450.0,0.005
2449.0,0.005
2448.0,0.0049
2447.0,0.0049
2446.0,0.0049
2445.0,0.005
2444.0,0.0051
2443.0,0.0051
2442.0,0.005
2441.0,0.005
2440.0,0.0049
2439.0,0.0049
2438.0,0.0049
2437.0,0.0049
2436.0,0.0049
2435.0,0.0049
2434.0,0.0049
2433.0,0.0049
2432.0,0.0049
2431.0,0.0049
2430.0,0.0049
2429.0,0.0049
2428.0,0.0049
2427.0,0.0049
2426.0,0.0049
2425.0,0.0048
2424.0,0.0049
2423.0,0.0049
2422.0,0.0049
2421.0,0.0049
2420.0,0.0049
2419.0,0.0049
2418.0,0.0049
2417.0,0.0049
2416.0,0.0049
2415.0,0.0049
2414.0,0.0049
2413.0,0.0049
2412.0,0.0049
2411.0,0.0049
2410.0,0.005
2409.0,0.005
2408.0,0.005
2407.0,0.005
2406.0,0.005
2405.0,0.0049
2404.0,0.0049
2403.0,0.0049
2402.0,0.005
2401.0,0.005
2400.0,0.0049
2399.0,0.0049
2398.0,0.0049
2397.0,0.0049
2396.0,0.0049
2395.0,0.0049
2394.0,0.0049
2393.0,0.005
2392.0,0.005
2391.0,0.005
2390.0,0.0049
2389.0,0.0048
2388.0,0.0047
2387.0,0.0045
2386.0,0.0044
2385.0,0.0042
2384.0,0.0039
2383.0,0.0037
2382.0,0.0034
2381.0,0.003
2380.0,0.0027
2379.0,0.0024
2378.0,0.0021
2377.0,0.0019
2376.0,0.0018
2375.0,0.0015
2374.0,0.0013
2373.0,0.0012
2372.0,0.0014
2371.0,0.0018
2370.0,0.0021
2369.0,0.0019
2368.0,0.0014
2367.0,0.0009
2366.0,0.0009
2365.0,0.0009
2364.0,0.0009
2363.0,0.001
2362.0,0.0014
2361.0,0.0017
2360.0,0.0013
2359.0,0.0002
2358.0,-0.0011
2357.0,-0.0016
2356.0,-0.0013
2355.0,-0.0009
2354.0,-0.0007
2353.0,-0.0005
2352.0,-0.0002
2351.0,-0.0
2350.0,-0.0
2349.0,-0.0002
2348.0,-0.0003
2347.0,-0.0001
2346.0,0.0003
2345.0,0.0003
2344.0,-0.0006
2343.0,-0.0018
2342.0,-0.0025
2341.0,-0.0025
2340.0,-0.0021
2339.0,-0.0015
2338.0,-0.0007
2337.0,-0.0
2336.0,0.0004
2335.0,0.0005
2334.0,0.0003
2333.0,0.0001
2332.0,0.0001
2331.0,0.0005
2330.0,0.0009
2329.0,0.0013
2328.0,0.0016
2327.0,0.0019
2326.0,0.0021
2325.0,0.0021
2324.0,0.0021
2323.0,0.002
2322.0,0.0018
2321.0,0.0016
2320.0,0.0014
2319.0,0.0013
2318.0,0.0014
2317.0,0.0015
2316.0,0.0015
2315.0,0.0014
2314.0,0.0014
2313.0,0.0014
2312.0,0.0015
2311.0,0.0015
2310.0,0.0016
2309.0,0.0017
2308.0,0.0018
2307.0,0.002
2306.0,0.0021
2305.0,0.0022
2304.0,0.0023
2303.0,0.0023
2302.0,0.0024
2301.0,0.0025
2300.0,0.0025
2299.0,0.0026
2298.0,0.0027
2297.0,0.0028
2296.0,0.0029
2295.0,0.003
2294.0,0.0031
2293.0,0.0032
2292.0,0.0034
2291.0,0.0036
2290.0,0.0037
2289.0,0.0038
2288.0,0.0039
2287.0,0.004
2286.0,0.004
2285.0,0.004
2284.0,0.004
2283.0,0.0039
2282.0,0.0039
2281.0,0.0039
2280.0,0.0039
2279.0,0.0039
2278.0,0.0039
2277.0,0.0039
2276.0,0.0038
2275.0,0.0038
2274.0,0.0037
2273.0,0.0037
2272.0,0.0037
2271.0,0.0037
2270.0,0.0038
2269.0,0.0038
2268.0,0.0039
2267.0,0.0038
2266.0,0.0038
2265.0,0.0037
2264.0,0.0037
2263.0,0.0036
2262.0,0.0036
2261.0,0.0036
2260.0,0.0037
2259.0,0.0038
2258.0,0.0038
2257.0,0.0038
2256.0,0.0038
2255.0,0.0039
2254.0,0.0039
2253.0,0.0039
2252.0,0.0039
2251.0,0.0039
2250.0,0.0039
2249.0,0.0039
2248.0,0.0039
2247.0,0.0039
2246.0,0.0038
2245.0,0.0038
2244.0,0.0038
2243.0,0.0038
2242.0,0.0039
2241.0,0.0039
2240.0,0.0038
2239.0,0.0038
2238.0,0.0038
2237.0,0.0038
2236.0,0.0038
2235.0,0.0038
2234.0,0.0037
2233.0,0.0037
2232.0,0.0037
2231.0,0.0038
2230.0,0.0038
2229.0,0.0038
2228.0,0.0038
2227.0,0.0038
2226.0,0.0038
2225.0,0.0038
2224.0,0.0038
2223.0,0.0038
2222.0,0.0038
2221.0,0.0037
2220.0,0.0036
2219.0,0.0036
2218.0,0.0036
2217.0,0.0036
2216.0,0.0036
2215.0,0.0036
2214.0,0.0036
2213.0,0.0036
2212.0,0.0035
2211.0,0.0035
2210.0,0.0036
2209.0,0.0036
2208.0,0.0036
2207.0,0.0036
2206.0,0.0036
2205.0,0.0035
2204.0,0.0036
2203.0,0.0036
2202.0,0.0035
2201.0,0.0035
2200.0,0.0035
2199.0,0.0035
2198.0,0.0035
2197.0,0.0034
2196.0,0.0034
2195.0,0.0034
2194.0,0.0034
2193.0,0.0034
2192.0,0.0034
2191.0,0.0034
2190.0,0.0034
2189.0,0.0033
2188.0,0.0033
2187.0,0.0033
2186.0,0.0033
2185.0,0.0033
2184.0,0.0032
2183.0,0.0032
2182.0,0.0033
2181.0,0.0033
2180.0,0.0033
2179.0,0.0033
2178.0,0.0033
2177.0,0.0033
2176.0,0.0032
2175.0,0.0032
2174.0,0.0032
2173.0,0.0032
2172.0,0.0032
2171.0,0.0032
2170.0,0.0032
2169.0,0.0033
2168.0,0.0033
2167.0,0.0033
2166.0,0.0033
2165.0,0.0034
2164.0,0.0034
2163.0,0.0034
2162.0,0.0033
2161.0,0.0033
2160.0,0.0032
2159.0,0.0032
2158.0,0.0032
2157.0,0.0032
2156.0,0.0032
2155.0,0.0032
2154.0,0.0031
2153.0,0.0031
2152.0,0.0031
2151.0,0.0032
2150.0,0.0032
2149.0,0.0032
2148.0,0.0032
2147.0,0.0032
2146.0,0.0033
2145.0,0.0033
2144.0,0.0033
2143.0,0.0033
2142.0,0.0032
2141.0,0.0032
2140.0,0.0033
2139.0,0.0033
2138.0,0.0033
2137.0,0.0033
2136.0,0.0033
2135.0,0.0033
2134.0,0.0033
2133.0,0.0033
2132.0,0.0033
2131.0,0.0033
2130.0,0.0033
2129.0,0.0033
2128.0,0.0033
2127.0,0.0033
2126.0,0.0033
2125.0,0.0033
2124.0,0.0033
2123.0,0.0033
2122.0,0.0033
2121.0,0.0032
2120.0,0.0032
2119.0,0.0032
2118.0,0.0032
2117.0,0.0033
2116.0,0.0033
2115.0,0.0034
2114.0,0.0034
2113.0,0.0033
2112.0,0.0033
2111.0,0.0032
2110.0,0.0031
2109.0,0.0031
2108.0,0.0031
2107.0,0.0032
2106.0,0.0032
2105.0,0.0032
2104.0,0.0032
2103.0,0.0032
2102.0,0.0032
2101.0,0.0032
2100.0,0.0031
2099.0,0.0031
2098.0,0.0031
2097.0,0.003
2096.0,0.003
2095.0,0.003
2094.0,0.0031
2093.0,0.0031
2092.0,0.0031
2091.0,0.0031
2090.0,0.0031
2089.0,0.0031
2088.0,0.003
2087.0,0.003
2086.0,0.003
2085.0,0.003
2084.0,0.003
2083.0,0.003
2082.0,0.003
2081.0,0.003
2080.0,0.0029
2079.0,0.0029
2078.0,0.0029
2077.0,0.0029
2076.0,0.0029
2075.0,0.0028
2074.0,0.0028
2073.0,0.0028
2072.0,0.0028
2071.0,0.0028
2070.0,0.0028
2069.0,0.0028
2068.0,0.0027
2067.0,0.0027
2066.0,0.0027
2065.0,0.0026
2064.0,0.0026
2063.0,0.0026
2062.0,0.0025
2061.0,0.0025
2060.0,0.0025
2059.0,0.0024
2058.0,0.0024
2057.0,0.0023
2056.0,0.0023
2055.0,0.0022
2054.0,0.0023
2053.0,0.0023
2052.0,0.0022
2051.0,0.0022
2050.0,0.0022
2049.0,0.0022
2048.0,0.0022
2047.0,0.0022
2046.0,0.0021
2045.0,0.0021
2044.0,0.0021
2043.0,0.0021
2042.0,0.0021
2041.0,0.0021
2040.0,0.002
2039.0,0.002
2038.0,0.002
2037.0,0.0019
2036.0,0.0019
2035.0,0.0018
2034.0,0.0018
2033.0,0.0018
2032.0,0.0018
2031.0,0.0018
2030.0,0.0018
2029.0,0.0018
2028.0,0.0018
2027.0,0.0018
2026.0,0.0018
2025.0,0.0018
2024.0,0.0018
2023.0,0.0018
2022.0,0.0018
2021.0,0.0017
2020.0,0.0017
2019.0,0.0017
2018.0,0.0017
2017.0,0.0017
2016.0,0.0017
2015.0,0.0017
2014.0,0.0017
2013.0,0.0016
2012.0,0.0016
2011.0,0.0016
2010.0,0.0016
2009.0,0.0016
2008.0,0.0016
2007.0,0.0016
2006.0,0.0017
2005.0,0.0017
2004.0,0.0017
2003.0,0.0017
2002.0,0.0017
2001.0,0.0017
2000.0,0.0017
1999.0,0.0017
1998.0,0.0017
1997.0,0.0017
1996.0,0.0017
1995.0,0.0017
1994.0,0.0017
1993.0,0.0017
1992.0,0.0017
1991.0,0.0017
1990.0,0.0018
1989.0,0.0018
1988.0,0.0018
1987.0,0.0017
1986.0,0.0017
1985.0,0.0017
1984.0,0.0017
1983.0,0.0017
1982.0,0.0017
1981.0,0.0017
1980.0,0.0017
1979.0,0.0016
1978.0,0.0016
1977.0,0.0016
1976.0,0.0016
1975.0,0.0017
1974.0,0.0017
1973.0,0.0017
1972.0,0.0017
1971.0,0.0018
1970.0,0.0018
1969.0,0.0018
1968.0,0.0018
1967.0,0.0019
1966.0,0.0019
1965.0,0.0019
1964.0,0.002
1963.0,0.002
1962.0,0.0021
1961.0,0.0021
1960.0,0.0021
1959.0,0.0021
1958.0,0.0022
1957.0,0.0022
1956.0,0.0023
1955.0,0.0023
1954.0,0.0023
1953.0,0.0023
1952.0,0.0022
1951.0,0.0022
1950.0,0.0022
1949.0,0.0022
1948.0,0.0023
1947.0,0.0023
1946.0,0.0023
1945.0,0.0023
1944.0,0.0023
1943.0,0.0022
1942.0,0.002
1941.0,0.0019
1940.0,0.0018
1939.0,0.0017
1938.0,0.0017
1937.0,0.0016
1936.0,0.0016
1935.0,0.0015
1934.0,0.0014
1933.0,0.0013
1932.0,0.0012
1931.0,0.0011
1930.0,0.0011
1929.0,0.001
1928.0,0.001
1927.0,0.001
1926.0,0.0009
1925.0,0.0009
1924.0,0.0008
1923.0,0.0008
1922.0,0.0007
1921.0,0.0006
1920.0,0.0005
1919.0,0.0005
1918.0,0.0004
1917.0,0.0004
1916.0,0.0004
1915.0,0.0004
1914.0,0.0003
1913.0,0.0003
1912.0,0.0003
1911.0,0.0002
1910.0,0.0001
1909.0,-0.0
1908.0,-0.0001
1907.0,-0.0001
1906.0,-0.0001
1905.0,-0.0002
1904.0,-0.0003
1903.0,-0.0004
1902.0,-0.0004
1901.0,-0.0005
1900.0,-0.0005
1899.0,-0.0005
1898.0,-0.0005
1897.0,-0.0006
1896.0,-0.0007
1895.0,-0.0007
1894.0,-0.0007
1893.0,-0.0007
1892.0,-0.0007
1891.0,-0.0007
1890.0,-0.0008
1889.0,-0.0009
1888.0,-0.001
1887.0,-0.001
1886.0,-0.0011
1885.0,-0.0012
1884.0,-0.0012
1883.0,-0.0013
1882.0,-0.0013
1881.0,-0.0014
1880.0,-0.0014
1879.0,-0.0015
1878.0,-0.0015
1877.0,-0.0015
1876.0,-0.0016
1875.0,-0.0017
1874.0,-0.0017
1873.0,-0.0017
1872.0,-0.0017
1871.0,-0.0016
1870.0,-0.0016
1869.0,-0.0017
1868.0,-0.0018
1867.0,-0.0018
1866.0,-0.0019
1865.0,-0.0019
1864.0,-0.002
1863.0,-0.002
1862.0,-0.002
1861.0,-0.0021
1860.0,-0.0021
1859.0,-0.0021
1858.0,-0.0022
1857.0,-0.0022
1856.0,-0.0022
1855.0,-0.0022
1854.0,-0.0022
1853.0,-0.0022
1852.0,-0.0022
1851.0,-0.0022
1850.0,-0.0022
1849.0,-0.0022
1848.0,-0.0022
1847.0,-0.0022
1846.0,-0.0022
1845.0,-0.0024
1844.0,-0.0025
1843.0,-0.0025
1842.0,-0.0024
1841.0,-0.0024
1840.0,-0.0024
1839.0,-0.0024
1838.0,-0.0024
1837.0,-0.0024
1836.0,-0.0024
1835.0,-0.0024
1834.0,-0.0024
1833.0,-0.0024
1832.0,-0.0023
1831.0,-0.0022
1830.0,-0.0022
1829.0,-0.0022
1828.0,-0.0022
1827.0,-0.0022
1826.0,-0.0023
1825.0,-0.0024
1824.0,-0.0025
1823.0,-0.0026
1822.0,-0.0026
1821.0,-0.0027
1820.0,-0.0027
1819.0,-0.0028
1818.0,-0.0028
1817.0,-0.0029
1816.0,-0.0029
1815.0,-0.003
1814.0,-0.003
1813.0,-0.003
1812.0,-0.0031
1811.0,-0.0032
1810.0,-0.0033
1809.0,-0.0035
1808.0,-0.0036
1807.0,-0.0037
1806.0,-0.0037
1805.0,-0.0037
1804.0,-0.0037
1803.0,-0.0037
1802.0,-0.0037
1801.0,-0.0039
1800.0,-0.004
1799.0,-0.0041
1798.0,-0.0042
1797.0,-0.0043
1796.0,-0.0044
1795.0,-0.0044
1794.0,-0.0044
1793.0,-0.0045
1792.0,-0.0046
1791.0,-0.0047
1790.0,-0.0047
1789.0,-0.0048
1788.0,-0.0048
1787.0,-0.0049
1786.0,-0.005
1785.0,-0.0051
1784.0,-0.0051
1783.0,-0.005
1782.0,-0.005
1781.0,-0.005
1780.0,-0.0051
1779.0,-0.0052
1778.0,-0.0052
1777.0,-0.0052
1776.0,-0.0052
1775.0,-0.0051
1774.0,-0.005
1773.0,-0.0051
1772.0,-0.0052
1771.0,-0.0052
1770.0,-0.0052
1769.0,-0.0052
1768.0,-0.0053
1767.0,-0.0051
1766.0,-0.0049
1765.0,-0.0048
1764.0,-0.0046
1763.0,-0.0044
1762.0,-0.0043
1761.0,-0.0041
1760.0,-0.0039
1759.0,-0.0035
1758.0,-0.003
1757.0,-0.0026
1756.0,-0.0021
1755.0,-0.0015
1754.0,-0.0009
1753.0,-0.0002
1752.0,0.0007
1751.0,0.0019
1750.0,0.0035
1749.0,0.005
1748.0,0.0068
1747.0,0.0088
1746.0,0.011
1745.0,0.0136
1744.0,0.0167
1743.0,0.0201
1742.0,0.0236
1741.0,0.0276
1740.0,0.0323
1739.0,0.0371
1738.0,0.041
1737.0,0.044
1736.0,0.0472
1735.0,0.0526
1734.0,0.0598
1733.0,0.0657
1732.0,0.0699
1731.0,0.074
1730.0,0.0785
1729.0,0.083
1728.0,0.0872
1727.0,0.091
1726.0,0.0948
1725.0,0.0988
1724.0,0.1028
1723.0,0.1067
1722.0,0.1101
1721.0,0.1126
1720.0,0.1148
1719.0,0.1175
1718.0,0.1212
1717.0,0.1245
1716.0,0.126
1715.0,0.1265
1714.0,0.1261
1713.0,0.1246
1712.0,0.1221
1711.0,0.1187
1710.0,0.1148
1709.0,0.1105
1708.0,0.1058
1707.0,0.1004
1706.0,0.0944
1705.0,0.0889
1704.0,0.0848
1703.0,0.0813
1702.0,0.0777
1701.0,0.0729
1700.0,0.0681
1699.0,0.0648
1698.0,0.0624
1697.0,0.0599
1696.0,0.0572
1695.0,0.0549
1694.0,0.0532
1693.0,0.0519
1692.0,0.0506
1691.0,0.0491
1690.0,0.0477
1689.0,0.0465
1688.0,0.0455
1687.0,0.0445
1686.0,0.0435
1685.0,0.0424
1684.0,0.0415
1683.0,0.0409
1682.0,0.0401
1681.0,0.0394
1680.0,0.0385
1679.0,0.0377
1678.0,0.0368
1677.0,0.036
1676.0,0.0352
1675.0,0.0344
1674.0,0.0337
1673.0,0.0331
1672.0,0.0325
1671.0,0.0317
1670.0,0.031
1669.0,0.0303
1668.0,0.0296
1667.0,0.029
1666.0,0.0284
1665.0,0.0278
1664.0,0.0271
1663.0,0.0264
1662.0,0.0258
1661.0,0.0252
1660.0,0.0247
1659.0,0.0242
1658.0,0.0237
1657.0,0.0233
1656.0,0.0229
1655.0,0.0224
1654.0,0.0218
1653.0,0.0216
1652.0,0.0215
1651.0,0.0214
1650.0,0.0213
1649.0,0.021
1648.0,0.0205
1647.0,0.02
1646.0,0.0196
1645.0,0.0193
1644.0,0.0191
1643.0,0.0189
1642.0,0.0186
1641.0,0.0185
1640.0,0.0183
1639.0,0.018
1638.0,0.0177
1637.0,0.0174
1636.0,0.0173
1635.0,0.0172
1634.0,0.017
1633.0,0.0168
1632.0,0.0166
1631.0,0.0164
1630.0,0.0163
1629.0,0.0161
1628.0,0.016
1627.0,0.0158
1626.0,0.0156
1625.0,0.0154
1624.0,0.0153
1623.0,0.0152
1622.0,0.0151
1621.0,0.015
1620.0,0.0149
1619.0,0.0148
1618.0,0.0149
1617.0,0.0153
1616.0,0.0157
1615.0,0.0159
1614.0,0.016
1613.0,0.0159
1612.0,0.0157
1611.0,0.0154
1610.0,0.0152
1609.0,0.0149
1608.0,0.0146
1607.0,0.0143
1606.0,0.0139
1605.0,0.0136
1604.0,0.0132
1603.0,0.0129
1602.0,0.0125
1601.0,0.0122
1600.0,0.0119
1599.0,0.0116
1598.0,0.0113
1597.0,0.0111
1596.0,0.011
1595.0,0.0108
1594.0,0.0107
1593.0,0.0106
1592.0,0.0105
1591.0,0.0104
1590.0,0.0104
1589.0,0.0104
1588.0,0.0104
1587.0,0.0104
1586.0,0.0105
1585.0,0.0109
1584.0,0.0114
1583.0,0.0121
1582.0,0.0129
1581.0,0.0137
1580.0,0.0144
1579.0,0.0149
1578.0,0.015
1577.0,0.0148
1576.0,0.0144
1575.0,0.014
1574.0,0.0136
1573.0,0.0132
1572.0,0.0127
1571.0,0.0122
1570.0,0.0116
1569.0,0.0111
1568.0,0.0107
1567.0,0.0103
1566.0,0.01
1565.0,0.0097
1564.0,0.0095
1563.0,0.0092
1562.0,0.009
1561.0,0.0089
1560.0,0.0087
1559.0,0.0086
1558.0,0.0087
1557.0,0.0085
1556.0,0.0083
1555.0,0.008
1554.0,0.0078
1553.0,0.0078
1552.0,0.0077
1551.0,0.0076
1550.0,0.0074
1549.0,0.0072
1548.0,0.007
1547.0,0.0069
1546.0,0.0069
1545.0,0.0069
1544.0,0.0068
1543.0,0.0066
1542.0,0.0065
1541.0,0.0064
1540.0,0.0064
1539.0,0.0062
1538.0,0.0061
1537.0,0.006
1536.0,0.006
1535.0,0.006
1534.0,0.0061
1533.0,0.0061
1532.0,0.0062
1531.0,0.0062
1530.0,0.0062
1529.0,0.0063
1528.0,0.0063
1527.0,0.0062
1526.0,0.0062
1525.0,0.0062
1524.0,0.0061
1523.0,0.006
1522.0,0.0058
1521.0,0.0057
1520.0,0.0056
1519.0,0.0055
1518.0,0.0054
1517.0,0.0052
1516.0,0.005
1515.0,0.0049
1514.0,0.0048
1513.0,0.005
1512.0,0.0053
1511.0,0.0059
1510.0,0.0067
1509.0,0.0078
1508.0,0.0101
1507.0,0.0138
1506.0,0.0163
1505.0,0.0167
1504.0,0.0159
1503.0,0.0147
1502.0,0.0131
1501.0,0.0114
1500.0,0.0097
1499.0,0.0082
1498.0,0.0068
1497.0,0.0057
1496.0,0.005
1495.0,0.0046
1494.0,0.0043
1493.0,0.0041
1492.0,0.0041
1491.0,0.0041
1490.0,0.0041
1489.0,0.0041
1488.0,0.0042
1487.0,0.0042
1486.0,0.0043
1485.0,0.0046
1484.0,0.0049
1483.0,0.0053
1482.0,0.0058
1481.0,0.0063
1480.0,0.0068
1479.0,0.0072
1478.0,0.0076
1477.0,0.008
1476.0,0.0084
1475.0,0.0086
1474.0,0.0087
1473.0,0.0088
1472.0,0.009
1471.0,0.009
1470.0,0.0089
1469.0,0.009
1468.0,0.0091
1467.0,0.0093
1466.0,0.0097
1465.0,0.0102
1464.0,0.0108
1463.0,0.0114
1462.0,0.012
1461.0,0.0126
1460.0,0.0132
1459.0,0.0137
1458.0,0.0143
1457.0,0.0151
1456.0,0.0157
1455.0,0.0159
1454.0,0.016
1453.0,0.0159
1452.0,0.0157
1451.0,0.0155
1450.0,0.0152
1449.0,0.0149
1448.0,0.0145
1447.0,0.0142
1446.0,0.0139
1445.0,0.0137
1444.0,0.0135
1443.0,0.0133
1442.0,0.0131
1441.0,0.013
1440.0,0.0127
1439.0,0.0124
1438.0,0.012
1437.0,0.0112
1436.0,0.0104
1435.0,0.0096
1434.0,0.0089
1433.0,0.0082
1432.0,0.0073
1431.0,0.0065
1430.0,0.0055
1429.0,0.0048
1428.0,0.0042
1427.0,0.0038
1426.0,0.0035
1425.0,0.0032
1424.0,0.0031
1423.0,0.0031
1422.0,0.0033
1421.0,0.0037
1420.0,0.0046
1419.0,0.0062
1418.0,0.0084
1417.0,0.0109
1416.0,0.0138
1415.0,0.0174
1414.0,0.0219
1413.0,0.0271
1412.0,0.0328
1411.0,0.038
1410.0,0.042
1409.0,0.0444
1408.0,0.045
1407.0,0.0439
1406.0,0.0413
1405.0,0.0377
1404.0,0.034
1403.0,0.0308
1402.0,0.0282
1401.0,0.0259
1400.0,0.0236
1399.0,0.0214
1398.0,0.0196
1397.0,0.0182
1396.0,0.0169
1395.0,0.0155
1394.0,0.0143
1393.0,0.0134
1392.0,0.0126
1391.0,0.012
1390.0,0.0114
1389.0,0.011
1388.0,0.0105
1387.0,0.0102
1386.0,0.01
1385.0,0.01
1384.0,0.0101
1383.0,0.0102
1382.0,0.0105
1381.0,0.0108
1380.0,0.0112
1379.0,0.0117
1378.0,0.0122
1377.0,0.0128
1376.0,0.0135
1375.0,0.0142
1374.0,0.0149
1373.0,0.0153
1372.0,0.0155
1371.0,0.0155
1370.0,0.0153
1369.0,0.0149
1368.0,0.0142
1367.0,0.0132
1366.0,0.0122
1365.0,0.0111
1364.0,0.0098
1363.0,0.0085
1362.0,0.0073
1361.0,0.0065
1360.0,0.0059
1359.0,0.0055
1358.0,0.0053
1357.0,0.0052
1356.0,0.0053
1355.0,0.0055
1354.0,0.0058
1353.0,0.0064
1352.0,0.0072
1351.0,0.0082
1350.0,0.0095
1349.0,0.0111
1348.0,0.0131
1347.0,0.0153
1346.0,0.0179
1345.0,0.0209
1344.0,0.0241
1343.0,0.0274
1342.0,0.0306
1341.0,0.0335
1340.0,0.036
1339.0,0.0372
1338.0,0.0368
1337.0,0.0348
1336.0,0.0317
1335.0,0.0279
1334.0,0.0236
1333.0,0.0195
1332.0,0.0158
1331.0,0.0128
1330.0,0.0105
1329.0,0.0089
1328.0,0.0079
1327.0,0.0074
1326.0,0.0072
1325.0,0.0073
1324.0,0.0076
1323.0,0.008
1322.0,0.0086
1321.0,0.0093
1320.0,0.01
1319.0,0.0107
1318.0,0.0114
1317.0,0.0121
1316.0,0.0129
1315.0,0.0137
1314.0,0.0146
1313.0,0.0156
1312.0,0.0167
1311.0,0.0178
1310.0,0.019
1309.0,0.0203
1308.0,0.0216
1307.0,0.0229
1306.0,0.0242
1305.0,0.0254
1304.0,0.0266
1303.0,0.028
1302.0,0.0297
1301.0,0.0317
1300.0,0.034
1299.0,0.0365
1298.0,0.0392
1297.0,0.0421
1296.0,0.045
1295.0,0.0478
1294.0,0.0506
1293.0,0.0533
1292.0,0.056
1291.0,0.0585
1290.0,0.0609
1289.0,0.0632
1288.0,0.0654
1287.0,0.0674
1286.0,0.0693
1285.0,0.071
1284.0,0.0726
1283.0,0.0741
1282.0,0.0754
1281.0,0.0768
1280.0,0.0782
1279.0,0.0796
1278.0,0.081
1277.0,0.0826
1276.0,0.0845
1275.0,0.0867
1274.0,0.0892
1273.0,0.0923
1272.0,0.096
1271.0,0.1
1270.0,0.1043
1269.0,0.1087
1268.0,0.1131
1267.0,0.1173
1266.0,0.1214
1265.0,0.1252
1264.0,0.1288
1263.0,0.1318
1262.0,0.1343
1261.0,0.1363
1260.0,0.1378
1259.0,0.1388
1258.0,0.1394
1257.0,0.1399
1256.0,0.1405
1255.0,0.1412
1254.0,0.1422
1253.0,0.1435
1252.0,0.1452
1251.0,0.1472
1250.0,0.1494
1249.0,0.152
1248.0,0.1547
1247.0,0.1573
1246.0,0.1599
1245.0,0.1625
1244.0,0.165
1243.0,0.1672
1242.0,0.1689
1241.0,0.1701
1240.0,0.1708
1239.0,0.1708
1238.0,0.17
1237.0,0.1686
1236.0,0.1666
1235.0,0.1639
1234.0,0.1607
1233.0,0.157
1232.0,0.153
1231.0,0.1487
1230.0,0.1442
1229.0,0.1397
1228.0,0.1353
1227.0,0.1309
1226.0,0.1264
1225.0,0.1221
1224.0,0.1179
1223.0,0.1137
1222.0,0.1096
1221.0,0.1057
1220.0,0.1019
1219.0,0.0982
1218.0,0.0946
1217.0,0.0912
1216.0,0.088
1215.0,0.085
1214.0,0.0822
1213.0,0.0795
1212.0,0.0769
1211.0,0.0745
1210.0,0.0722
1209.0,0.0701
1208.0,0.068
1207.0,0.0661
1206.0,0.0642
1205.0,0.0624
1204.0,0.0607
1203.0,0.059
1202.0,0.0573
1201.0,0.0557
1200.0,0.0542
1199.0,0.0526
1198.0,0.0511
1197.0,0.0497
1196.0,0.0483
1195.0,0.0469
1194.0,0.0456
1193.0,0.0443
1192.0,0.043
1191.0,0.0418
1190.0,0.0406
1189.0,0.0395
1188.0,0.0385
1187.0,0.0377
1186.0,0.037
1185.0,0.0365
1184.0,0.0362
1183.0,0.036
1182.0,0.036
1181.0,0.0362
1180.0,0.0366
1179.0,0.0371
1178.0,0.0376
1177.0,0.0379
1176.0,0.0382
1175.0,0.0384
1174.0,0.0382
1173.0,0.0378
1172.0,0.037
1171.0,0.0359
1170.0,0.0346
1169.0,0.0331
1168.0,0.0316
1167.0,0.0303
1166.0,0.0291
1165.0,0.0281
1164.0,0.0273
1163.0,0.0267
1162.0,0.0262
1161.0,0.0259
1160.0,0.0256
1159.0,0.0254
1158.0,0.0253
1157.0,0.0252
1156.0,0.0254
1155.0,0.0256
1154.0,0.0261
1153.0,0.0267
1152.0,0.0275
1151.0,0.0285
1150.0,0.0296
1149.0,0.031
1148.0,0.0324
1147.0,0.0341
1146.0,0.0358
1145.0,0.0376
1144.0,0.0395
1143.0,0.0416
1142.0,0.0437
1141.0,0.0458
1140.0,0.048
1139.0,0.0503
1138.0,0.0525
1137.0,0.0548
1136.0,0.0572
1135.0,0.0596
1134.0,0.0622
1133.0,0.0649
1132.0,0.0678
1131.0,0.0709
1130.0,0.0742
1129.0,0.0778
1128.0,0.0816
1127.0,0.0855
1126.0,0.0896
1125.0,0.0938
1124.0,0.0982
1123.0,0.1024
1122.0,0.1062
1121.0,0.1097
1120.0,0.1129
1119.0,0.1154
1118.0,0.1172
1117.0,0.1182
1116.0,0.1184
1115.0,0.1177
1114.0,0.1165
1113.0,0.1152
1112.0,0.1145
1111.0,0.1146
1110.0,0.1159
1109.0,0.1187
1108.0,0.1227
1107.0,0.1276
1106.0,0.1331
1105.0,0.1387
1104.0,0.1444
1103.0,0.1499
1102.0,0.155
1101.0,0.1597
1100.0,0.1639
1099.0,0.1675
1098.0,0.1704
1097.0,0.1728
1096.0,0.1747
1095.0,0.1758
1094.0,0.1762
1093.0,0.176
1092.0,0.1752
1091.0,0.1739
1090.0,0.172
1089.0,0.17
1088.0,0.1678
1087.0,0.1654
1086.0,0.1629
1085.0,0.1603
1084.0,0.1577
1083.0,0.1549
1082.0,0.1518
1081.0,0.1484
1080.0,0.1448
1079.0,0.1407
1078.0,0.1363
1077.0,0.1318
1076.0,0.1273
1075.0,0.1227
1074.0,0.1181
1073.0,0.1138
1072.0,0.1098
1071.0,0.106
1070.0,0.1025
1069.0,0.0992
1068.0,0.0961
1067.0,0.0932
1066.0,0.0903
1065.0,0.0878
1064.0,0.0854
1063.0,0.0832
1062.0,0.0812
1061.0,0.0793
1060.0,0.0777
1059.0,0.0762
1058.0,0.075
1057.0,0.0741
1056.0,0.0734
1055.0,0.0729
1054.0,0.0726
1053.0,0.0725
1052.0,0.0727
1051.0,0.073
1050.0,0.0733
1049.0,0.0738
1048.0,0.0743
1047.0,0.0748
1046.0,0.0753
1045.0,0.0757
1044.0,0.076
1043.0,0.076
1042.0,0.0758
1041.0,0.0755
1040.0,0.0749
1039.0,0.0741
1038.0,0.0732
1037.0,0.0721
1036.0,0.0709
1035.0,0.0697
1034.0,0.0685
1033.0,0.0674
1032.0,0.0663
1031.0,0.0651
1030.0,0.0639
1029.0,0.063
1028.0,0.0624
1027.0,0.0624
1026.0,0.0636
1025.0,0.0662
1024.0,0.0707
1023.0,0.0771
1022.0,0.0855
1021.0,0.0955
1020.0,0.1064
1019.0,0.1167
1018.0,0.125
1017.0,0.1297
1016.0,0.1301
1015.0,0.1263
1014.0,0.1195
1013.0,0.1115
1012.0,0.1036
1011.0,0.0965
1010.0,0.0906
1009.0,0.0856
1008.0,0.0816
1007.0,0.0782
1006.0,0.0754
1005.0,0.0731
1004.0,0.0712
1003.0,0.0696
1002.0,0.0681
1001.0,0.0668
1000.0,0.0657
999.0,0.0646
998.0,0.0635
997.0,0.0625
996.0,0.0616
995.0,0.0608
994.0,0.0601
993.0,0.0594
992.0,0.0588
991.0,0.0583
990.0,0.0578
989.0,0.0574
988.0,0.0572
987.0,0.057
986.0,0.057
985.0,0.0571
984.0,0.0572
983.0,0.0575
982.0,0.058
981.0,0.0586
980.0,0.0593
979.0,0.06
978.0,0.0607
977.0,0.0615
976.0,0.0622
975.0,0.0628
974.0,0.0633
973.0,0.0637
972.0,0.0639
971.0,0.0639
970.0,0.0636
969.0,0.0631
968.0,0.0626
967.0,0.0618
966.0,0.061
965.0,0.0602
964.0,0.0592
963.0,0.0582
962.0,0.0572
961.0,0.0563
960.0,0.0554
959.0,0.0545
958.0,0.0536
957.0,0.0528
956.0,0.0519
955.0,0.0512
954.0,0.0506
953.0,0.0499
952.0,0.0494
951.0,0.0488
950.0,0.0483
949.0,0.0479
948.0,0.0475
947.0,0.0471
946.0,0.0467
945.0,0.0462
944.0,0.0458
943.0,0.0453
942.0,0.045
941.0,0.0447
940.0,0.0445
939.0,0.0443
938.0,0.0441
937.0,0.0439
936.0,0.0436
935.0,0.0433
934.0,0.043
933.0,0.0428
932.0,0.0425
931.0,0.0422
930.0,0.042
929.0,0.0418
928.0,0.0416
927.0,0.0412
926.0,0.0408
925.0,0.0404
924.0,0.0401
923.0,0.0399
922.0,0.0397
921.0,0.0395
920.0,0.0393
919.0,0.0391
918.0,0.0389
917.0,0.0387
916.0,0.0385
915.0,0.0383
914.0,0.0382
913.0,0.0382
912.0,0.0384
911.0,0.0387
910.0,0.0392
909.0,0.0397
908.0,0.0404
907.0,0.0411
906.0,0.0418
905.0,0.0427
904.0,0.0434
903.0,0.0441
902.0,0.0447
901.0,0.0453
900.0,0.0459
899.0,0.0464
898.0,0.0468
897.0,0.047
896.0,0.047
895.0,0.0469
894.0,0.0467
893.0,0.0465
892.0,0.0463
891.0,0.0462
890.0,0.046
889.0,0.046
888.0,0.0462
887.0,0.0467
886.0,0.0474
885.0,0.0484
884.0,0.0499
883.0,0.0517
882.0,0.054
881.0,0.0569
880.0,0.0603
879.0,0.0643
878.0,0.0685
877.0,0.073
876.0,0.0775
875.0,0.0817
874.0,0.0851
873.0,0.0871
872.0,0.0872
871.0,0.0853
870.0,0.0821
869.0,0.0782
868.0,0.0743
867.0,0.0708
866.0,0.0678
865.0,0.0654
864.0,0.0635
863.0,0.062
862.0,0.0608
861.0,0.0599
860.0,0.0593
859.0,0.0587
858.0,0.0582
857.0,0.0579
856.0,0.0578
855.0,0.0579
854.0,0.058
853.0,0.0581
852.0,0.0583
851.0,0.0585
850.0,0.0588
849.0,0.0592
848.0,0.0595
847.0,0.0597
846.0,0.0597
845.0,0.0597
844.0,0.0597
843.0,0.0595
842.0,0.0593
841.0,0.0589
840.0,0.0585
839.0,0.058
838.0,0.0575
837.0,0.0569
836.0,0.0563
835.0,0.0556
834.0,0.0547
833.0,0.0539
832.0,0.0531
831.0,0.0523
830.0,0.0515
829.0,0.0508
828.0,0.0502
827.0,0.0496
826.0,0.049
825.0,0.0485
824.0,0.0481
823.0,0.0477
822.0,0.0473
821.0,0.0469
820.0,0.0466
819.0,0.0464
818.0,0.0461
817.0,0.046
816.0,0.0459
815.0,0.0458
814.0,0.0457
813.0,0.0456
812.0,0.0455
811.0,0.0452
810.0,0.0449
809.0,0.0446
808.0,0.0445
807.0,0.0443
806.0,0.044
805.0,0.0438
804.0,0.0435
803.0,0.0431
802.0,0.0426
801.0,0.042
800.0,0.0417
799.0,0.042
798.0,0.043
797.0,0.0447
796.0,0.047
795.0,0.049
794.0,0.0504
793.0,0.0509
792.0,0.0505
791.0,0.0495
790.0,0.0481
789.0,0.0466
788.0,0.0452
787.0,0.0437
786.0,0.0423
785.0,0.0411
784.0,0.0401
783.0,0.0393
782.0,0.0385
781.0,0.0378
780.0,0.0371
779.0,0.0363
778.0,0.0355
777.0,0.0348
776.0,0.0341
775.0,0.0335
774.0,0.0329
773.0,0.0323
772.0,0.0317
771.0,0.031
770.0,0.0302
769.0,0.0295
768.0,0.0288
767.0,0.0281
766.0,0.0273
765.0,0.0265
764.0,0.0258
763.0,0.0251
762.0,0.0243
761.0,0.0237
760.0,0.023
759.0,0.0223
758.0,0.0216
757.0,0.021
756.0,0.0204
755.0,0.0197
754.0,0.0189
753.0,0.0181
752.0,0.0175
751.0,0.017
750.0,0.0166
749.0,0.0165
748.0,0.0165
747.0,0.0166
746.0,0.017
745.0,0.0177
744.0,0.0189
743.0,0.0209
742.0,0.0241
741.0,0.0291
740.0,0.0361
739.0,0.0451
738.0,0.0557
737.0,0.0677
736.0,0.0807
735.0,0.0945
734.0,0.1088
733.0,0.1239
732.0,0.14
731.0,0.157
730.0,0.175
729.0,0.1942
728.0,0.2141
727.0,0.2331
726.0,0.2491
725.0,0.26
724.0,0.2641
723.0,0.2608
722.0,0.251
721.0,0.2366
720.0,0.22
719.0,0.2034
718.0,0.1883
717.0,0.1749
716.0,0.1631
715.0,0.153
714.0,0.1448
713.0,0.1383
712.0,0.133
711.0,0.1284
710.0,0.1241
709.0,0.1202
708.0,0.1167
707.0,0.1135
706.0,0.1106
705.0,0.108
704.0,0.1054
703.0,0.1026
702.0,0.0994
701.0,0.0958
700.0,0.0922
699.0,0.0889
698.0,0.0862
697.0,0.0838
696.0,0.0816
695.0,0.0791
694.0,0.0769
693.0,0.0752
692.0,0.0742
691.0,0.0735
690.0,0.0725
689.0,0.0712
688.0,0.0698
687.0,0.0686
686.0,0.0678
685.0,0.0674
684.0,0.0675
683.0,0.0682
682.0,0.0692
681.0,0.07
680.0,0.0698
679.0,0.0684
678.0,0.0665
677.0,0.065
676.0,0.0643
675.0,0.064
674.0,0.0638
673.0,0.0635
672.0,0.0632
671.0,0.0633
670.0,0.0635
669.0,0.0637
668.0,0.064
667.0,0.0635
666.0,0.062
665.0,0.0605
664.0,0.0595
663.0,0.0587
662.0,0.0578
661.0,0.057
660.0,0.0564
659.0,0.0558
658.0,0.0553
657.0,0.0551
656.0,0.0548
655.0,0.0544
654.0,0.0539
653.0,0.0535
652.0,0.0531
651.0,0.0528
650.0,0.0526
649.0,0.0529
648.0,0.0535
647.0,0.0539
646.0,0.0541
645.0,0.0539
644.0,0.0537
643.0,0.0534
642.0,0.0534
641.0,0.0537
640.0,0.0539
639.0,0.0536
638.0,0.0529
637.0,0.0526
636.0,0.053
635.0,0.0542
634.0,0.0562
633.0,0.0582
632.0,0.0591
631.0,0.058
630.0,0.0559
629.0,0.0541
628.0,0.0533
627.0,0.0533
626.0,0.0535
625.0,0.0537
624.0,0.0537
623.0,0.0533
622.0,0.0527
621.0,0.052
620.0,0.0512
619.0,0.0503
618.0,0.0494
617.0,0.0491
616.0,0.0493
615.0,0.0495
614.0,0.0499
613.0,0.0504
612.0,0.0512
611.0,0.0518
610.0,0.0522
609.0,0.0524
608.0,0.0523
607.0,0.0516
606.0,0.0503
605.0,0.049
604.0,0.0483
603.0,0.0488
602.0,0.0505
601.0,0.0526
600.0,0.0539
