nm,Intensity
526.495,829.8
526.632,829.6
526.768,830.1
526.905,829.9
527.042,829.6
527.179,829.1
527.315,829.6
527.452,829.0
527.589,829.4
527.725,829.2
527.862,829.8
527.999,828.4
528.136,829.1
528.272,829.7
528.409,828.8
528.546,829.1
528.682,829.5
528.819,828.0
528.955,828.4
529.092,831.0
529.229,829.0
529.365,829.6
529.502,829.7
529.639,829.4
529.775,828.3
529.912,828.8
530.048,829.3
530.185,828.9
530.321,828.9
530.458,828.3
530.594,829.3
530.731,828.7
530.867,828.3
531.004,828.5
531.14,828.8
531.277,830.9
531.413,829.7
531.55,831.2
531.686,829.8
531.823,829.6
531.959,831.4
532.096,848.6
532.232,859.3
532.369,834.5
532.505,829.6
532.641,828.5
532.778,828.9
532.914,829.1
533.051,829.5
533.187,827.8
533.323,828.6
533.46,830.6
533.596,830.0
533.732,833.0
533.869,850.1
534.005,873.3
534.141,881.2
534.278,875.5
534.414,876.4
534.55,875.6
534.687,880.8
534.823,889.5
534.959,899.2
535.095,911.0
535.232,913.9
535.368,903.0
535.504,875.7
535.64,866.2
535.777,858.2
535.913,853.4
536.049,849.2
536.185,846.4
536.321,848.0
536.457,850.4
536.594,849.9
536.73,852.8
536.866,858.2
537.002,869.8
537.138,873.9
537.274,870.7
537.41,863.1
537.547,857.1
537.683,847.6
537.819,848.9
537.955,845.9
538.091,845.1
538.227,844.5
538.363,843.6
538.499,844.5
538.635,843.9
538.771,842.3
538.907,843.7
539.043,844.3
539.179,845.0
539.315,848.7
539.451,849.6
539.587,848.5
539.723,844.7
539.859,843.6
539.995,841.1
540.131,840.7
540.267,840.0
540.403,838.3
540.539,837.6
540.675,838.3
540.811,840.5
540.947,838.7
541.083,841.0
541.219,845.6
541.354,850.2
541.49,851.5
541.626,845.9
541.762,841.8
541.898,840.4
542.034,838.6
542.17,838.7
542.305,837.4
542.441,837.7
542.577,838.0
542.713,836.7
542.849,835.8
542.984,838.2
543.12,839.8
543.256,842.7
543.392,848.8
543.528,868.6
543.663,900.7
543.799,897.2
543.935,868.8
544.071,853.8
544.206,846.6
544.342,843.2
544.478,841.4
544.613,840.7
544.749,841.3
544.885,841.3
545.02,842.5
545.156,847.0
545.292,852.6
545.427,855.4
545.563,853.1
545.699,847.3
545.834,841.1
545.97,838.7
546.106,838.2
546.241,837.3
546.377,838.8
546.512,836.6
546.648,836.5
546.784,838.6
546.919,837.8
547.055,840.2
547.19,839.8
547.326,845.3
547.461,850.1
547.597,852.8
547.732,851.3
547.868,845.5
548.003,840.8
548.139,837.6
548.274,838.3
548.41,836.7
548.545,837.7
548.681,836.1
548.816,835.7
548.952,836.0
549.087,836.2
549.223,835.7
549.358,834.7
549.494,835.5
549.629,834.5
549.764,833.3
549.9,834.5
550.035,833.9
550.171,835.1
550.306,832.6
550.441,833.7
550.577,833.1
550.712,833.8
550.847,832.9
550.983,833.1
551.118,834.4
551.253,835.3
551.389,833.4
551.524,832.7
551.659,832.5
551.795,833.0
551.93,834.6
552.065,834.3
552.201,832.9
552.336,834.4
552.471,834.9
552.606,836.2
552.742,834.7
552.877,834.6
553.012,834.3
553.147,834.9
553.283,834.3
553.418,836.6
553.553,835.4
553.688,832.0
553.823,834.6
553.959,835.1
554.094,834.3
554.229,835.1
554.364,835.8
554.499,835.8
554.634,837.0
554.769,837.0
554.905,838.7
555.04,836.7
555.175,839.1
555.31,837.7
555.445,841.3
555.58,844.3
555.715,849.9
555.85,864.3
555.985,898.7
556.121,940.9
556.256,910.2
556.391,870.2
556.526,859.7
556.661,860.4
556.796,869.1
556.931,888.2
557.066,932.4
557.201,940.7
557.336,887.1
557.471,858.7
557.606,853.2
557.741,846.3
557.876,845.3
558.011,843.3
558.146,841.4
558.281,842.1
558.416,839.8
558.551,840.0
558.685,843.4
558.82,848.6
558.955,854.9
559.09,849.1
559.225,842.7
559.36,838.5
559.495,839.8
559.63,838.5
559.765,841.1
559.9,840.6
560.034,849.3
560.169,855.6
560.304,856.7
560.439,849.1
560.574,846.6
560.709,843.0
560.843,844.9
560.978,850.5
561.113,864.2
561.248,886.5
561.383,872.4
561.517,851.7
561.652,846.7
561.787,849.6
561.922,866.0
562.057,884.7
562.191,869.9
562.326,852.0
562.461,849.2
562.596,846.0
562.73,845.0
562.865,848.1
563.0,851.5
563.134,863.0
563.269,868.9
563.404,866.8
563.539,863.2
563.673,854.2
563.808,845.2
563.943,844.4
564.077,840.5
564.212,841.9
564.346,840.9
564.481,840.5
564.616,841.5
564.75,841.4
564.885,842.8
565.02,844.5
565.154,843.0
565.289,849.5
565.423,851.5
565.558,844.8
565.693,841.4
565.827,842.8
565.962,841.7
566.096,841.8
566.231,840.6
566.365,843.8
566.5,850.4
566.634,859.0
566.769,886.1
566.903,921.5
567.038,922.6
567.172,898.7
567.307,888.6
567.441,889.5
567.576,877.8
567.71,859.7
567.845,845.6
567.979,845.1
568.114,841.8
568.248,843.8
568.383,842.4
568.517,844.8
568.652,846.1
568.786,853.2
568.92,860.4
569.055,870.6
569.189,879.1
569.324,863.7
569.458,851.0
569.592,846.0
569.727,845.9
569.861,844.0
569.996,844.1
570.13,845.8
570.264,847.9
570.399,846.0
570.533,845.3
570.667,844.3
570.802,843.0
570.936,843.9
571.07,845.2
571.205,847.5
571.339,847.2
571.473,852.2
571.607,856.9
571.742,853.5
571.876,853.8
572.01,852.7
572.144,853.6
572.279,858.4
572.413,874.0
572.547,903.5
572.681,946.5
572.816,939.8
572.95,893.5
573.084,869.4
573.218,858.9
573.353,856.3
573.487,867.0
573.621,882.0
573.755,893.5
573.889,874.9
574.023,863.3
574.158,862.6
574.292,857.3
574.426,849.8
574.56,846.8
574.694,841.7
574.828,842.4
574.963,840.2
575.097,842.1
575.231,838.7
575.365,841.7
575.499,840.1
575.633,841.0
575.767,842.9
575.901,846.5
576.035,859.0
576.169,886.3
576.303,893.6
576.438,880.2
576.572,886.9
576.706,911.7
576.84,947.8
576.974,981.4
577.108,970.7
577.242,921.0
577.376,882.1
577.51,862.3
577.644,851.3
577.778,844.0
577.912,844.6
578.046,842.1
578.18,842.1
578.314,839.3
578.448,839.9
578.582,838.0
578.716,841.4
578.85,839.3
578.984,838.1
579.117,841.2
579.251,839.8
579.385,841.1
579.519,839.4
579.653,837.7
579.787,839.9
579.921,840.1
580.055,838.0
580.189,838.7
580.323,839.6
580.456,839.3
580.59,839.7
580.724,841.5
580.858,839.0
580.992,837.8
581.126,839.5
581.26,838.2
581.393,838.8
581.527,839.4
581.661,838.6
581.795,837.4
581.929,839.3
582.063,839.3
582.196,838.8
582.33,841.7
582.464,841.2
582.598,840.2
582.731,840.5
582.865,842.3
582.999,841.8
583.133,840.0
583.267,840.5
583.4,838.8
583.534,840.1
583.668,840.3
583.801,840.5
583.935,840.3
584.069,838.2
584.203,840.5
584.336,840.6
584.47,840.7
584.604,841.1
584.737,840.8
584.871,839.8
585.005,841.4
585.138,842.3
585.272,840.4
585.406,842.3
585.539,840.3
585.673,839.8
585.807,840.8
585.94,841.7
586.074,839.8
586.208,838.8
586.341,839.7
586.475,839.2
586.608,839.8
586.742,838.6
586.876,840.2
587.009,839.6
587.143,841.8
587.276,836.9
587.41,840.0
587.543,839.3
587.677,838.0
587.811,840.0
587.944,839.5
588.078,840.8
588.211,839.5
588.345,839.3
588.478,839.6
588.612,838.8
588.745,839.6
588.879,838.9
589.012,836.8
589.146,836.8
589.279,837.8
589.413,838.4
589.546,838.9
589.68,839.0
589.813,838.4
589.947,839.2
590.08,838.3
590.214,836.3
590.347,838.3
590.48,839.1
590.614,837.9
590.747,838.7
590.881,838.5
591.014,838.1
591.148,837.7
591.281,839.3
591.414,839.0
591.548,839.1
591.681,838.4
591.815,840.3
591.948,840.1
592.081,839.6
592.215,837.0
592.348,838.9
592.481,837.5
592.615,838.7
592.748,838.8
592.881,836.6
593.015,838.7
593.148,838.7
593.281,839.3
593.415,837.7
593.548,839.2
593.681,837.6
593.815,838.5
593.948,836.3
594.081,838.5
594.215,839.1
594.348,838.2
594.481,839.1
594.614,838.2
594.748,836.6
594.881,837.6
595.014,838.5
595.147,839.9
595.281,839.7
595.414,837.0
595.547,837.2
595.68,839.1
595.814,838.5
595.947,839.9
596.08,840.7
596.213,839.0
596.347,838.9
596.48,838.1
596.613,839.6
596.746,838.3
596.879,838.4
597.012,836.1
597.146,840.2
597.279,839.9
597.412,837.3
597.545,836.5
597.678,838.2
597.811,838.6
597.945,838.9
598.078,837.9
598.211,838.9
598.344,839.1
598.477,837.7
598.61,838.1
598.743,837.8
598.876,840.9
599.009,839.1
599.143,840.0
599.276,840.9
599.409,839.4
599.542,839.5
599.675,837.2
599.808,838.4
599.941,840.6
600.074,839.3
600.207,838.0
600.34,838.0
600.473,839.1
600.606,837.3
600.739,838.2
600.872,838.8
601.005,838.7
601.138,839.3
601.271,838.7
601.404,839.3
601.537,840.1
601.67,839.6
601.803,839.0
601.936,838.4
602.069,839.3
602.202,838.8
602.335,838.9
602.468,838.5
602.601,837.1
602.734,839.1
602.867,839.7
603.0,840.2
603.133,837.6
603.266,838.6
603.399,839.8
603.532,838.5
603.665,838.7
603.798,841.1
603.931,840.4
604.064,839.7
604.196,840.3
604.329,839.5
604.462,841.0
604.595,840.1
604.728,840.3
604.861,840.6
604.994,840.7
605.127,840.7
605.259,839.6
605.392,842.8
605.525,840.2
605.658,840.3
605.791,838.6
605.924,841.3
606.057,840.0
606.189,840.8
606.322,841.3
606.455,840.8
606.588,840.9
606.721,840.9
606.853,843.0
606.986,841.0
607.119,842.3
607.252,839.4
607.385,842.5
607.517,841.8
607.65,840.4
607.783,839.6
607.916,840.3
608.049,841.7
608.181,840.9
608.314,840.5
608.447,838.8
608.58,841.1
608.712,841.4
608.845,840.3
608.978,838.9
609.111,840.4
609.243,841.1
609.376,841.1
609.509,841.7
609.641,839.1
609.774,840.3
609.907,840.5
610.039,839.7
610.172,839.8
610.305,840.2
610.438,840.2
610.57,839.4
610.703,840.1
610.836,840.3
610.968,839.8
611.101,839.1
611.234,840.3
611.366,841.6
611.499,840.5
611.631,840.9
611.764,839.2
611.897,840.7
612.029,840.3
612.162,840.4
612.295,840.9
612.427,840.2
612.56,839.0
612.692,838.9
612.825,840.0
612.958,838.8
613.09,839.8
613.223,837.0
613.355,839.1
613.488,840.2
613.621,838.0
613.753,840.6
613.886,838.1
614.018,841.6
614.151,841.0
614.283,840.5
614.416,842.4
614.548,839.4
614.681,840.0
614.814,842.6
614.946,839.9
615.079,842.1
615.211,841.4
615.344,842.4
615.476,841.2
615.609,840.2
615.741,841.3
615.874,839.8
616.006,841.5
616.139,840.2
616.271,842.3
616.404,841.1
616.536,843.2
616.669,843.3
616.801,844.5
616.933,846.1
617.066,843.5
617.198,842.5
617.331,845.1
617.463,845.0
617.596,845.3
617.728,846.4
617.861,848.0
617.993,844.2
618.125,845.4
618.258,847.7
618.39,845.2
618.523,844.2
618.655,845.3
618.788,846.5
618.92,844.3
619.052,844.7
619.185,847.8
619.317,849.2
619.45,851.9
619.582,855.7
619.714,856.4
619.847,855.9
619.979,851.5
620.111,853.9
620.244,852.2
620.376,851.6
620.509,851.1
620.641,850.6
620.773,853.9
620.906,851.7
621.038,853.5
621.17,852.8
621.303,853.3
621.435,855.7
621.567,858.8
621.7,866.6
621.832,871.4
621.964,871.9
622.096,876.8
622.229,884.7
622.361,891.0
622.493,888.1
622.626,878.0
622.758,876.5
622.89,868.6
623.022,866.0
623.155,861.8
623.287,859.9
623.419,858.3
623.552,855.0
623.684,853.1
623.816,853.7
623.948,854.1
624.081,849.1
624.213,849.8
624.345,847.0
624.477,849.7
624.61,846.1
624.742,848.9
624.874,848.5
625.006,852.6
625.138,851.8
625.271,851.9
625.403,853.0
625.535,855.8
625.667,856.2
625.799,860.5
625.932,862.3
626.064,866.7
626.196,872.7
626.328,883.3
626.46,899.7
626.593,938.5
626.725,1019.2
626.857,1110.9
626.989,1154.7
627.121,1115.5
627.253,1029.6
627.386,984.1
627.518,960.1
627.65,979.6
627.782,1056.3
627.914,1182.2
628.046,1289.5
628.178,1302.7
628.311,1300.2
628.443,1368.6
628.575,1469.6
628.707,1515.8
628.839,1487.2
628.971,1410.6
629.103,1337.6
629.235,1320.9
629.367,1338.6
629.5,1367.9
629.632,1328.8
629.764,1257.9
629.896,1194.8
630.028,1175.9
630.16,1194.1
630.292,1207.8
630.424,1189.7
630.556,1133.1
630.688,1075.7
630.82,1022.5
630.952,1007.0
631.084,1027.6
631.216,1097.4
631.349,1175.3
631.481,1192.0
631.613,1165.4
631.745,1137.1
631.877,1111.2
632.009,1062.8
632.141,1020.0
632.273,968.6
632.405,932.7
632.537,906.5
632.669,888.7
632.801,878.0
632.933,873.5
633.065,863.9
633.197,861.6
633.329,859.9
633.461,857.7
633.593,853.7
633.725,851.7
633.857,852.2
633.989,850.3
634.121,850.5
634.253,848.3
634.385,848.3
634.517,844.4
634.649,845.7
634.781,845.4
634.912,843.8
635.044,844.3
635.176,843.9
635.308,844.9
635.44,844.9
635.572,843.1
635.704,843.5
635.836,844.2
635.968,843.2
636.1,845.6
636.232,841.6
636.364,840.8
636.496,840.9
636.628,841.8
636.76,842.0
636.891,841.5
637.023,842.4
637.155,840.9
637.287,844.9
637.419,841.9
637.551,842.6
637.683,841.8
637.815,841.7
637.947,842.2
638.078,842.9
638.21,842.1
638.342,839.9
638.474,842.9
638.606,840.6
638.738,843.1
638.87,843.0
639.002,840.6
639.133,842.5
639.265,842.2
639.397,843.2
639.529,842.0
639.661,842.4
639.793,842.2
639.924,841.5
640.056,842.9
640.188,842.4
640.32,842.1
640.452,843.0
640.584,843.2
640.715,842.4
640.847,841.7
640.979,842.8
641.111,842.7
641.243,842.0
641.374,843.6
641.506,841.1
641.638,840.6
641.77,841.9
641.902,843.1
642.033,842.8
642.165,841.4
642.297,841.8
642.429,838.7
642.561,841.3
642.692,839.3
642.824,839.6
642.956,840.8
643.088,838.7
643.219,840.9
643.351,837.1
643.483,837.9
643.615,837.9
643.746,838.4
643.878,838.6
644.01,839.1
644.142,838.6
644.273,840.0
644.405,836.9
644.537,838.0
644.669,838.1
644.8,837.9
644.932,838.1
645.064,837.6
645.195,836.7
645.327,839.2
645.459,839.7
645.591,839.2
645.722,836.4
645.854,838.1
645.986,838.1
646.117,838.9
646.249,837.3
646.381,838.5
646.512,837.8
646.644,839.9
646.776,837.3
646.908,838.0
647.039,836.8
647.171,837.9
647.303,837.2
647.434,836.5
647.566,839.7
647.698,836.9
647.829,839.1
647.961,839.2
648.093,839.2
648.224,837.7
648.356,837.7
648.488,837.5
648.619,837.1
648.751,838.3
648.883,836.7
649.014,839.0
649.146,837.2
649.277,836.6
649.409,836.3
649.541,837.9
649.672,836.9
649.804,837.2
649.936,837.8
650.067,837.8
650.199,839.1
650.33,838.4
650.462,836.9
650.594,835.7
650.725,839.2
650.857,837.7
650.988,836.8
651.12,840.0
651.252,836.5
651.383,838.4
651.515,837.9
651.646,838.3
651.778,837.1
651.91,835.7
652.041,836.8
652.173,836.4
652.304,837.0
652.436,836.7
652.568,837.0
652.699,835.7
652.831,837.3
652.962,837.6
653.094,836.0
653.225,837.5
653.357,837.9
653.489,837.7
653.62,836.9
653.752,837.3
653.883,835.6
654.015,837.5
654.146,836.4
654.278,837.0
654.409,837.1
654.541,838.5
654.672,836.5
654.804,835.5
654.935,837.4
655.067,836.4
655.199,835.4
655.33,836.3
655.462,835.4
655.593,836.4
655.725,836.6
655.856,836.8
655.988,835.7
656.119,836.5
656.251,836.4
656.382,834.6
656.514,835.5
656.645,835.7
656.777,838.6
656.908,835.8
657.04,836.0
657.171,836.2
657.303,836.2
657.434,834.8
657.566,836.3
657.697,836.0
657.829,836.6
657.96,835.3
658.092,838.4
658.223,837.1
658.355,836.3
658.486,834.7
658.617,835.5
658.749,836.2
658.88,834.5
659.012,833.6
659.143,834.1
659.275,835.6
659.406,834.9
659.538,836.6
659.669,836.3
659.801,836.1
659.932,836.2
660.064,835.1
660.195,836.8
660.326,836.2
660.458,835.8
660.589,836.2
660.721,835.2
660.852,836.4
660.984,836.0
661.115,834.9
661.246,835.8
661.378,835.8
661.509,835.1
661.641,835.3
661.772,833.7
661.904,837.7
662.035,834.4
662.166,835.5
662.298,834.7
662.429,835.8
662.561,834.7
662.692,836.3
662.823,835.0
662.955,835.0
663.086,834.8
