nm,Intensity
791.588,5068.7
791.862,5034.9
792.136,5004.1
792.411,4934.3
792.685,4900.2
792.959,4850.6
793.233,4822.6
793.507,4800.6
793.781,4803.8
794.056,4829.3
794.33,4801.3
794.604,4775.3
794.878,4793.2
795.152,4833.7
795.426,4844.1
795.701,4847.5
795.975,4836.7
796.249,4835.1
796.523,4836.8
796.797,4802.2
797.071,4789.0
797.345,4778.8
797.619,4769.1
797.894,4766.4
798.168,4752.6
798.442,4762.0
798.716,4740.4
798.99,4744.3
799.264,4749.3
799.538,4732.8
799.812,4770.3
800.086,4747.0
800.36,4766.4
800.634,4758.1
800.908,4731.3
801.182,4748.2
801.456,4733.7
801.73,4725.7
802.004,4714.2
802.278,4688.9
802.552,4692.7
802.826,4687.5
803.1,4667.2
803.374,4666.2
803.648,4683.6
803.922,4662.7
804.196,4675.0
804.47,4651.7
804.744,4662.1
805.018,4667.6
805.292,4680.8
805.566,4691.0
805.84,4670.6
806.114,4634.3
806.388,4627.9
806.662,4621.8
806.936,4624.4
807.209,4606.3
807.483,4612.2
807.757,4625.5
808.031,4604.3
808.305,4617.1
808.579,4627.2
808.853,4592.5
809.127,4610.3
809.4,4632.6
809.674,4660.4
809.948,4679.4
810.222,4744.5
810.496,4801.5
810.77,4733.6
811.043,4673.9
811.317,4635.1
811.591,4606.2
811.865,4613.0
812.139,4624.5
812.412,4615.0
812.686,4604.4
812.96,4599.5
813.234,4609.8
813.507,4640.1
813.781,4638.8
814.055,4623.9
814.329,4626.5
814.602,4613.7
814.876,4580.6
815.15,4548.7
815.424,4549.8
815.697,4540.9
815.971,4519.5
816.245,4523.3
816.518,4527.2
816.792,4524.7
817.066,4527.7
817.34,4501.5
817.613,4516.1
817.887,4512.5
818.161,4518.6
818.434,4532.3
818.708,4543.4
818.981,4532.0
819.255,4533.0
819.529,4512.3
819.802,4503.2
820.076,4509.3
820.35,4494.7
820.623,4476.7
820.897,4478.1
821.17,4475.8
821.444,4465.4
821.718,4469.4
821.991,4469.6
822.265,4472.4
822.538,4466.2
822.812,4459.4
823.085,4462.6
823.359,4453.0
823.632,4464.7
823.906,4463.9
824.18,4462.3
824.453,4448.4
824.727,4454.7
825.0,4440.1
825.274,4445.7
825.547,4428.4
825.821,4425.2
826.094,4424.3
826.367,4416.6
826.641,4426.0
826.914,4419.2
827.188,4412.7
827.461,4407.3
827.735,4405.8
828.008,4419.6
828.282,4405.9
828.555,4398.2
828.828,4397.0
829.102,4407.0
829.375,4410.2
829.649,4398.5
829.922,4392.7
830.195,4370.8
830.469,4386.3
830.742,4372.5
831.016,4368.2
831.289,4371.2
831.562,4386.3
831.836,4371.2
832.109,4378.3
832.382,4358.0
832.656,4348.3
832.929,4360.0
833.202,4374.8
833.476,4391.7
833.749,4382.5
834.022,4368.0
834.295,4385.4
834.569,4348.5
834.842,4350.8
835.115,4350.3
835.388,4348.3
835.662,4357.5
835.935,4346.0
836.208,4357.6
836.481,4358.0
836.755,4368.7
837.028,4394.6
837.301,4414.3
837.574,4475.8
837.848,4555.9
838.121,4594.5
838.394,4564.2
838.667,4502.1
838.94,4420.6
839.213,4415.3
839.487,4427.7
839.76,4444.5
840.033,4468.3
840.306,4493.8
840.579,4466.4
840.852,4424.8
841.125,4387.6
841.399,4362.8
841.672,4355.1
841.945,4344.9
842.218,4325.9
842.491,4312.4
842.764,4315.7
843.037,4331.8
843.31,4315.5
843.583,4304.8
843.856,4314.0
844.129,4315.3
844.402,4313.2
844.675,4318.4
844.948,4312.6
845.221,4301.9
845.495,4295.3
845.768,4294.0
846.041,4289.5
846.314,4302.8
846.586,4290.6
846.859,4313.2
847.132,4300.9
847.405,4328.7
847.678,4318.3
847.951,4312.0
848.224,4312.9
848.497,4289.4
848.77,4313.2
849.043,4329.0
849.316,4347.5
849.589,4356.0
849.862,4359.6
850.135,4351.5
850.408,4336.0
850.681,4320.3
850.953,4310.6
851.226,4311.5
851.499,4322.6
851.772,4311.5
852.045,4320.1
852.318,4305.1
852.591,4298.5
852.863,4277.4
853.136,4282.1
853.409,4289.3
853.682,4296.0
853.955,4302.8
854.227,4309.7
854.5,4316.0
854.773,4304.0
855.046,4298.8
855.318,4294.9
855.591,4282.3
855.864,4278.1
856.137,4272.8
856.409,4270.0
856.682,4273.0
856.955,4264.9
857.228,4250.7
857.5,4255.9
857.773,4258.8
858.046,4259.9
858.318,4267.3
858.591,4267.6
858.864,4262.3
859.137,4280.2
859.409,4252.1
859.682,4251.3
859.954,4246.0
860.227,4252.9
860.5,4251.9
860.772,4271.5
861.045,4258.3
861.318,4272.3
861.59,4264.7
861.863,4292.8
862.135,4313.5
862.408,4328.1
862.681,4342.2
862.953,4332.9
863.226,4366.9
863.498,4360.7
863.771,4367.4
864.043,4333.1
864.316,4323.7
864.588,4311.0
864.861,4286.6
865.133,4279.9
865.406,4261.8
865.678,4246.8
865.951,4232.5
866.223,4237.9
866.496,4248.5
866.768,4233.7
867.041,4258.3
867.313,4273.6
867.586,4266.4
867.858,4272.5
868.131,4240.6
868.403,4252.4
868.675,4233.0
868.948,4225.8
869.22,4238.8
869.493,4251.7
869.765,4235.1
870.037,4233.6
870.31,4231.3
870.582,4222.3
870.854,4226.9
871.127,4225.3
871.399,4228.2
871.672,4222.9
871.944,4231.8
872.216,4241.2
872.488,4218.3
872.761,4227.6
873.033,4236.2
873.305,4253.0
873.578,4254.0
873.85,4255.3
874.122,4260.2
874.394,4255.2
874.667,4255.3
874.939,4265.7
875.211,4270.5
875.483,4287.4
875.756,4314.2
876.028,4317.8
876.3,4321.7
876.572,4301.6
876.845,4302.1
877.117,4285.5
877.389,4267.9
877.661,4251.7
877.933,4238.1
878.205,4228.9
878.478,4231.4
878.75,4231.8
879.022,4217.6
879.294,4216.1
879.566,4208.4
879.838,4188.0
880.11,4181.0
880.382,4179.2
880.654,4172.6
880.927,4161.8
881.199,4153.6
881.471,4153.8
881.743,4144.8
882.015,4140.9
882.287,4146.6
882.559,4158.0
882.831,4155.7
883.103,4163.9
883.375,4171.9
883.647,4173.1
883.919,4196.1
884.191,4201.3
884.463,4206.2
884.735,4220.7
885.007,4235.0
885.279,4260.6
885.551,4300.4
885.823,4289.4
886.095,4313.4
886.367,4281.0
886.639,4254.5
886.91,4248.5
887.182,4213.1
887.454,4190.0
887.726,4160.9
887.998,4150.5
888.27,4130.3
888.542,4111.7
888.814,4110.0
889.085,4104.6
889.357,4102.0
889.629,4097.6
889.901,4094.7
890.173,4094.6
890.445,4095.4
890.716,4105.6
890.988,4094.0
891.26,4106.4
891.532,4110.6
891.804,4107.6
892.075,4101.4
892.347,4094.5
892.619,4096.1
892.891,4093.5
893.162,4090.4
893.434,4084.1
893.706,4080.3
893.978,4069.5
894.249,4077.2
894.521,4064.2
894.793,4063.9
895.064,4064.4
895.336,4058.7
895.608,4063.0
895.879,4063.4
896.151,4062.8
896.423,4055.4
896.694,4064.9
896.966,4053.7
897.237,4049.5
897.509,4053.5
897.781,4057.1
898.052,4045.6
898.324,4041.6
898.595,4042.9
898.867,4036.2
899.139,4034.6
899.41,4033.8
899.682,4032.3
899.953,4025.6
900.225,4022.3
900.496,4034.7
900.768,4023.0
901.039,4021.4
901.311,4018.1
901.582,4018.7
901.854,4006.9
902.125,4000.9
902.397,4006.6
902.668,4010.3
902.94,4007.2
903.211,3998.6
903.482,4000.6
903.754,4001.2
904.025,4004.4
904.297,4001.5
904.568,3998.8
904.839,3990.2
905.111,3996.3
905.382,3995.8
905.654,3988.7
905.925,3995.9
906.196,3988.3
906.468,3985.4
906.739,3983.0
907.01,3977.0
907.282,3978.3
907.553,3971.9
907.824,3977.5
908.096,3973.9
908.367,3973.9
908.638,3967.6
908.909,3970.7
909.181,3966.9
909.452,3960.8
909.723,3960.5
909.994,3958.7
910.266,3967.6
910.537,3965.8
910.808,3957.7
911.079,3962.8
911.35,3962.5
911.622,3952.1
911.893,3950.3
912.164,3953.1
912.435,3953.4
912.706,3953.2
912.977,3948.5
913.249,3946.2
913.52,3943.6
913.791,3947.7
914.062,3946.2
914.333,3940.2
914.604,3938.1
914.875,3940.1
915.146,3936.2
915.417,3931.6
915.688,3934.0
915.959,3929.9
916.231,3932.3
916.502,3929.9
916.773,3931.0
917.044,3929.2
917.315,3932.2
917.586,3928.1
917.857,3931.8
918.128,3929.3
918.399,3918.9
918.67,3929.9
918.941,3919.8
919.211,3919.8
919.482,3920.7
919.753,3917.0
920.024,3917.4
920.295,3917.0
920.566,3916.8
920.837,3916.3
921.108,3915.6
921.379,3916.8
921.65,3911.8
921.921,3906.4
922.191,3910.6
922.462,3908.8
922.733,3906.4
923.004,3907.9
923.275,3901.0
923.546,3904.2
923.816,3903.4
924.087,3904.4
924.358,3897.5
924.629,3899.0
924.9,3895.0
925.17,3893.8
925.441,3898.7
925.712,3890.0
925.983,3897.2
926.253,3895.7
926.524,3893.6
926.795,3892.3
927.065,3890.3
927.336,3893.2
927.607,3888.4
927.877,3888.9
928.148,3885.0
928.419,3883.4
928.689,3881.5
928.96,3877.9
929.231,3875.7
929.501,3876.9
929.772,3872.8
930.043,3878.7
930.313,3874.5
930.584,3880.8
930.854,3875.7
931.125,3868.8
931.396,3870.7
931.666,3871.7
931.937,3871.9
932.207,3871.4
932.478,3872.7
932.748,3863.8
933.019,3867.8
933.289,3863.2
933.56,3867.0
933.83,3868.4
934.101,3867.2
934.371,3863.9
934.642,3864.0
934.912,3858.7
935.183,3861.1
935.453,3858.6
935.723,3856.8
935.994,3859.5
936.264,3855.3
936.535,3855.3
936.805,3851.4
937.075,3855.8
937.346,3852.8
937.616,3855.3
937.886,3854.0
938.157,3849.3
938.427,3847.1
938.697,3850.1
938.968,3850.9
939.238,3846.3
939.508,3850.5
939.779,3846.8
940.049,3847.2
940.319,3852.2
940.59,3850.4
940.86,3848.9
941.13,3850.4
941.4,3843.9
941.671,3843.0
941.941,3842.7
942.211,3841.6
942.481,3839.7
942.751,3839.4
943.022,3837.8
943.292,3841.7
943.562,3834.2
943.832,3840.3
944.102,3839.0
944.372,3834.8
944.642,3834.0
944.913,3830.8
945.183,3832.2
945.453,3831.6
945.723,3836.8
945.993,3831.6
946.263,3833.5
946.533,3830.3
946.803,3828.4
947.073,3831.9
947.343,3828.7
947.613,3832.1
947.883,3828.5
948.153,3826.0
948.423,3827.8
948.693,3826.5
948.963,3826.4
949.233,3825.4
949.503,3824.3
949.773,3824.3
950.043,3825.2
950.313,3823.6
950.583,3820.5
950.853,3825.0
951.123,3821.5
951.393,3820.9
951.663,3821.6
951.933,3820.6
952.202,3819.0
952.472,3816.5
952.742,3824.4
953.012,3818.2
953.282,3820.0
953.552,3817.9
953.822,3818.3
954.091,3820.5
954.361,3818.1
954.631,3809.7
954.901,3814.5
955.17,3814.4
955.44,3810.7
955.71,3814.7
955.98,3814.8
956.25,3813.1
956.519,3810.8
956.789,3811.3
957.059,3808.7
957.328,3809.1
957.598,3811.1
957.868,3810.2
958.137,3812.9
958.407,3810.8
958.677,3811.1
958.946,3807.2
959.216,3807.3
959.486,3809.6
959.755,3806.4
960.025,3807.1
960.294,3805.7
960.564,3806.8
960.834,3805.4
961.103,3804.7
961.373,3806.7
961.642,3804.6
961.912,3805.2
962.181,3804.5
962.451,3803.1
962.72,3801.2
962.99,3801.7
963.259,3803.9
963.529,3798.1
963.798,3801.4
964.068,3800.8
964.337,3802.4
964.607,3797.3
964.876,3799.7
965.146,3798.3
965.415,3799.6
965.684,3799.8
965.954,3801.5
966.223,3796.9
966.493,3802.0
966.762,3797.5
967.031,3797.9
967.301,3798.4
967.57,3794.8
967.839,3793.7
968.109,3793.1
968.378,3794.9
968.647,3794.9
968.917,3794.9
969.186,3790.8
969.455,3794.8
969.724,3794.4
969.994,3792.9
970.263,3792.9
970.532,3794.9
970.801,3794.7
971.071,3791.1
971.34,3792.6
971.609,3793.4
971.878,3793.4
972.147,3794.1
972.417,3791.0
972.686,3788.4
972.955,3788.9
973.224,3791.1
973.493,3789.1
973.762,3787.1
974.031,3790.3
974.3,3792.9
974.57,3787.2
974.839,3788.9
975.108,3791.6
975.377,3790.1
975.646,3787.4
975.915,3785.7
976.184,3789.7
976.453,3785.5
976.722,3785.1
976.991,3786.8
977.26,3785.1
977.529,3784.1
977.798,3784.7
978.067,3784.1
978.336,3787.2
978.605,3787.4
978.874,3784.0
979.143,3782.5
979.412,3787.2
979.68,3782.4
979.949,3783.9
980.218,3783.7
980.487,3783.2
980.756,3784.6
981.025,3785.3
981.294,3782.2
981.563,3779.4
981.831,3779.3
982.1,3782.9
982.369,3782.9
982.638,3782.1
982.907,3781.8
983.175,3778.4
983.444,3779.1
983.713,3782.8
983.982,3780.0
984.25,3781.4
984.519,3779.4
984.788,3781.4
985.057,3781.2
985.325,3782.4
985.594,3778.3
985.863,3782.8
986.131,3779.7
986.4,3779.3
986.669,3780.2
986.937,3776.3
987.206,3779.2
987.475,3778.2
987.743,3779.3
988.012,3776.7
988.28,3777.6
988.549,3776.6
988.817,3780.4
989.086,3776.9
989.355,3774.2
989.623,3782.2
989.892,3773.9
990.16,3778.9
990.429,3777.8
990.697,3777.4
990.966,3772.6
991.234,3777.6
991.503,3775.7
991.771,3777.9
992.04,3774.4
992.308,3775.4
992.576,3775.6
992.845,3776.7
993.113,3774.4
993.382,3775.6
993.65,3774.3
993.918,3774.8
994.187,3773.7
994.455,3772.7
994.723,3773.2
994.992,3773.8
995.26,3775.2
995.528,3771.7
995.797,3774.0
996.065,3773.0
996.333,3776.8
996.602,3777.7
996.87,3776.8
997.138,3776.8
997.406,3775.9
997.675,3777.2
997.943,3777.2
998.211,3775.1
998.479,3774.5
998.747,3773.9
999.016,3777.6
999.284,3774.5
999.552,3774.5
999.82,3773.5
1000.09,3774.7
1000.36,3772.3
1000.62,3773.1
1000.89,3769.7
1001.16,3769.0
1001.43,3769.3
1001.7,3769.8
1001.97,3771.1
1002.23,3770.2
1002.5,3768.2
1002.77,3770.5
1003.04,3768.6
1003.31,3767.2
1003.57,3769.3
1003.84,3765.5
1004.11,3768.4
1004.38,3769.4
1004.65,3766.1
1004.91,3768.6
1005.18,3766.9
1005.45,3767.6
1005.72,3768.5
1005.98,3766.6
1006.25,3769.6
1006.52,3766.8
1006.79,3769.2
1007.06,3770.2
1007.32,3767.8
1007.59,3769.5
1007.86,3769.1
1008.13,3769.9
1008.4,3772.2
1008.66,3774.0
1008.93,3779.1
1009.2,3779.9
1009.47,3783.4
1009.73,3785.1
1010.0,3782.1
1010.27,3786.9
1010.54,3784.0
1010.81,3786.7
1011.07,3789.3
1011.34,3788.2
1011.61,3793.0
1011.88,3796.5
1012.14,3801.1
1012.41,3798.9
1012.68,3798.3
1012.95,3803.4
1013.21,3801.5
1013.48,3804.9
1013.75,3806.3
1014.02,3807.8
1014.29,3811.1
1014.55,3810.2
1014.82,3813.1
1015.09,3807.1
1015.36,3808.4
1015.62,3808.9
1015.89,3805.7
1016.16,3801.9
1016.43,3799.1
1016.69,3800.1
1016.96,3796.4
1017.23,3798.7
1017.5,3794.3
1017.76,3793.5
1018.03,3792.9
1018.3,3791.5
1018.57,3788.8
1018.83,3785.8
1019.1,3784.1
1019.37,3787.0
1019.63,3780.9
1019.9,3781.0
1020.17,3782.0
1020.44,3777.5
1020.7,3780.1
1020.97,3777.5
1021.24,3779.3
1021.51,3782.6
1021.77,3776.7
1022.04,3778.8
1022.31,3776.4
1022.58,3775.1
1022.84,3774.7
1023.11,3775.4
1023.38,3772.9
1023.64,3771.6
1023.91,3769.6
1024.18,3766.5
1024.45,3768.1
1024.71,3765.9
1024.98,3767.3
1025.25,3763.9
1025.51,3762.5
1025.78,3760.6
1026.05,3760.2
1026.32,3760.0
1026.58,3760.0
1026.85,3759.1
1027.12,3759.9
1027.38,3759.4
1027.65,3759.9
1027.92,3758.9
1028.19,3760.0
1028.45,3758.8
1028.72,3759.3
1028.99,3757.5
1029.25,3757.5
1029.52,3758.5
1029.79,3759.0
1030.05,3755.7
1030.32,3756.6
1030.59,3756.8
1030.85,3757.4
1031.12,3756.6
1031.39,3758.2
1031.66,3756.3
1031.92,3756.1
1032.19,3757.9
1032.46,3756.4
1032.72,3755.8
1032.99,3758.6
1033.26,3756.6
1033.52,3756.7
1033.79,3756.1
1034.06,3756.4
1034.32,3757.2
1034.59,3755.4
1034.86,3755.5
1035.12,3755.5
1035.39,3755.6
1035.66,3753.4
1035.92,3755.8
1036.19,3754.8
1036.46,3756.3
1036.72,3754.0
1036.99,3757.2
1037.26,3755.1
1037.52,3753.5
1037.79,3755.8
1038.06,3756.0
1038.32,3754.2
1038.59,3756.1
1038.86,3756.7
1039.12,3755.1
1039.39,3755.2
1039.66,3756.1
1039.92,3753.9
1040.19,3757.1
1040.46,3755.5
1040.72,3754.7
1040.99,3755.3
1041.26,3753.8
1041.52,3755.7
1041.79,3754.3
1042.06,3754.9
1042.32,3755.3
1042.59,3753.8
1042.86,3756.4
1043.12,3753.2
1043.39,3754.3
1043.65,3753.5
1043.92,3755.1
1044.19,3753.2
1044.45,3755.6
1044.72,3754.4
1044.99,3755.3
1045.25,3752.8
1045.52,3753.7
1045.79,3754.3
1046.05,3754.3
1046.32,3751.7
1046.58,3752.7
1046.85,3754.0
1047.12,3755.7
1047.38,3753.6
1047.65,3753.2
1047.92,3755.2
1048.18,3754.4
1048.45,3754.2
1048.71,3753.4
1048.98,3754.2
1049.25,3755.6
1049.51,3752.6
1049.78,3755.1
1050.04,3754.8
1050.31,3753.0
1050.58,3754.0
1050.84,3753.1
1051.11,3752.7
1051.37,3754.9
1051.64,3754.1
1051.91,3754.6
1052.17,3753.4
1052.44,3754.8
1052.7,3754.3
1052.97,3752.3
1053.24,3754.3
1053.5,3754.8
1053.77,3753.6
1054.03,3753.8
1054.3,3752.6
1054.57,3753.0
1054.83,3753.2
1055.1,3754.9
1055.36,3753.6
1055.63,3753.2
1055.9,3753.6
1056.16,3755.5
1056.43,3753.7
1056.69,3753.2
1056.96,3753.9
1057.23,3754.6
1057.49,3753.1
1057.76,3754.2
1058.02,3752.8
1058.29,3753.2
1058.55,3753.4
1058.82,3753.5
1059.09,3754.2
1059.35,3753.4
1059.62,3753.5
1059.88,3752.5
1060.15,3754.7
1060.41,3754.4
1060.68,3753.3
1060.95,3752.6
1061.21,3752.4
1061.48,3752.9
1061.74,3753.6
1062.01,3753.9
1062.27,3754.4
1062.54,3752.3
1062.8,3754.3
1063.07,3751.5
1063.34,3753.2
1063.6,3751.6
1063.87,3751.3
1064.13,3752.1
1064.4,3751.5
1064.66,3751.9
1064.93,3752.1
1065.19,3752.0
1065.46,3751.6
1065.73,3752.7
1065.99,3754.3
1066.26,3752.4
1066.52,3752.2
1066.79,3753.5
1067.05,3752.8
1067.32,3753.8
1067.58,3752.0
1067.85,3753.6
1068.11,3752.9
