nm,Intensity
526.508,830.1
526.645,830.7
526.782,829.7
526.919,830.7
527.055,830.4
527.192,829.7
527.329,829.7
527.465,831.1
527.602,829.9
527.739,829.7
527.875,829.2
528.012,830.8
528.149,829.5
528.285,831.4
528.422,830.5
528.558,829.6
528.695,830.8
528.832,830.3
528.968,831.6
529.105,829.8
529.241,830.1
529.378,831.6
529.514,829.2
529.651,829.9
529.787,829.8
529.924,830.2
530.061,830.0
530.197,828.2
530.334,829.1
530.47,829.1
530.606,830.7
530.743,829.7
530.879,830.8
531.016,830.5
531.152,829.2
531.289,829.2
531.425,829.9
531.562,830.4
531.698,830.1
531.834,829.2
531.971,833.1
532.107,853.3
532.244,859.8
532.38,838.0
532.516,831.9
532.653,829.4
532.789,829.6
532.925,831.1
533.062,829.2
533.198,830.9
533.334,830.5
533.471,830.0
533.607,831.0
533.743,835.1
533.879,859.2
534.016,892.8
534.152,904.7
534.288,901.5
534.424,899.6
534.561,901.0
534.697,906.4
534.833,920.9
534.969,931.3
535.106,947.1
535.242,944.1
535.378,930.5
535.514,902.6
535.65,883.1
535.786,869.5
535.923,865.4
536.059,861.7
536.195,858.2
536.331,857.6
536.467,854.6
536.603,858.2
536.739,861.8
536.876,872.6
537.012,883.2
537.148,893.8
537.284,891.7
537.42,877.7
537.556,868.0
537.692,860.5
537.828,859.6
537.964,853.2
538.1,853.5
538.236,854.5
538.372,853.5
538.508,850.7
538.644,851.4
538.78,849.5
538.916,852.2
539.052,854.3
539.188,858.8
539.324,861.6
539.46,861.1
539.596,858.8
539.732,857.9
539.868,852.9
540.004,847.9
540.14,849.1
540.275,844.3
540.411,846.0
540.547,846.3
540.683,846.1
540.819,844.2
540.955,847.7
541.091,850.0
541.227,855.9
541.362,860.6
541.498,860.7
541.634,855.5
541.77,852.3
541.906,847.7
542.041,845.2
542.177,842.8
542.313,841.8
542.449,840.5
542.585,842.3
542.72,843.9
542.856,843.5
542.992,843.8
543.128,846.0
543.263,852.1
543.399,860.1
543.535,888.5
543.67,935.2
543.806,936.6
543.942,892.7
544.078,868.0
544.213,859.9
544.349,854.1
544.485,849.5
544.62,850.0
544.756,847.3
544.892,849.6
545.027,851.8
545.163,855.8
545.298,865.0
545.434,872.1
545.57,868.0
545.705,855.8
545.841,848.8
545.976,844.8
546.112,846.1
546.248,843.4
546.383,841.0
546.519,842.2
546.654,843.7
546.79,843.5
546.925,845.0
547.061,846.3
547.196,848.9
547.332,854.3
547.467,860.4
547.603,864.2
547.738,860.9
547.874,854.4
548.009,847.9
548.145,846.3
548.28,844.6
548.416,841.1
548.551,842.6
548.686,842.1
548.822,839.8
548.957,840.1
549.093,841.3
549.228,839.1
549.363,840.4
549.499,838.3
549.634,838.9
549.77,837.5
549.905,838.2
550.04,839.6
550.176,837.7
550.311,838.9
550.446,837.7
550.582,839.9
550.717,839.0
550.852,838.5
550.988,838.0
551.123,836.1
551.258,838.7
551.394,838.0
551.529,837.8
551.664,837.5
551.799,837.2
551.935,838.3
552.07,838.5
552.205,839.1
552.34,840.5
552.476,838.3
552.611,838.7
552.746,836.9
552.881,837.8
553.016,838.2
553.152,839.2
553.287,838.9
553.422,837.7
553.557,838.8
553.692,840.8
553.827,837.1
553.963,840.3
554.098,840.9
554.233,839.3
554.368,840.6
554.503,840.6
554.638,841.9
554.773,842.3
554.908,842.3
555.043,843.9
555.179,844.3
555.314,844.6
555.449,846.9
555.584,851.7
555.719,863.1
555.854,881.5
555.989,934.3
556.124,998.7
556.259,962.4
556.394,898.2
556.529,879.8
556.664,880.2
556.799,891.2
556.934,914.5
557.069,971.9
557.204,976.3
557.339,913.5
557.474,878.3
557.609,863.2
557.744,859.3
557.879,855.2
558.014,852.5
558.149,849.8
558.284,848.6
558.419,850.0
558.553,848.0
558.688,850.9
558.823,857.4
558.958,867.2
559.093,860.9
559.228,850.4
559.363,846.6
559.498,845.8
559.632,847.1
559.767,847.3
559.902,850.0
560.037,855.4
560.172,867.9
560.307,870.3
560.441,860.9
560.576,856.7
560.711,854.1
560.846,853.6
560.981,863.6
561.115,885.1
561.25,915.5
561.385,898.7
561.52,865.0
561.654,856.5
561.789,860.3
561.924,879.8
562.059,898.9
562.193,878.3
562.328,865.0
562.463,858.1
562.598,856.5
562.732,854.2
562.867,858.5
563.002,862.0
563.136,877.2
563.271,888.8
563.406,886.2
563.54,875.2
563.675,865.5
563.81,855.8
563.944,852.3
564.079,849.1
564.213,849.4
564.348,849.9
564.483,846.4
564.617,846.9
564.752,846.9
564.887,850.8
565.021,852.8
565.156,852.8
565.29,855.9
565.425,858.9
565.559,855.8
565.694,853.2
565.828,853.7
565.963,852.3
566.098,850.9
566.232,851.9
566.367,854.1
566.501,856.8
566.636,874.3
566.77,906.0
566.905,958.3
567.039,964.3
567.174,932.4
567.308,922.2
567.443,924.8
567.577,910.1
567.711,877.0
567.846,858.7
567.98,850.1
568.115,850.5
568.249,852.6
568.384,852.2
568.518,856.7
568.652,856.9
568.787,861.4
568.921,875.0
569.056,889.1
569.19,897.5
569.324,879.7
569.459,862.8
569.593,859.1
569.727,855.0
569.862,855.9
569.996,853.8
570.131,858.1
570.265,861.9
570.399,861.9
570.534,853.9
570.668,852.1
570.802,853.4
570.936,855.9
571.071,854.2
571.205,855.7
571.339,859.9
571.474,865.0
571.608,868.4
571.742,866.9
571.876,868.0
572.011,867.8
572.145,866.6
572.279,873.6
572.413,892.3
572.548,933.2
572.682,992.1
572.816,987.8
572.95,921.6
573.084,888.0
573.219,873.6
573.353,872.9
573.487,882.0
573.621,905.5
573.755,913.6
573.889,891.4
574.024,877.7
574.158,872.7
574.292,871.7
574.426,864.0
574.56,854.6
574.694,850.8
574.828,848.2
574.963,846.4
575.097,848.7
575.231,849.8
575.365,849.9
575.499,847.7
575.633,848.0
575.767,852.5
575.901,855.6
576.035,876.2
576.169,914.8
576.303,919.6
576.437,909.2
576.571,916.4
576.706,945.8
576.84,1000.5
576.974,1045.8
577.108,1031.4
577.242,963.7
577.376,907.6
577.51,877.7
577.644,865.5
577.778,854.8
577.912,854.4
578.046,849.3
578.179,849.9
578.313,847.7
578.447,848.0
578.581,847.2
578.715,845.7
578.849,846.0
578.983,845.6
579.117,844.1
579.251,844.5
579.385,845.1
579.519,845.2
579.653,844.7
579.787,844.7
579.921,844.4
580.054,843.7
580.188,845.4
580.322,846.4
580.456,845.3
580.59,845.6
580.724,845.8
580.858,844.3
580.991,844.7
581.125,844.0
581.259,844.3
581.393,844.4
581.527,843.4
581.661,847.0
581.794,843.9
581.928,845.1
582.062,845.5
582.196,845.5
582.33,844.9
582.463,843.9
582.597,845.9
582.731,846.5
582.865,847.0
582.998,847.9
583.132,846.7
583.266,846.1
583.4,848.7
583.533,847.9
583.667,845.2
583.801,845.7
583.935,845.2
584.068,846.9
584.202,845.4
584.336,846.7
584.469,845.6
584.603,847.0
584.737,847.0
584.87,847.7
585.004,849.6
585.138,846.0
585.271,848.1
585.405,847.5
585.539,844.8
585.672,845.0
585.806,846.2
585.94,848.1
586.073,843.3
586.207,846.4
586.34,846.5
586.474,845.6
586.608,846.0
586.741,845.5
586.875,847.5
587.008,846.4
587.142,846.6
587.276,846.9
587.409,846.5
587.543,845.3
587.676,846.6
587.81,844.9
587.943,845.1
588.077,845.6
588.21,846.0
588.344,844.8
588.478,845.5
588.611,845.2
588.745,845.5
588.878,845.4
589.012,845.7
589.145,845.6
589.279,845.9
589.412,847.9
589.546,845.9
589.679,847.5
589.812,847.7
589.946,845.1
590.079,847.0
590.213,845.1
590.346,846.3
590.48,846.0
590.613,845.1
590.747,847.4
590.88,846.2
591.013,848.8
591.147,847.7
591.28,846.2
591.414,846.0
591.547,848.5
591.68,848.6
591.814,847.4
591.947,846.8
592.081,847.7
592.214,848.3
592.347,845.8
592.481,850.1
592.614,848.1
592.747,846.3
592.881,848.2
593.014,846.4
593.147,845.2
593.281,846.7
593.414,847.5
593.547,849.5
593.681,847.5
593.814,845.7
593.947,849.2
594.081,847.9
594.214,845.8
594.347,847.2
594.48,847.8
594.614,845.3
594.747,845.9
594.88,848.1
595.014,846.0
595.147,845.9
595.28,849.1
595.413,844.9
595.547,847.2
595.68,847.2
595.813,847.2
595.946,847.1
596.079,848.7
596.213,847.6
596.346,845.8
596.479,849.1
596.612,847.4
596.745,846.4
596.879,846.4
597.012,848.1
597.145,845.8
597.278,847.0
597.411,844.2
597.545,845.8
597.678,844.6
597.811,848.4
597.944,846.5
598.077,847.2
598.21,845.3
598.343,844.8
598.476,848.3
598.61,847.3
598.743,847.3
598.876,848.6
599.009,847.8
599.142,846.0
599.275,846.2
599.408,846.4
599.541,847.6
599.674,846.2
599.807,846.0
599.941,845.4
600.074,844.8
600.207,847.8
600.34,846.6
600.473,846.0
600.606,843.2
600.739,846.1
600.872,846.6
601.005,846.9
601.138,845.6
601.271,844.9
601.404,845.6
601.537,844.0
601.67,845.6
601.803,845.1
601.936,843.3
602.069,845.9
602.202,845.0
602.335,846.8
602.468,846.6
602.601,846.6
602.734,843.5
602.867,846.6
603.0,847.5
603.133,845.4
603.266,846.6
603.399,846.8
603.532,846.7
603.664,845.6
603.797,845.7
603.93,846.7
604.063,849.1
604.196,847.2
604.329,848.0
604.462,848.0
604.595,847.1
604.728,847.3
604.861,846.8
604.994,845.8
605.126,847.9
605.259,846.8
605.392,847.0
605.525,848.2
605.658,848.5
605.791,847.0
605.924,846.7
606.056,845.3
606.189,847.9
606.322,848.0
606.455,847.1
606.588,850.1
606.721,847.1
606.853,847.7
606.986,845.1
607.119,849.6
607.252,847.0
607.385,847.6
607.517,849.9
607.65,846.8
607.783,850.2
607.916,846.9
608.049,846.9
608.181,849.5
608.314,848.0
608.447,846.7
608.58,846.1
608.712,848.5
608.845,847.8
608.978,844.8
609.111,846.4
609.243,845.4
609.376,844.2
609.509,845.9
609.641,847.1
609.774,846.2
609.907,847.7
610.04,847.0
610.172,845.4
610.305,844.9
610.438,845.3
610.57,845.7
610.703,846.4
610.836,846.5
610.968,844.9
611.101,845.3
611.234,847.5
611.366,848.2
611.499,843.4
611.632,845.7
611.764,847.0
611.897,846.9
612.03,846.9
612.162,846.3
612.295,845.6
612.428,847.4
612.56,845.9
612.693,846.6
612.825,846.2
612.958,846.3
613.091,844.5
613.223,845.8
613.356,844.7
613.488,848.1
613.621,845.9
613.754,843.3
613.886,845.0
614.019,844.3
614.151,848.0
614.284,846.9
614.416,845.2
614.549,846.1
614.681,847.2
614.814,847.8
614.947,845.6
615.079,847.2
615.212,846.9
615.344,848.9
615.477,848.6
615.609,845.8
615.742,848.6
615.874,847.4
616.007,848.3
616.139,848.5
616.272,848.2
616.404,847.6
616.537,848.4
616.669,848.3
616.802,851.4
616.934,851.5
617.067,851.2
617.199,851.2
617.332,850.6
617.464,850.3
617.596,853.2
617.729,853.2
617.861,851.7
617.994,851.9
618.126,852.3
618.259,852.8
618.391,849.2
618.524,852.1
618.656,853.1
618.788,851.1
618.921,855.1
619.053,852.4
619.186,856.8
619.318,857.7
619.45,859.4
619.583,862.8
619.715,863.9
619.848,865.4
619.98,863.4
620.112,862.8
620.245,861.1
620.377,857.8
620.509,862.3
620.642,860.3
620.774,859.3
620.907,862.0
621.039,860.1
621.171,859.8
621.304,863.1
621.436,862.4
621.568,868.0
621.701,874.1
621.833,882.1
621.965,887.5
622.097,891.9
622.23,905.0
622.362,912.9
622.494,910.4
622.627,898.5
622.759,893.4
622.891,884.9
623.024,879.7
623.156,876.2
623.288,872.2
623.42,868.3
623.553,865.9
623.685,865.3
623.817,863.1
623.949,862.2
624.082,859.1
624.214,857.5
624.346,855.7
624.479,857.5
624.611,860.0
624.743,855.6
624.875,857.8
625.007,860.5
625.14,862.3
625.272,863.4
625.404,859.7
625.536,866.5
625.669,864.8
625.801,869.7
625.933,875.3
626.065,880.7
626.197,888.0
626.33,904.4
626.462,925.2
626.594,979.1
626.726,1080.7
626.858,1200.9
626.99,1256.4
627.123,1186.7
627.255,1101.7
627.387,1032.8
627.519,1007.2
627.651,1025.3
627.783,1117.5
627.916,1303.6
628.048,1439.6
628.18,1468.5
628.312,1475.6
628.444,1560.5
628.576,1668.8
628.708,1718.5
628.84,1670.7
628.973,1582.5
629.105,1494.5
629.237,1447.8
629.369,1472.0
629.501,1511.1
629.633,1467.7
629.765,1396.3
629.897,1327.4
630.029,1295.7
630.161,1303.0
630.294,1317.0
630.426,1308.5
630.558,1234.7
630.69,1158.6
630.822,1094.3
630.954,1063.2
631.086,1090.5
631.218,1181.0
631.35,1274.7
631.482,1316.4
631.614,1294.8
631.746,1280.0
631.878,1246.9
632.01,1169.6
632.142,1098.2
632.274,1033.2
632.406,981.0
632.538,940.9
632.67,920.0
632.802,899.0
632.934,890.8
633.066,881.4
633.198,875.3
633.33,873.7
633.462,868.2
633.594,865.4
633.726,861.2
633.858,860.4
633.99,859.0
634.122,854.4
634.254,854.3
634.386,852.9
634.518,854.6
634.65,853.1
634.782,854.2
634.914,850.4
635.046,851.6
635.178,848.9
635.31,850.3
635.442,847.3
635.574,850.4
635.706,847.8
635.838,849.7
635.97,848.7
636.102,849.2
636.234,848.4
636.365,846.5
636.497,850.0
636.629,847.3
636.761,846.9
636.893,845.5
637.025,847.8
637.157,847.9
637.289,846.7
637.421,847.3
637.553,846.7
637.685,846.8
637.816,844.0
637.948,846.9
638.08,844.8
638.212,846.3
638.344,847.3
638.476,848.1
638.608,847.1
638.74,847.7
638.871,846.8
639.003,848.9
639.135,847.2
639.267,849.9
639.399,848.4
639.531,851.0
639.662,847.4
639.794,845.1
639.926,848.3
640.058,846.9
640.19,847.5
640.322,847.5
640.453,845.7
640.585,847.0
640.717,847.7
640.849,848.8
640.981,847.2
641.113,848.0
641.244,846.3
641.376,849.8
641.508,847.7
641.64,849.5
641.772,844.5
641.903,847.3
642.035,847.6
642.167,847.0
642.299,846.4
642.43,847.8
642.562,845.9
642.694,845.2
642.826,844.8
642.958,844.5
643.089,841.1
643.221,844.2
643.353,843.9
643.485,843.6
643.616,843.3
643.748,844.4
643.88,844.1
644.012,844.1
644.143,845.8
644.275,844.3
644.407,842.2
644.538,843.0
644.67,842.8
644.802,842.5
644.934,840.8
645.065,842.6
645.197,842.6
645.329,843.3
645.461,840.0
645.592,841.4
645.724,842.6
645.856,842.9
645.987,840.6
646.119,842.3
646.251,841.2
646.382,841.7
646.514,841.6
646.646,842.1
646.777,842.4
646.909,842.3
647.041,841.1
647.172,842.3
647.304,840.9
647.436,841.1
647.567,841.4
647.699,841.7
647.831,840.6
647.962,843.9
648.094,842.4
648.226,839.5
648.357,841.5
648.489,839.4
648.621,841.1
648.752,843.6
648.884,842.7
649.016,840.7
649.147,839.5
649.279,840.0
649.411,841.4
649.542,843.4
649.674,841.5
649.805,840.7
649.937,840.9
650.069,840.3
650.2,841.9
650.332,841.2
650.463,841.9
650.595,841.4
650.727,840.4
650.858,841.2
650.99,841.7
651.121,840.7
651.253,839.4
651.385,839.1
651.516,840.3
651.648,840.7
651.779,840.3
651.911,839.9
652.043,841.5
652.174,840.6
652.306,839.0
652.437,840.6
652.569,839.0
652.7,839.7
652.832,841.1
652.963,839.8
653.095,839.9
653.227,839.1
653.358,840.5
653.49,837.9
653.621,839.3
653.753,840.9
653.884,840.0
654.016,840.1
654.147,839.2
654.279,840.4
654.41,838.9
654.542,838.7
654.674,842.6
654.805,840.0
654.937,838.4
655.068,838.6
655.2,838.2
655.331,840.1
655.463,838.0
655.594,838.4
655.726,838.2
655.857,838.1
655.989,839.2
656.12,837.4
656.252,838.6
656.383,838.2
656.515,838.4
656.646,837.9
656.778,838.7
656.909,838.3
657.041,837.5
657.172,838.5
657.304,838.1
657.435,840.1
657.567,837.3
657.698,838.1
657.829,837.4
657.961,836.7
658.092,839.1
658.224,838.1
658.355,840.4
658.487,837.1
658.618,839.8
658.75,838.7
658.881,838.1
659.013,839.9
659.144,839.4
659.275,839.5
659.407,839.1
659.538,837.2
659.67,837.6
659.801,839.3
659.933,838.4
660.064,838.1
660.196,839.1
660.327,837.5
660.458,838.6
660.59,839.3
660.721,838.7
660.853,838.2
660.984,838.7
661.116,836.3
661.247,838.3
661.378,837.9
661.51,838.2
661.641,837.8
661.773,838.8
661.904,838.7
662.035,837.3
662.167,837.6
662.298,837.6
662.43,837.3
662.561,838.2
662.692,838.1
662.824,837.6
662.955,836.7
663.087,838.0
