cm-1,A
4000.0,0.0017
3999.0,0.0016
3998.0,0.0015
3997.0,0.0014
3996.0,0.0013
3995.0,0.0014
3994.0,0.0014
3993.0,0.0015
3992.0,0.0015
3991.0,0.0015
3990.0,0.0015
3989.0,0.0015
3988.0,0.0015
3987.0,0.0016
3986.0,0.0016
3985.0,0.0016
3984.0,0.0016
3983.0,0.0016
3982.0,0.0015
3981.0,0.0015
3980.0,0.0014
3979.0,0.0015
3978.0,0.0015
3977.0,0.0014
3976.0,0.0014
3975.0,0.0013
3974.0,0.0012
3973.0,0.0012
3972.0,0.0013
3971.0,0.0014
3970.0,0.0015
3969.0,0.0016
3968.0,0.0016
3967.0,0.0017
3966.0,0.0017
3965.0,0.0016
3964.0,0.0016
3963.0,0.0016
3962.0,0.0016
3961.0,0.0016
3960.0,0.0016
3959.0,0.0016
3958.0,0.0016
3957.0,0.0016
3956.0,0.0016
3955.0,0.0016
3954.0,0.0016
3953.0,0.0015
3952.0,0.0015
3951.0,0.0015
3950.0,0.0015
3949.0,0.0015
3948.0,0.0015
3947.0,0.0015
3946.0,0.0015
3945.0,0.0015
3944.0,0.0014
3943.0,0.0013
3942.0,0.0013
3941.0,0.0014
3940.0,0.0016
3939.0,0.0017
3938.0,0.0017
3937.0,0.0017
3936.0,0.0016
3935.0,0.0015
3934.0,0.0014
3933.0,0.0013
3932.0,0.0014
3931.0,0.0015
3930.0,0.0015
3929.0,0.0015
3928.0,0.0014
3927.0,0.0012
3926.0,0.0012
3925.0,0.0011
3924.0,0.0012
3923.0,0.0012
3922.0,0.0012
3921.0,0.0013
3920.0,0.0014
3919.0,0.0015
3918.0,0.0015
3917.0,0.0015
3916.0,0.0014
3915.0,0.0014
3914.0,0.0014
3913.0,0.0014
3912.0,0.0015
3911.0,0.0015
3910.0,0.0016
3909.0,0.0016
3908.0,0.0016
3907.0,0.0016
3906.0,0.0016
3905.0,0.0016
3904.0,0.0016
3903.0,0.0016
3902.0,0.0016
3901.0,0.0015
3900.0,0.0014
3899.0,0.0014
3898.0,0.0014
3897.0,0.0014
3896.0,0.0015
3895.0,0.0016
3894.0,0.0017
3893.0,0.0017
3892.0,0.0016
3891.0,0.0015
3890.0,0.0015
3889.0,0.0015
3888.0,0.0014
3887.0,0.0014
3886.0,0.0014
3885.0,0.0014
3884.0,0.0013
3883.0,0.0012
3882.0,0.0013
3881.0,0.0014
3880.0,0.0015
3879.0,0.0016
3878.0,0.0016
3877.0,0.0015
3876.0,0.0015
3875.0,0.0016
3874.0,0.0017
3873.0,0.0017
3872.0,0.0015
3871.0,0.0014
3870.0,0.0013
3869.0,0.0014
3868.0,0.0015
3867.0,0.0015
3866.0,0.0016
3865.0,0.0017
3864.0,0.0017
3863.0,0.0016
3862.0,0.0016
3861.0,0.0016
3860.0,0.0016
3859.0,0.0016
3858.0,0.0017
3857.0,0.0018
3856.0,0.0019
3855.0,0.0019
3854.0,0.0018
3853.0,0.0018
3852.0,0.0019
3851.0,0.0019
3850.0,0.0018
3849.0,0.0017
3848.0,0.0016
3847.0,0.0015
3846.0,0.0014
3845.0,0.0013
3844.0,0.0012
3843.0,0.0012
3842.0,0.0011
3841.0,0.001
3840.0,0.001
3839.0,0.0012
3838.0,0.0014
3837.0,0.0016
3836.0,0.0017
3835.0,0.0017
3834.0,0.0017
3833.0,0.0016
3832.0,0.0016
3831.0,0.0016
3830.0,0.0016
3829.0,0.0016
3828.0,0.0017
3827.0,0.0017
3826.0,0.0018
3825.0,0.0018
3824.0,0.0018
3823.0,0.0017
3822.0,0.0017
3821.0,0.0016
3820.0,0.0016
3819.0,0.0015
3818.0,0.0014
3817.0,0.0014
3816.0,0.0015
3815.0,0.0016
3814.0,0.0017
3813.0,0.0017
3812.0,0.0018
3811.0,0.0018
3810.0,0.0018
3809.0,0.0017
3808.0,0.0016
3807.0,0.0015
3806.0,0.0014
3805.0,0.0014
3804.0,0.0013
3803.0,0.0013
3802.0,0.0014
3801.0,0.0015
3800.0,0.0016
3799.0,0.0016
3798.0,0.0016
3797.0,0.0016
3796.0,0.0017
3795.0,0.0018
3794.0,0.0018
3793.0,0.0017
3792.0,0.0016
3791.0,0.0016
3790.0,0.0016
3789.0,0.0016
3788.0,0.0016
3787.0,0.0016
3786.0,0.0017
3785.0,0.0017
3784.0,0.0017
3783.0,0.0018
3782.0,0.0017
3781.0,0.0017
3780.0,0.0017
3779.0,0.0018
3778.0,0.0018
3777.0,0.0019
3776.0,0.0019
3775.0,0.002
3774.0,0.002
3773.0,0.0021
3772.0,0.0021
3771.0,0.002
3770.0,0.0019
3769.0,0.0018
3768.0,0.0016
3767.0,0.0016
3766.0,0.0015
3765.0,0.0016
3764.0,0.0017
3763.0,0.0018
3762.0,0.0018
3761.0,0.0019
3760.0,0.0019
3759.0,0.0019
3758.0,0.0018
3757.0,0.0018
3756.0,0.0018
3755.0,0.0019
3754.0,0.0021
3753.0,0.0023
3752.0,0.0025
3751.0,0.0026
3750.0,0.0025
3749.0,0.0024
3748.0,0.0024
3747.0,0.0025
3746.0,0.0027
3745.0,0.003
3744.0,0.0033
3743.0,0.0034
3742.0,0.0033
3741.0,0.0032
3740.0,0.0032
3739.0,0.0033
3738.0,0.0034
3737.0,0.0036
3736.0,0.0037
3735.0,0.0036
3734.0,0.0035
3733.0,0.0034
3732.0,0.0036
3731.0,0.0037
3730.0,0.004
3729.0,0.0042
3728.0,0.0043
3727.0,0.0043
3726.0,0.0041
3725.0,0.0039
3724.0,0.0036
3723.0,0.0035
3722.0,0.0035
3721.0,0.0034
3720.0,0.0033
3719.0,0.0031
3718.0,0.0028
3717.0,0.0026
3716.0,0.0025
3715.0,0.0025
3714.0,0.0027
3713.0,0.0031
3712.0,0.0038
3711.0,0.0042
3710.0,0.0042
3709.0,0.0041
3708.0,0.0039
3707.0,0.0037
3706.0,0.0036
3705.0,0.0035
3704.0,0.0033
3703.0,0.0031
3702.0,0.003
3701.0,0.0031
3700.0,0.0032
3699.0,0.0033
3698.0,0.0033
3697.0,0.0033
3696.0,0.0033
3695.0,0.0032
3694.0,0.0032
3693.0,0.003
3692.0,0.0028
3691.0,0.0024
3690.0,0.0022
3689.0,0.0022
3688.0,0.0025
3687.0,0.0027
3686.0,0.0028
3685.0,0.0028
3684.0,0.0027
3683.0,0.0027
3682.0,0.0027
3681.0,0.0027
3680.0,0.0027
3679.0,0.0026
3678.0,0.0024
3677.0,0.002
3676.0,0.0017
3675.0,0.0017
3674.0,0.0018
3673.0,0.002
3672.0,0.0021
3671.0,0.0023
3670.0,0.0024
3669.0,0.0024
3668.0,0.0023
3667.0,0.0023
3666.0,0.0022
3665.0,0.0021
3664.0,0.0021
3663.0,0.0021
3662.0,0.0022
3661.0,0.0023
3660.0,0.0023
3659.0,0.0023
3658.0,0.0023
3657.0,0.0023
3656.0,0.0023
3655.0,0.0023
3654.0,0.0023
3653.0,0.0022
3652.0,0.0021
3651.0,0.0021
3650.0,0.0022
3649.0,0.0022
3648.0,0.0022
3647.0,0.0023
3646.0,0.0024
3645.0,0.0024
3644.0,0.0025
3643.0,0.0026
3642.0,0.0027
3641.0,0.0028
3640.0,0.003
3639.0,0.0031
3638.0,0.0032
3637.0,0.0033
3636.0,0.0035
3635.0,0.0037
3634.0,0.0039
3633.0,0.004
3632.0,0.004
3631.0,0.004
3630.0,0.004
3629.0,0.0042
3628.0,0.0042
3627.0,0.0042
3626.0,0.0042
3625.0,0.0041
3624.0,0.0039
3623.0,0.0036
3622.0,0.0032
3621.0,0.0029
3620.0,0.0027
3619.0,0.0028
3618.0,0.0029
3617.0,0.0029
3616.0,0.0028
3615.0,0.0026
3614.0,0.0026
3613.0,0.0027
3612.0,0.0029
3611.0,0.0032
3610.0,0.0036
3609.0,0.004
3608.0,0.0041
3607.0,0.004
3606.0,0.0037
3605.0,0.0035
3604.0,0.0033
3603.0,0.0033
3602.0,0.0034
3601.0,0.0036
3600.0,0.0037
3599.0,0.0037
3598.0,0.0036
3597.0,0.0035
3596.0,0.0035
3595.0,0.0036
3594.0,0.0037
3593.0,0.0038
3592.0,0.0038
3591.0,0.0037
3590.0,0.0036
3589.0,0.0036
3588.0,0.0036
3587.0,0.0037
3586.0,0.0037
3585.0,0.0036
3584.0,0.0035
3583.0,0.0034
3582.0,0.0033
3581.0,0.0032
3580.0,0.0032
3579.0,0.0031
3578.0,0.0031
3577.0,0.0032
3576.0,0.0032
3575.0,0.0032
3574.0,0.0032
3573.0,0.0032
3572.0,0.0031
3571.0,0.0031
3570.0,0.0031
3569.0,0.003
3568.0,0.0029
3567.0,0.0028
3566.0,0.0026
3565.0,0.0027
3564.0,0.0028
3563.0,0.0029
3562.0,0.0031
3561.0,0.0032
3560.0,0.0033
3559.0,0.0033
3558.0,0.0032
3557.0,0.003
3556.0,0.0029
3555.0,0.0027
3554.0,0.0027
3553.0,0.0027
3552.0,0.0028
3551.0,0.003
3550.0,0.003
3549.0,0.0031
3548.0,0.0032
3547.0,0.0032
3546.0,0.0033
3545.0,0.0033
3544.0,0.0032
3543.0,0.0032
3542.0,0.0031
3541.0,0.0031
3540.0,0.0032
3539.0,0.0033
3538.0,0.0034
3537.0,0.0033
3536.0,0.0033
3535.0,0.0032
3534.0,0.0032
3533.0,0.0032
3532.0,0.0032
3531.0,0.0033
3530.0,0.0032
3529.0,0.0032
3528.0,0.0032
3527.0,0.0032
3526.0,0.0032
3525.0,0.0033
3524.0,0.0033
3523.0,0.0033
3522.0,0.0033
3521.0,0.0033
3520.0,0.0033
3519.0,0.0034
3518.0,0.0034
3517.0,0.0035
3516.0,0.0035
3515.0,0.0035
3514.0,0.0034
3513.0,0.0033
3512.0,0.0032
3511.0,0.0032
3510.0,0.0033
3509.0,0.0034
3508.0,0.0035
3507.0,0.0036
3506.0,0.0036
3505.0,0.0035
3504.0,0.0035
3503.0,0.0035
3502.0,0.0035
3501.0,0.0036
3500.0,0.0036
3499.0,0.0036
3498.0,0.0036
3497.0,0.0036
3496.0,0.0037
3495.0,0.0038
3494.0,0.0038
3493.0,0.0038
3492.0,0.0038
3491.0,0.0038
3490.0,0.0038
3489.0,0.0037
3488.0,0.0037
3487.0,0.0036
3486.0,0.0036
3485.0,0.0037
3484.0,0.0037
3483.0,0.0037
3482.0,0.0037
3481.0,0.0037
3480.0,0.0037
3479.0,0.0038
3478.0,0.0038
3477.0,0.0039
3476.0,0.0039
3475.0,0.0038
3474.0,0.0037
3473.0,0.0037
3472.0,0.0037
3471.0,0.0039
3470.0,0.004
3469.0,0.004
3468.0,0.004
3467.0,0.0038
3466.0,0.0036
3465.0,0.0035
3464.0,0.0034
3463.0,0.0035
3462.0,0.0036
3461.0,0.0037
3460.0,0.0038
3459.0,0.0039
3458.0,0.0039
3457.0,0.004
3456.0,0.004
3455.0,0.004
3454.0,0.0041
3453.0,0.0041
3452.0,0.0041
3451.0,0.0041
3450.0,0.004
3449.0,0.0039
3448.0,0.0038
3447.0,0.0038
3446.0,0.0038
3445.0,0.0039
3444.0,0.0039
3443.0,0.0039
3442.0,0.004
3441.0,0.004
3440.0,0.004
3439.0,0.0041
3438.0,0.0042
3437.0,0.0042
3436.0,0.0041
3435.0,0.0041
3434.0,0.004
3433.0,0.0041
3432.0,0.0043
3431.0,0.0046
3430.0,0.0047
3429.0,0.0047
3428.0,0.0045
3427.0,0.0043
3426.0,0.0042
3425.0,0.0042
3424.0,0.0042
3423.0,0.0042
3422.0,0.0043
3421.0,0.0043
3420.0,0.0043
3419.0,0.0044
3418.0,0.0045
3417.0,0.0047
3416.0,0.0048
3415.0,0.0049
3414.0,0.0048
3413.0,0.0046
3412.0,0.0045
3411.0,0.0044
3410.0,0.0043
3409.0,0.0043
3408.0,0.0043
3407.0,0.0043
3406.0,0.0044
3405.0,0.0044
3404.0,0.0045
3403.0,0.0045
3402.0,0.0045
3401.0,0.0045
3400.0,0.0044
3399.0,0.0044
3398.0,0.0043
3397.0,0.0044
3396.0,0.0044
3395.0,0.0044
3394.0,0.0044
3393.0,0.0043
3392.0,0.0044
3391.0,0.0044
3390.0,0.0045
3389.0,0.0046
3388.0,0.0047
3387.0,0.0047
3386.0,0.0046
3385.0,0.0045
3384.0,0.0044
3383.0,0.0044
3382.0,0.0044
3381.0,0.0045
3380.0,0.0044
3379.0,0.0044
3378.0,0.0043
3377.0,0.0043
3376.0,0.0042
3375.0,0.0042
3374.0,0.0043
3373.0,0.0044
3372.0,0.0046
3371.0,0.0048
3370.0,0.0049
3369.0,0.005
3368.0,0.005
3367.0,0.005
3366.0,0.005
3365.0,0.005
3364.0,0.0049
3363.0,0.0047
3362.0,0.0046
3361.0,0.0045
3360.0,0.0045
3359.0,0.0046
3358.0,0.0047
3357.0,0.0048
3356.0,0.0048
3355.0,0.0047
3354.0,0.0046
3353.0,0.0045
3352.0,0.0045
3351.0,0.0046
3350.0,0.0047
3349.0,0.0048
3348.0,0.0049
3347.0,0.0049
3346.0,0.0048
3345.0,0.0046
3344.0,0.0044
3343.0,0.0043
3342.0,0.0043
3341.0,0.0044
3340.0,0.0044
3339.0,0.0045
3338.0,0.0044
3337.0,0.0044
3336.0,0.0044
3335.0,0.0045
3334.0,0.0046
3333.0,0.0046
3332.0,0.0046
3331.0,0.0045
3330.0,0.0045
3329.0,0.0045
3328.0,0.0046
3327.0,0.0046
3326.0,0.0047
3325.0,0.0047
3324.0,0.0047
3323.0,0.0047
3322.0,0.0047
3321.0,0.0047
3320.0,0.0047
3319.0,0.0047
3318.0,0.0047
3317.0,0.0047
3316.0,0.0046
3315.0,0.0045
3314.0,0.0044
3313.0,0.0043
3312.0,0.0042
3311.0,0.0042
3310.0,0.0042
3309.0,0.0043
3308.0,0.0044
3307.0,0.0044
3306.0,0.0044
3305.0,0.0044
3304.0,0.0044
3303.0,0.0044
3302.0,0.0044
3301.0,0.0045
3300.0,0.0045
3299.0,0.0045
3298.0,0.0046
3297.0,0.0046
3296.0,0.0046
3295.0,0.0046
3294.0,0.0045
3293.0,0.0045
3292.0,0.0045
3291.0,0.0045
3290.0,0.0046
3289.0,0.0046
3288.0,0.0045
3287.0,0.0045
3286.0,0.0045
3285.0,0.0046
3284.0,0.0046
3283.0,0.0046
3282.0,0.0046
3281.0,0.0046
3280.0,0.0045
3279.0,0.0045
3278.0,0.0045
3277.0,0.0045
3276.0,0.0045
3275.0,0.0046
3274.0,0.0046
3273.0,0.0046
3272.0,0.0046
3271.0,0.0045
3270.0,0.0045
3269.0,0.0045
3268.0,0.0045
3267.0,0.0044
3266.0,0.0044
3265.0,0.0044
3264.0,0.0044
3263.0,0.0045
3262.0,0.0046
3261.0,0.0047
3260.0,0.0048
3259.0,0.0047
3258.0,0.0046
3257.0,0.0045
3256.0,0.0045
3255.0,0.0045
3254.0,0.0045
3253.0,0.0045
3252.0,0.0044
3251.0,0.0043
3250.0,0.0042
3249.0,0.0042
3248.0,0.0043
3247.0,0.0044
3246.0,0.0045
3245.0,0.0046
3244.0,0.0046
3243.0,0.0046
3242.0,0.0045
3241.0,0.0045
3240.0,0.0044
3239.0,0.0044
3238.0,0.0044
3237.0,0.0045
3236.0,0.0045
3235.0,0.0045
3234.0,0.0045
3233.0,0.0045
3232.0,0.0045
3231.0,0.0044
3230.0,0.0044
3229.0,0.0044
3228.0,0.0044
3227.0,0.0044
3226.0,0.0044
3225.0,0.0043
3224.0,0.0042
3223.0,0.0042
3222.0,0.0042
3221.0,0.0043
3220.0,0.0043
3219.0,0.0044
3218.0,0.0044
3217.0,0.0045
3216.0,0.0046
3215.0,0.0047
3214.0,0.0047
3213.0,0.0047
3212.0,0.0046
3211.0,0.0045
3210.0,0.0044
3209.0,0.0044
3208.0,0.0045
3207.0,0.0045
3206.0,0.0046
3205.0,0.0046
3204.0,0.0045
3203.0,0.0045
3202.0,0.0044
3201.0,0.0044
3200.0,0.0045
3199.0,0.0046
3198.0,0.0046
3197.0,0.0045
3196.0,0.0044
3195.0,0.0044
3194.0,0.0044
3193.0,0.0044
3192.0,0.0045
3191.0,0.0046
3190.0,0.0045
3189.0,0.0044
3188.0,0.0043
3187.0,0.0041
3186.0,0.0041
3185.0,0.0041
3184.0,0.0041
3183.0,0.0041
3182.0,0.0041
3181.0,0.0041
3180.0,0.0041
3179.0,0.0041
3178.0,0.0041
3177.0,0.0041
3176.0,0.0041
3175.0,0.0041
3174.0,0.0041
3173.0,0.0042
3172.0,0.0041
3171.0,0.0041
3170.0,0.004
3169.0,0.0039
3168.0,0.0038
3167.0,0.0038
3166.0,0.0038
3165.0,0.0039
3164.0,0.0041
3163.0,0.0042
3162.0,0.0042
3161.0,0.0042
3160.0,0.0042
3159.0,0.0041
3158.0,0.0041
3157.0,0.0042
3156.0,0.0043
3155.0,0.0043
3154.0,0.0042
3153.0,0.0041
3152.0,0.004
3151.0,0.004
3150.0,0.004
3149.0,0.0041
3148.0,0.0042
3147.0,0.0042
3146.0,0.0042
3145.0,0.0042
3144.0,0.0041
3143.0,0.0041
3142.0,0.0041
3141.0,0.0041
3140.0,0.0041
3139.0,0.0041
3138.0,0.004
3137.0,0.004
3136.0,0.0039
3135.0,0.0039
3134.0,0.004
3133.0,0.004
3132.0,0.004
3131.0,0.0039
3130.0,0.0039
3129.0,0.004
3128.0,0.004
3127.0,0.0039
3126.0,0.0038
3125.0,0.0037
3124.0,0.0037
3123.0,0.0037
3122.0,0.0037
3121.0,0.0038
3120.0,0.0039
3119.0,0.0039
3118.0,0.0039
3117.0,0.0039
3116.0,0.0039
3115.0,0.0038
3114.0,0.0038
3113.0,0.0037
3112.0,0.0037
3111.0,0.0037
3110.0,0.0037
3109.0,0.0038
3108.0,0.004
3107.0,0.0042
3106.0,0.0043
3105.0,0.0043
3104.0,0.0042
3103.0,0.0041
3102.0,0.0041
3101.0,0.0041
3100.0,0.0041
3099.0,0.004
3098.0,0.0039
3097.0,0.0038
3096.0,0.0037
3095.0,0.0037
3094.0,0.0037
3093.0,0.0038
3092.0,0.0039
3091.0,0.004
3090.0,0.004
3089.0,0.004
3088.0,0.004
3087.0,0.0041
3086.0,0.0042
3085.0,0.0042
3084.0,0.0042
3083.0,0.0042
3082.0,0.0042
3081.0,0.0042
3080.0,0.0042
3079.0,0.0041
3078.0,0.004
3077.0,0.0039
3076.0,0.0039
3075.0,0.0039
3074.0,0.0038
3073.0,0.0038
3072.0,0.0037
3071.0,0.0037
3070.0,0.0037
3069.0,0.0038
3068.0,0.0039
3067.0,0.0041
3066.0,0.0042
3065.0,0.0043
3064.0,0.0044
3063.0,0.0044
3062.0,0.0044
3061.0,0.0044
3060.0,0.0043
3059.0,0.0043
3058.0,0.0043
3057.0,0.0043
3056.0,0.0043
3055.0,0.0043
3054.0,0.0042
3053.0,0.0042
3052.0,0.0041
3051.0,0.0041
3050.0,0.004
3049.0,0.0039
3048.0,0.0039
3047.0,0.0039
3046.0,0.0039
3045.0,0.0039
3044.0,0.0039
3043.0,0.0039
3042.0,0.0039
3041.0,0.004
3040.0,0.004
3039.0,0.004
3038.0,0.0041
3037.0,0.0041
3036.0,0.0041
3035.0,0.0042
3034.0,0.0042
3033.0,0.0043
3032.0,0.0043
3031.0,0.0044
3030.0,0.0045
3029.0,0.0046
3028.0,0.0049
3027.0,0.005
3026.0,0.0051
3025.0,0.0052
3024.0,0.0052
3023.0,0.0052
3022.0,0.0053
3021.0,0.0054
3020.0,0.0053
3019.0,0.0052
3018.0,0.005
3017.0,0.0047
3016.0,0.0045
3015.0,0.0044
3014.0,0.0043
3013.0,0.0043
3012.0,0.0042
3011.0,0.0042
3010.0,0.0043
3009.0,0.0044
3008.0,0.0045
3007.0,0.0045
3006.0,0.0045
3005.0,0.0044
3004.0,0.0044
3003.0,0.0043
3002.0,0.0043
3001.0,0.0043
3000.0,0.0043
2999.0,0.0042
2998.0,0.0042
2997.0,0.0042
2996.0,0.0041
2995.0,0.0041
2994.0,0.0041
2993.0,0.004
2992.0,0.004
2991.0,0.0041
2990.0,0.0041
2989.0,0.004
2988.0,0.004
2987.0,0.004
2986.0,0.0041
2985.0,0.0041
2984.0,0.0041
2983.0,0.0041
2982.0,0.004
2981.0,0.0039
2980.0,0.0039
2979.0,0.0038
2978.0,0.0038
2977.0,0.0038
2976.0,0.0037
2975.0,0.0038
2974.0,0.0038
2973.0,0.0038
2972.0,0.0039
2971.0,0.004
2970.0,0.004
2969.0,0.004
2968.0,0.0041
2967.0,0.0041
2966.0,0.0041
2965.0,0.0041
2964.0,0.0041
2963.0,0.004
2962.0,0.0039
2961.0,0.0039
2960.0,0.0039
2959.0,0.004
2958.0,0.0041
2957.0,0.0041
2956.0,0.004
2955.0,0.004
2954.0,0.004
2953.0,0.004
2952.0,0.004
2951.0,0.0041
2950.0,0.0041
2949.0,0.0041
2948.0,0.0041
2947.0,0.0041
2946.0,0.0041
2945.0,0.0042
2944.0,0.0042
2943.0,0.0042
2942.0,0.0042
2941.0,0.0042
2940.0,0.0042
2939.0,0.0042
2938.0,0.0044
2937.0,0.0046
2936.0,0.0048
2935.0,0.0049
2934.0,0.0051
2933.0,0.0052
2932.0,0.0053
2931.0,0.0055
2930.0,0.0056
2929.0,0.0057
2928.0,0.0057
2927.0,0.0058
2926.0,0.0059
2925.0,0.006
2924.0,0.0061
2923.0,0.0062
2922.0,0.0062
2921.0,0.0062
2920.0,0.0062
2919.0,0.0062
2918.0,0.0062
2917.0,0.0062
2916.0,0.0062
2915.0,0.0061
2914.0,0.0061
2913.0,0.0061
2912.0,0.006
2911.0,0.006
2910.0,0.006
2909.0,0.006
2908.0,0.006
2907.0,0.0059
2906.0,0.0059
2905.0,0.0058
2904.0,0.0057
2903.0,0.0056
2902.0,0.0055
2901.0,0.0055
2900.0,0.0055
2899.0,0.0054
2898.0,0.0054
2897.0,0.0054
2896.0,0.0054
2895.0,0.0053
2894.0,0.0053
2893.0,0.0052
2892.0,0.0051
2891.0,0.0051
2890.0,0.0051
2889.0,0.0052
2888.0,0.0052
2887.0,0.0052
2886.0,0.0052
2885.0,0.0051
2884.0,0.0051
2883.0,0.0051
2882.0,0.0051
2881.0,0.0051
2880.0,0.0051
2879.0,0.005
2878.0,0.005
2877.0,0.005
2876.0,0.005
2875.0,0.0049
2874.0,0.0049
2873.0,0.0049
2872.0,0.0048
2871.0,0.0049
2870.0,0.0049
2869.0,0.005
2868.0,0.005
2867.0,0.005
2866.0,0.005
2865.0,0.0049
2864.0,0.0049
2863.0,0.0049
2862.0,0.0049
2861.0,0.0049
2860.0,0.0048
2859.0,0.0048
2858.0,0.0049
2857.0,0.005
2856.0,0.0051
2855.0,0.0051
2854.0,0.0052
2853.0,0.0052
2852.0,0.0053
2851.0,0.0054
2850.0,0.0055
2849.0,0.0056
2848.0,0.0056
2847.0,0.0056
2846.0,0.0055
2845.0,0.0053
2844.0,0.0052
2843.0,0.005
2842.0,0.005
2841.0,0.0051
2840.0,0.0052
2839.0,0.0052
2838.0,0.0051
2837.0,0.005
2836.0,0.0049
2835.0,0.0049
2834.0,0.0048
2833.0,0.0049
2832.0,0.0049
2831.0,0.0049
2830.0,0.0049
2829.0,0.0048
2828.0,0.0048
2827.0,0.0047
2826.0,0.0047
2825.0,0.0046
2824.0,0.0046
2823.0,0.0046
2822.0,0.0047
2821.0,0.0047
2820.0,0.0048
2819.0,0.0048
2818.0,0.0049
2817.0,0.0049
2816.0,0.0048
2815.0,0.0048
2814.0,0.0047
2813.0,0.0047
2812.0,0.0046
2811.0,0.0047
2810.0,0.0047
2809.0,0.0047
2808.0,0.0047
2807.0,0.0047
2806.0,0.0046
2805.0,0.0046
2804.0,0.0046
2803.0,0.0046
2802.0,0.0047
2801.0,0.0047
2800.0,0.0048
2799.0,0.0048
2798.0,0.0048
2797.0,0.0048
2796.0,0.0047
2795.0,0.0047
2794.0,0.0047
2793.0,0.0047
2792.0,0.0047
2791.0,0.0047
2790.0,0.0047
2789.0,0.0047
2788.0,0.0048
2787.0,0.0048
2786.0,0.0049
2785.0,0.0048
2784.0,0.0048
2783.0,0.0048
2782.0,0.0048
2781.0,0.0048
2780.0,0.0048
2779.0,0.0048
2778.0,0.0048
2777.0,0.0048
2776.0,0.0048
2775.0,0.0047
2774.0,0.0048
2773.0,0.0048
2772.0,0.0048
2771.0,0.0047
2770.0,0.0047
2769.0,0.0047
2768.0,0.0047
2767.0,0.0047
2766.0,0.0048
2765.0,0.0047
2764.0,0.0047
2763.0,0.0047
2762.0,0.0047
2761.0,0.0048
2760.0,0.0049
2759.0,0.0049
2758.0,0.0048
2757.0,0.0047
2756.0,0.0046
2755.0,0.0046
2754.0,0.0046
2753.0,0.0046
2752.0,0.0046
2751.0,0.0046
2750.0,0.0046
2749.0,0.0047
2748.0,0.0048
2747.0,0.0049
2746.0,0.0048
2745.0,0.0048
2744.0,0.0047
2743.0,0.0047
2742.0,0.0048
2741.0,0.0048
2740.0,0.0048
2739.0,0.0048
2738.0,0.0048
2737.0,0.0048
2736.0,0.0048
2735.0,0.0048
2734.0,0.0048
2733.0,0.0049
2732.0,0.005
2731.0,0.0051
2730.0,0.0051
2729.0,0.0051
2728.0,0.005
2727.0,0.0049
2726.0,0.0048
2725.0,0.0048
2724.0,0.0048
2723.0,0.0048
2722.0,0.0048
2721.0,0.0048
2720.0,0.0048
2719.0,0.0048
2718.0,0.0048
2717.0,0.0047
2716.0,0.0047
2715.0,0.0047
2714.0,0.0047
2713.0,0.0047
2712.0,0.0047
2711.0,0.0048
2710.0,0.0048
2709.0,0.0048
2708.0,0.0049
2707.0,0.0049
2706.0,0.0049
2705.0,0.0048
2704.0,0.0048
2703.0,0.0047
2702.0,0.0047
2701.0,0.0048
2700.0,0.0049
2699.0,0.0049
2698.0,0.0049
2697.0,0.0048
2696.0,0.0048
2695.0,0.0048
2694.0,0.0048
2693.0,0.0048
2692.0,0.0048
2691.0,0.0048
2690.0,0.0048
2689.0,0.0048
2688.0,0.0048
2687.0,0.0049
2686.0,0.0049
2685.0,0.005
2684.0,0.0049
2683.0,0.0049
2682.0,0.0049
2681.0,0.0049
2680.0,0.005
2679.0,0.005
2678.0,0.005
2677.0,0.0049
2676.0,0.0049
2675.0,0.0049
2674.0,0.0049
2673.0,0.005
2672.0,0.005
2671.0,0.005
2670.0,0.0049
2669.0,0.0049
2668.0,0.0049
2667.0,0.0049
2666.0,0.0049
2665.0,0.0049
2664.0,0.0049
2663.0,0.005
2662.0,0.005
2661.0,0.005
2660.0,0.005
2659.0,0.005
2658.0,0.005
2657.0,0.005
2656.0,0.005
2655.0,0.005
2654.0,0.005
2653.0,0.0049
2652.0,0.0049
2651.0,0.0049
2650.0,0.0049
2649.0,0.0049
2648.0,0.005
2647.0,0.005
2646.0,0.005
2645.0,0.0049
2644.0,0.0049
2643.0,0.0048
2642.0,0.0048
2641.0,0.0047
2640.0,0.0048
2639.0,0.0048
2638.0,0.0049
2637.0,0.005
2636.0,0.0051
2635.0,0.0051
2634.0,0.005
2633.0,0.005
2632.0,0.005
2631.0,0.005
2630.0,0.005
2629.0,0.005
2628.0,0.0049
2627.0,0.0049
2626.0,0.0049
2625.0,0.0049
2624.0,0.0049
2623.0,0.0049
2622.0,0.0049
2621.0,0.0049
2620.0,0.0049
2619.0,0.0049
2618.0,0.0049
2617.0,0.005
2616.0,0.005
2615.0,0.005
2614.0,0.005
2613.0,0.0051
2612.0,0.0051
2611.0,0.0052
2610.0,0.0052
2609.0,0.0052
2608.0,0.0052
2607.0,0.0052
2606.0,0.0052
2605.0,0.0053
2604.0,0.0053
2603.0,0.0053
2602.0,0.0052
2601.0,0.0051
2600.0,0.0051
2599.0,0.0051
2598.0,0.0051
2597.0,0.0051
2596.0,0.0052
2595.0,0.0052
2594.0,0.0052
2593.0,0.0051
2592.0,0.0051
2591.0,0.0051
2590.0,0.0051
2589.0,0.0052
2588.0,0.0052
2587.0,0.0053
2586.0,0.0052
2585.0,0.0052
2584.0,0.0052
2583.0,0.0052
2582.0,0.0052
2581.0,0.0051
2580.0,0.0052
2579.0,0.0052
2578.0,0.0052
2577.0,0.0052
2576.0,0.0052
2575.0,0.0051
2574.0,0.0051
2573.0,0.0052
2572.0,0.0052
2571.0,0.0053
2570.0,0.0053
2569.0,0.0053
2568.0,0.0053
2567.0,0.0053
2566.0,0.0053
2565.0,0.0053
2564.0,0.0052
2563.0,0.0052
2562.0,0.0052
2561.0,0.0052
2560.0,0.0052
2559.0,0.0052
2558.0,0.0052
2557.0,0.0052
2556.0,0.0052
2555.0,0.0052
2554.0,0.0052
2553.0,0.0053
2552.0,0.0053
2551.0,0.0053
2550.0,0.0053
2549.0,0.0053
2548.0,0.0052
2547.0,0.0052
2546.0,0.0052
2545.0,0.0052
2544.0,0.0052
2543.0,0.0053
2542.0,0.0053
2541.0,0.0053
2540.0,0.0054
2539.0,0.0054
2538.0,0.0054
2537.0,0.0053
2536.0,0.0052
2535.0,0.0051
2534.0,0.0052
2533.0,0.0052
2532.0,0.0053
2531.0,0.0053
2530.0,0.0053
2529.0,0.0053
2528.0,0.0053
2527.0,0.0054
2526.0,0.0054
2525.0,0.0054
2524.0,0.0054
2523.0,0.0053
2522.0,0.0053
2521.0,0.0054
2520.0,0.0054
2519.0,0.0055
2518.0,0.0055
2517.0,0.0055
2516.0,0.0054
2515.0,0.0054
2514.0,0.0055
2513.0,0.0055
2512.0,0.0056
2511.0,0.0056
2510.0,0.0055
2509.0,0.0055
2508.0,0.0055
2507.0,0.0055
2506.0,0.0054
2505.0,0.0054
2504.0,0.0054
2503.0,0.0054
2502.0,0.0054
2501.0,0.0054
2500.0,0.0055
2499.0,0.0055
2498.0,0.0055
2497.0,0.0054
2496.0,0.0054
2495.0,0.0054
2494.0,0.0053
2493.0,0.0054
2492.0,0.0054
2491.0,0.0054
2490.0,0.0054
2489.0,0.0054
2488.0,0.0054
2487.0,0.0054
2486.0,0.0054
2485.0,0.0054
2484.0,0.0054
2483.0,0.0054
2482.0,0.0055
2481.0,0.0055
2480.0,0.0055
2479.0,0.0054
2478.0,0.0054
2477.0,0.0054
2476.0,0.0054
2475.0,0.0054
2474.0,0.0055
2473.0,0.0055
2472.0,0.0055
2471.0,0.0055
2470.0,0.0055
2469.0,0.0055
2468.0,0.0056
2467.0,0.0056
2466.0,0.0056
2465.0,0.0055
2464.0,0.0055
2463.0,0.0055
2462.0,0.0055
2461.0,0.0056
2460.0,0.0056
2459.0,0.0056
2458.0,0.0055
2457.0,0.0055
2456.0,0.0055
2455.0,0.0055
2454.0,0.0055
2453.0,0.0055
2452.0,0.0055
2451.0,0.0055
2450.0,0.0055
2449.0,0.0055
2448.0,0.0055
2447.0,0.0056
2446.0,0.0056
2445.0,0.0056
2444.0,0.0056
2443.0,0.0056
2442.0,0.0056
2441.0,0.0056
2440.0,0.0057
2439.0,0.0057
2438.0,0.0057
2437.0,0.0057
2436.0,0.0057
2435.0,0.0057
2434.0,0.0057
2433.0,0.0057
2432.0,0.0057
2431.0,0.0057
2430.0,0.0057
2429.0,0.0057
2428.0,0.0057
2427.0,0.0057
2426.0,0.0057
2425.0,0.0057
2424.0,0.0058
2423.0,0.0058
2422.0,0.0058
2421.0,0.0057
2420.0,0.0056
2419.0,0.0056
2418.0,0.0056
2417.0,0.0057
2416.0,0.0057
2415.0,0.0058
2414.0,0.0058
2413.0,0.0058
2412.0,0.0058
2411.0,0.0058
2410.0,0.0057
2409.0,0.0057
2408.0,0.0056
2407.0,0.0056
2406.0,0.0057
2405.0,0.0057
2404.0,0.0058
2403.0,0.0058
2402.0,0.0058
2401.0,0.0058
2400.0,0.0058
2399.0,0.0059
2398.0,0.0059
2397.0,0.006
2396.0,0.006
2395.0,0.006
2394.0,0.0059
2393.0,0.0059
2392.0,0.0059
2391.0,0.0059
2390.0,0.0061
2389.0,0.0064
2388.0,0.0068
2387.0,0.0073
2386.0,0.0079
2385.0,0.0084
2384.0,0.0088
2383.0,0.0091
2382.0,0.0091
2381.0,0.0089
2380.0,0.0085
2379.0,0.0079
2378.0,0.0074
2377.0,0.0071
2376.0,0.007
2375.0,0.0073
2374.0,0.0079
2373.0,0.0088
2372.0,0.0099
2371.0,0.0109
2370.0,0.0119
2369.0,0.0126
2368.0,0.0132
2367.0,0.0135
2366.0,0.0136
2365.0,0.013
2364.0,0.0119
2363.0,0.0109
2362.0,0.0103
2361.0,0.0101
2360.0,0.0102
2359.0,0.0108
2358.0,0.0113
2357.0,0.0112
2356.0,0.0108
2355.0,0.0111
2354.0,0.0117
2353.0,0.0118
2352.0,0.0116
2351.0,0.0115
2350.0,0.0116
2349.0,0.0117
2348.0,0.0116
2347.0,0.0117
2346.0,0.0124
2345.0,0.0134
2344.0,0.0142
2343.0,0.0147
2342.0,0.0142
2341.0,0.0128
2340.0,0.0115
2339.0,0.0111
2338.0,0.0112
2337.0,0.0112
2336.0,0.011
2335.0,0.0104
2334.0,0.0093
2333.0,0.0081
2332.0,0.0075
2331.0,0.0081
2330.0,0.0097
2329.0,0.0112
2328.0,0.0123
2327.0,0.0125
2326.0,0.0119
2325.0,0.0108
2324.0,0.0095
2323.0,0.0084
2322.0,0.008
2321.0,0.0084
2320.0,0.0093
2319.0,0.0103
2318.0,0.0108
2317.0,0.011
2316.0,0.011
2315.0,0.0111
2314.0,0.0114
2313.0,0.0119
2312.0,0.0125
2311.0,0.013
2310.0,0.0133
2309.0,0.0132
2308.0,0.0128
2307.0,0.0123
2306.0,0.0117
2305.0,0.0114
2304.0,0.0114
2303.0,0.0115
2302.0,0.0116
2301.0,0.0117
2300.0,0.0116
2299.0,0.0115
2298.0,0.0114
2297.0,0.0113
2296.0,0.0111
2295.0,0.0109
2294.0,0.0105
2293.0,0.0101
2292.0,0.0097
2291.0,0.0094
2290.0,0.0091
2289.0,0.0088
2288.0,0.0085
2287.0,0.0081
2286.0,0.0078
2285.0,0.0075
2284.0,0.0074
2283.0,0.0074
2282.0,0.0075
2281.0,0.0076
2280.0,0.0077
2279.0,0.0078
2278.0,0.0078
2277.0,0.0078
2276.0,0.0077
2275.0,0.0076
2274.0,0.0075
2273.0,0.0075
2272.0,0.0074
2271.0,0.0074
2270.0,0.0074
2269.0,0.0074
2268.0,0.0074
2267.0,0.0074
2266.0,0.0075
2265.0,0.0075
2264.0,0.0075
2263.0,0.0075
2262.0,0.0074
2261.0,0.0074
2260.0,0.0074
2259.0,0.0073
2258.0,0.0073
2257.0,0.0073
2256.0,0.0072
2255.0,0.0072
2254.0,0.0072
2253.0,0.0072
2252.0,0.0071
2251.0,0.0071
2250.0,0.007
2249.0,0.0069
2248.0,0.0069
2247.0,0.0068
2246.0,0.0068
2245.0,0.0067
2244.0,0.0067
2243.0,0.0066
2242.0,0.0066
2241.0,0.0067
2240.0,0.0068
2239.0,0.0068
2238.0,0.0068
2237.0,0.0067
2236.0,0.0066
2235.0,0.0065
2234.0,0.0065
2233.0,0.0066
2232.0,0.0067
2231.0,0.0067
2230.0,0.0067
2229.0,0.0067
2228.0,0.0067
2227.0,0.0067
2226.0,0.0066
2225.0,0.0066
2224.0,0.0066
2223.0,0.0067
2222.0,0.0067
2221.0,0.0068
2220.0,0.0068
2219.0,0.0068
2218.0,0.0067
2217.0,0.0067
2216.0,0.0067
2215.0,0.0067
2214.0,0.0067
2213.0,0.0067
2212.0,0.0068
2211.0,0.0068
2210.0,0.0068
2209.0,0.0067
2208.0,0.0067
2207.0,0.0067
2206.0,0.0067
2205.0,0.0067
2204.0,0.0067
2203.0,0.0067
2202.0,0.0067
2201.0,0.0068
2200.0,0.0068
2199.0,0.0068
2198.0,0.0068
2197.0,0.0068
2196.0,0.0068
2195.0,0.0069
2194.0,0.0069
2193.0,0.0069
2192.0,0.0069
2191.0,0.0068
2190.0,0.0068
2189.0,0.0068
2188.0,0.0069
2187.0,0.0069
2186.0,0.0069
2185.0,0.0069
2184.0,0.0068
2183.0,0.0068
2182.0,0.0068
2181.0,0.0068
2180.0,0.0068
2179.0,0.0069
2178.0,0.0069
2177.0,0.0069
2176.0,0.0069
2175.0,0.007
2174.0,0.007
2173.0,0.007
2172.0,0.007
2171.0,0.0069
2170.0,0.0068
2169.0,0.0067
2168.0,0.0067
2167.0,0.0068
2166.0,0.0068
2165.0,0.0069
2164.0,0.0069
2163.0,0.007
2162.0,0.007
2161.0,0.007
2160.0,0.007
2159.0,0.007
2158.0,0.007
2157.0,0.007
2156.0,0.007
2155.0,0.007
2154.0,0.007
2153.0,0.007
2152.0,0.0071
2151.0,0.0071
2150.0,0.0071
2149.0,0.0071
2148.0,0.0072
2147.0,0.0071
2146.0,0.0071
2145.0,0.0071
2144.0,0.0071
2143.0,0.0071
2142.0,0.0071
2141.0,0.0072
2140.0,0.0072
2139.0,0.0072
2138.0,0.0072
2137.0,0.0072
2136.0,0.0072
2135.0,0.0072
2134.0,0.0072
2133.0,0.0072
2132.0,0.0071
2131.0,0.0071
2130.0,0.0071
2129.0,0.0071
2128.0,0.0071
2127.0,0.0072
2126.0,0.0072
2125.0,0.0072
2124.0,0.0072
2123.0,0.0072
2122.0,0.0072
2121.0,0.0072
2120.0,0.0072
2119.0,0.0073
2118.0,0.0073
2117.0,0.0073
2116.0,0.0074
2115.0,0.0074
2114.0,0.0073
2113.0,0.0073
2112.0,0.0073
2111.0,0.0073
2110.0,0.0074
2109.0,0.0074
2108.0,0.0074
2107.0,0.0073
2106.0,0.0073
2105.0,0.0072
2104.0,0.0072
2103.0,0.0072
2102.0,0.0072
2101.0,0.0073
2100.0,0.0073
2099.0,0.0074
2098.0,0.0074
2097.0,0.0074
2096.0,0.0074
2095.0,0.0074
2094.0,0.0073
2093.0,0.0073
2092.0,0.0073
2091.0,0.0074
2090.0,0.0074
2089.0,0.0074
2088.0,0.0074
2087.0,0.0074
2086.0,0.0074
2085.0,0.0074
2084.0,0.0074
2083.0,0.0075
2082.0,0.0075
2081.0,0.0075
2080.0,0.0076
2079.0,0.0076
2078.0,0.0076
2077.0,0.0076
2076.0,0.0076
2075.0,0.0075
2074.0,0.0075
2073.0,0.0075
2072.0,0.0075
2071.0,0.0076
2070.0,0.0076
2069.0,0.0076
2068.0,0.0076
2067.0,0.0076
2066.0,0.0075
2065.0,0.0075
2064.0,0.0075
2063.0,0.0075
2062.0,0.0075
2061.0,0.0075
2060.0,0.0076
2059.0,0.0076
2058.0,0.0076
2057.0,0.0076
2056.0,0.0076
2055.0,0.0076
2054.0,0.0076
2053.0,0.0076
2052.0,0.0076
2051.0,0.0076
2050.0,0.0076
2049.0,0.0076
2048.0,0.0076
2047.0,0.0077
2046.0,0.0077
2045.0,0.0077
2044.0,0.0077
2043.0,0.0077
2042.0,0.0078
2041.0,0.0078
2040.0,0.0077
2039.0,0.0077
2038.0,0.0077
2037.0,0.0077
2036.0,0.0077
2035.0,0.0077
2034.0,0.0077
2033.0,0.0077
2032.0,0.0077
2031.0,0.0077
2030.0,0.0077
2029.0,0.0077
2028.0,0.0077
2027.0,0.0077
2026.0,0.0077
2025.0,0.0077
2024.0,0.0078
2023.0,0.0078
2022.0,0.0078
2021.0,0.0079
2020.0,0.0079
2019.0,0.0079
2018.0,0.0078
2017.0,0.0078
2016.0,0.0078
2015.0,0.0078
2014.0,0.0078
2013.0,0.0079
2012.0,0.0079
2011.0,0.0079
2010.0,0.0079
2009.0,0.0079
2008.0,0.0079
2007.0,0.0078
2006.0,0.0078
2005.0,0.0079
2004.0,0.0079
2003.0,0.0079
2002.0,0.0079
2001.0,0.0079
2000.0,0.0079
1999.0,0.0079
1998.0,0.0079
1997.0,0.0079
1996.0,0.0079
1995.0,0.0078
1994.0,0.0078
1993.0,0.0078
1992.0,0.0078
1991.0,0.0078
1990.0,0.0078
1989.0,0.0079
1988.0,0.0079
1987.0,0.0079
1986.0,0.0079
1985.0,0.0079
1984.0,0.008
1983.0,0.008
1982.0,0.008
1981.0,0.008
1980.0,0.008
1979.0,0.008
1978.0,0.008
1977.0,0.008
1976.0,0.008
1975.0,0.008
1974.0,0.0079
1973.0,0.0079
1972.0,0.008
1971.0,0.008
1970.0,0.0081
1969.0,0.0081
1968.0,0.0081
1967.0,0.0081
1966.0,0.0081
1965.0,0.0081
1964.0,0.0081
1963.0,0.0082
1962.0,0.0082
1961.0,0.0082
1960.0,0.0082
1959.0,0.0083
1958.0,0.0083
1957.0,0.0084
1956.0,0.0084
1955.0,0.0084
1954.0,0.0084
1953.0,0.0084
1952.0,0.0084
1951.0,0.0084
1950.0,0.0085
1949.0,0.0085
1948.0,0.0086
1947.0,0.0086
1946.0,0.0086
1945.0,0.0086
1944.0,0.0086
1943.0,0.0087
1942.0,0.0087
1941.0,0.0087
1940.0,0.0087
1939.0,0.0087
1938.0,0.0087
1937.0,0.0087
1936.0,0.0087
1935.0,0.0088
1934.0,0.0088
1933.0,0.0087
1932.0,0.0087
1931.0,0.0086
1930.0,0.0087
1929.0,0.0087
1928.0,0.0087
1927.0,0.0087
1926.0,0.0087
1925.0,0.0087
1924.0,0.0086
1923.0,0.0086
1922.0,0.0086
1921.0,0.0086
1920.0,0.0087
1919.0,0.0087
1918.0,0.0087
1917.0,0.0086
1916.0,0.0086
1915.0,0.0086
1914.0,0.0086
1913.0,0.0086
1912.0,0.0086
1911.0,0.0086
1910.0,0.0086
1909.0,0.0085
1908.0,0.0085
1907.0,0.0085
1906.0,0.0085
1905.0,0.0086
1904.0,0.0086
1903.0,0.0086
1902.0,0.0086
1901.0,0.0086
1900.0,0.0086
1899.0,0.0086
1898.0,0.0086
1897.0,0.0086
1896.0,0.0087
1895.0,0.0087
1894.0,0.0088
1893.0,0.0088
1892.0,0.0088
1891.0,0.0089
1890.0,0.0089
1889.0,0.0089
1888.0,0.0089
1887.0,0.0089
1886.0,0.009
1885.0,0.009
1884.0,0.0089
1883.0,0.0089
1882.0,0.0089
1881.0,0.0089
1880.0,0.009
1879.0,0.0091
1878.0,0.0091
1877.0,0.009
1876.0,0.009
1875.0,0.009
1874.0,0.0091
1873.0,0.0091
1872.0,0.0091
1871.0,0.0092
1870.0,0.0092
1869.0,0.0092
1868.0,0.0092
1867.0,0.0091
1866.0,0.0092
1865.0,0.0092
1864.0,0.0093
1863.0,0.0093
1862.0,0.0093
1861.0,0.0093
1860.0,0.0092
1859.0,0.0092
1858.0,0.0092
1857.0,0.0092
1856.0,0.0092
1855.0,0.0093
1854.0,0.0093
1853.0,0.0093
1852.0,0.0092
1851.0,0.0092
1850.0,0.0091
1849.0,0.0092
1848.0,0.0092
1847.0,0.0093
1846.0,0.0093
1845.0,0.0094
1844.0,0.0094
1843.0,0.0093
1842.0,0.0092
1841.0,0.0092
1840.0,0.0092
1839.0,0.0092
1838.0,0.0092
1837.0,0.0092
1836.0,0.0091
1835.0,0.0091
1834.0,0.0091
1833.0,0.009
1832.0,0.009
1831.0,0.009
1830.0,0.009
1829.0,0.009
1828.0,0.0091
1827.0,0.0091
1826.0,0.0092
1825.0,0.0092
1824.0,0.0093
1823.0,0.0093
1822.0,0.0094
1821.0,0.0094
1820.0,0.0095
1819.0,0.0095
1818.0,0.0095
1817.0,0.0095
1816.0,0.0095
1815.0,0.0094
1814.0,0.0094
1813.0,0.0094
1812.0,0.0095
1811.0,0.0095
1810.0,0.0096
1809.0,0.0096
1808.0,0.0097
1807.0,0.0097
1806.0,0.0097
1805.0,0.0097
1804.0,0.0097
1803.0,0.0097
1802.0,0.0098
1801.0,0.0098
1800.0,0.0098
1799.0,0.0098
1798.0,0.0099
1797.0,0.0099
1796.0,0.01
1795.0,0.01
1794.0,0.01
1793.0,0.01
1792.0,0.01
1791.0,0.0099
1790.0,0.0098
1789.0,0.0098
1788.0,0.0098
1787.0,0.0098
1786.0,0.0098
1785.0,0.0098
1784.0,0.0098
1783.0,0.0098
1782.0,0.0098
1781.0,0.0098
1780.0,0.0098
1779.0,0.0098
1778.0,0.0097
1777.0,0.0097
1776.0,0.0097
1775.0,0.0098
1774.0,0.0098
1773.0,0.0099
1772.0,0.0099
1771.0,0.0099
1770.0,0.0099
1769.0,0.0099
1768.0,0.0099
1767.0,0.0099
1766.0,0.0099
1765.0,0.0099
1764.0,0.0099
1763.0,0.0099
1762.0,0.01
1761.0,0.0101
1760.0,0.0101
1759.0,0.0101
1758.0,0.0101
1757.0,0.0101
1756.0,0.0101
1755.0,0.0102
1754.0,0.0102
1753.0,0.0103
1752.0,0.0104
1751.0,0.0105
1750.0,0.0105
1749.0,0.0105
1748.0,0.0105
1747.0,0.0104
1746.0,0.0104
1745.0,0.0104
1744.0,0.0104
1743.0,0.0104
1742.0,0.0104
1741.0,0.0105
1740.0,0.0105
1739.0,0.0105
1738.0,0.0106
1737.0,0.0107
1736.0,0.0108
1735.0,0.011
1734.0,0.0111
1733.0,0.011
1732.0,0.0109
1731.0,0.0107
1730.0,0.0106
1729.0,0.0106
1728.0,0.0106
1727.0,0.0106
1726.0,0.0106
1725.0,0.0107
1724.0,0.0107
1723.0,0.0107
1722.0,0.0107
1721.0,0.0106
1720.0,0.0106
1719.0,0.0107
1718.0,0.0109
1717.0,0.011
1716.0,0.0109
1715.0,0.0108
1714.0,0.0108
1713.0,0.0108
1712.0,0.0108
1711.0,0.0108
1710.0,0.0108
1709.0,0.0107
1708.0,0.0107
1707.0,0.0106
1706.0,0.0106
1705.0,0.0107
1704.0,0.0107
1703.0,0.0107
1702.0,0.0107
1701.0,0.0107
1700.0,0.0108
1699.0,0.011
1698.0,0.011
1697.0,0.011
1696.0,0.0109
1695.0,0.0109
1694.0,0.011
1693.0,0.0111
1692.0,0.0112
1691.0,0.0113
1690.0,0.0113
1689.0,0.0114
1688.0,0.0113
1687.0,0.0112
1686.0,0.011
1685.0,0.0109
1684.0,0.011
1683.0,0.0113
1682.0,0.0115
1681.0,0.0117
1680.0,0.0117
1679.0,0.0117
1678.0,0.0117
1677.0,0.0118
1676.0,0.0118
1675.0,0.0119
1674.0,0.0119
1673.0,0.0119
1672.0,0.0119
1671.0,0.012
1670.0,0.0121
1669.0,0.0121
1668.0,0.0121
1667.0,0.0121
1666.0,0.0121
1665.0,0.0121
1664.0,0.0122
1663.0,0.0123
1662.0,0.0123
1661.0,0.0124
1660.0,0.0124
1659.0,0.0125
1658.0,0.0125
1657.0,0.0125
1656.0,0.0125
1655.0,0.0124
1654.0,0.0123
1653.0,0.0123
1652.0,0.0123
1651.0,0.0123
1650.0,0.0123
1649.0,0.0124
1648.0,0.0126
1647.0,0.0128
1646.0,0.0128
1645.0,0.0128
1644.0,0.0128
1643.0,0.0127
1642.0,0.0127
1641.0,0.0126
1640.0,0.0125
1639.0,0.0125
1638.0,0.0125
1637.0,0.0126
1636.0,0.0126
1635.0,0.0125
1634.0,0.0125
1633.0,0.0124
1632.0,0.0125
1631.0,0.0124
1630.0,0.0124
1629.0,0.0123
1628.0,0.0123
1627.0,0.0124
1626.0,0.0124
1625.0,0.0125
1624.0,0.0125
1623.0,0.0125
1622.0,0.0125
1621.0,0.0125
1620.0,0.0124
1619.0,0.0124
1618.0,0.0123
1617.0,0.0123
1616.0,0.0123
1615.0,0.0122
1614.0,0.0122
1613.0,0.0122
1612.0,0.0122
1611.0,0.0122
1610.0,0.0123
1609.0,0.0125
1608.0,0.0127
1607.0,0.013
1606.0,0.0133
1605.0,0.0137
1604.0,0.0143
1603.0,0.0148
1602.0,0.0153
1601.0,0.0155
1600.0,0.0156
1599.0,0.0155
1598.0,0.0152
1597.0,0.0149
1596.0,0.0146
1595.0,0.0143
1594.0,0.0141
1593.0,0.0139
1592.0,0.0137
1591.0,0.0136
1590.0,0.0135
1589.0,0.0134
1588.0,0.0133
1587.0,0.0133
1586.0,0.0133
1585.0,0.0135
1584.0,0.0137
1583.0,0.0138
1582.0,0.0139
1581.0,0.0138
1580.0,0.0136
1579.0,0.0134
1578.0,0.0133
1577.0,0.0132
1576.0,0.0132
1575.0,0.0131
1574.0,0.0131
1573.0,0.013
1572.0,0.0129
1571.0,0.0128
1570.0,0.0128
1569.0,0.0127
1568.0,0.0127
1567.0,0.0127
1566.0,0.0127
1565.0,0.0127
1564.0,0.0128
1563.0,0.0127
1562.0,0.0126
1561.0,0.0123
1560.0,0.0121
1559.0,0.0123
1558.0,0.0125
1557.0,0.0126
1556.0,0.0127
1555.0,0.0128
1554.0,0.0128
1553.0,0.0128
1552.0,0.0128
1551.0,0.0127
1550.0,0.0127
1549.0,0.0127
1548.0,0.0128
1547.0,0.0128
1546.0,0.0128
1545.0,0.0129
1544.0,0.013
1543.0,0.013
1542.0,0.0132
1541.0,0.0132
1540.0,0.0129
1539.0,0.0127
1538.0,0.0127
1537.0,0.0128
1536.0,0.0128
1535.0,0.0127
1534.0,0.0127
1533.0,0.0127
1532.0,0.0126
1531.0,0.0126
1530.0,0.0126
1529.0,0.0125
1528.0,0.0125
1527.0,0.0125
1526.0,0.0126
1525.0,0.0126
1524.0,0.0126
1523.0,0.0126
1522.0,0.0127
1521.0,0.0126
1520.0,0.0124
1519.0,0.0123
1518.0,0.0121
1517.0,0.0121
1516.0,0.0122
1515.0,0.0123
1514.0,0.0123
1513.0,0.0123
1512.0,0.0122
1511.0,0.0121
1510.0,0.012
1509.0,0.0119
1508.0,0.0118
1507.0,0.0117
1506.0,0.0116
1505.0,0.0118
1504.0,0.012
1503.0,0.0121
1502.0,0.0122
1501.0,0.0122
1500.0,0.0122
1499.0,0.0125
1498.0,0.0133
1497.0,0.015
1496.0,0.0173
1495.0,0.0195
1494.0,0.0212
1493.0,0.0222
1492.0,0.0225
1491.0,0.0219
1490.0,0.0205
1489.0,0.019
1488.0,0.0178
1487.0,0.0171
1486.0,0.0165
1485.0,0.0162
1484.0,0.0158
1483.0,0.0155
1482.0,0.0153
1481.0,0.015
1480.0,0.0149
1479.0,0.0147
1478.0,0.0145
1477.0,0.0144
1476.0,0.0143
1475.0,0.0143
1474.0,0.0143
1473.0,0.0143
1472.0,0.0141
1471.0,0.014
1470.0,0.014
1469.0,0.014
1468.0,0.014
1467.0,0.0139
1466.0,0.0139
1465.0,0.0138
1464.0,0.0138
1463.0,0.0138
1462.0,0.0137
1461.0,0.0136
1460.0,0.0136
1459.0,0.0138
1458.0,0.0146
1457.0,0.0164
1456.0,0.0184
1455.0,0.0202
1454.0,0.0218
1453.0,0.0231
1452.0,0.024
1451.0,0.0241
1450.0,0.0236
1449.0,0.0229
1448.0,0.0221
1447.0,0.0215
1446.0,0.0211
1445.0,0.0207
1444.0,0.0204
1443.0,0.02
1442.0,0.0197
1441.0,0.0194
1440.0,0.0192
1439.0,0.019
1438.0,0.0188
1437.0,0.0184
1436.0,0.018
1435.0,0.0177
1434.0,0.0174
1433.0,0.0171
1432.0,0.0169
1431.0,0.0166
1430.0,0.0165
1429.0,0.0164
1428.0,0.0163
1427.0,0.0162
1426.0,0.016
1425.0,0.0159
1424.0,0.0159
1423.0,0.0159
1422.0,0.0158
1421.0,0.0157
1420.0,0.0156
1419.0,0.0156
1418.0,0.0156
1417.0,0.0156
1416.0,0.0156
1415.0,0.0156
1414.0,0.0156
1413.0,0.0156
1412.0,0.0155
1411.0,0.0155
1410.0,0.0155
1409.0,0.0155
1408.0,0.0155
1407.0,0.0155
1406.0,0.0154
1405.0,0.0155
1404.0,0.0155
1403.0,0.0154
1402.0,0.0154
1401.0,0.0153
1400.0,0.0153
1399.0,0.0153
1398.0,0.0153
1397.0,0.0153
1396.0,0.0153
1395.0,0.0153
1394.0,0.0153
1393.0,0.0154
1392.0,0.0154
1391.0,0.0155
1390.0,0.0155
1389.0,0.0156
1388.0,0.0157
1387.0,0.0159
1386.0,0.016
1385.0,0.016
1384.0,0.0161
1383.0,0.0162
1382.0,0.0163
1381.0,0.0164
1380.0,0.0165
1379.0,0.0166
1378.0,0.0166
1377.0,0.0167
1376.0,0.0168
1375.0,0.017
1374.0,0.0171
1373.0,0.0171
1372.0,0.0172
1371.0,0.0172
1370.0,0.0172
1369.0,0.0172
1368.0,0.0171
1367.0,0.0171
1366.0,0.0171
1365.0,0.017
1364.0,0.0171
1363.0,0.0171
1362.0,0.0172
1361.0,0.0172
1360.0,0.0172
1359.0,0.0172
1358.0,0.0171
1357.0,0.0171
1356.0,0.0171
1355.0,0.017
1354.0,0.017
1353.0,0.017
1352.0,0.0171
1351.0,0.0171
1350.0,0.0171
1349.0,0.0171
1348.0,0.017
1347.0,0.017
1346.0,0.0169
1345.0,0.0169
1344.0,0.0169
1343.0,0.0169
1342.0,0.0169
1341.0,0.017
1340.0,0.017
1339.0,0.017
1338.0,0.017
1337.0,0.0169
1336.0,0.0169
1335.0,0.0169
1334.0,0.017
1333.0,0.017
1332.0,0.0171
1331.0,0.0171
1330.0,0.0172
1329.0,0.0172
1328.0,0.0172
1327.0,0.0172
1326.0,0.0172
1325.0,0.0172
1324.0,0.0173
1323.0,0.0173
1322.0,0.0173
1321.0,0.0172
1320.0,0.0172
1319.0,0.0172
1318.0,0.0173
1317.0,0.0174
1316.0,0.0175
1315.0,0.0176
1314.0,0.0176
1313.0,0.0176
1312.0,0.0176
1311.0,0.0175
1310.0,0.0175
1309.0,0.0175
1308.0,0.0175
1307.0,0.0176
1306.0,0.0176
1305.0,0.0176
1304.0,0.0176
1303.0,0.0176
1302.0,0.0175
1301.0,0.0175
1300.0,0.0174
1299.0,0.0174
1298.0,0.0174
1297.0,0.0174
1296.0,0.0175
1295.0,0.0175
1294.0,0.0175
1293.0,0.0176
1292.0,0.0176
1291.0,0.0176
1290.0,0.0176
1289.0,0.0175
1288.0,0.0175
1287.0,0.0175
1286.0,0.0175
1285.0,0.0176
1284.0,0.0176
1283.0,0.0176
1282.0,0.0176
1281.0,0.0176
1280.0,0.0176
1279.0,0.0176
1278.0,0.0176
1277.0,0.0176
1276.0,0.0176
1275.0,0.0177
1274.0,0.0177
1273.0,0.0177
1272.0,0.0177
1271.0,0.0177
1270.0,0.0177
1269.0,0.0177
1268.0,0.0177
1267.0,0.0176
1266.0,0.0176
1265.0,0.0176
1264.0,0.0177
1263.0,0.0177
1262.0,0.0177
1261.0,0.0177
1260.0,0.0177
1259.0,0.0177
1258.0,0.0177
1257.0,0.0177
1256.0,0.0177
1255.0,0.0177
1254.0,0.0177
1253.0,0.0177
1252.0,0.0177
1251.0,0.0177
1250.0,0.0177
1249.0,0.0178
1248.0,0.0178
1247.0,0.0178
1246.0,0.0178
1245.0,0.0179
1244.0,0.0179
1243.0,0.0179
1242.0,0.0179
1241.0,0.0179
1240.0,0.0179
1239.0,0.0179
1238.0,0.0178
1237.0,0.0178
1236.0,0.0178
1235.0,0.0178
1234.0,0.0179
1233.0,0.0179
1232.0,0.018
1231.0,0.018
1230.0,0.018
1229.0,0.018
1228.0,0.018
1227.0,0.0179
1226.0,0.018
1225.0,0.018
1224.0,0.018
1223.0,0.018
1222.0,0.018
1221.0,0.0181
1220.0,0.0182
1219.0,0.0181
1218.0,0.0181
1217.0,0.018
1216.0,0.018
1215.0,0.018
1214.0,0.0181
1213.0,0.0182
1212.0,0.0183
1211.0,0.0183
1210.0,0.0183
1209.0,0.0184
1208.0,0.0184
1207.0,0.0185
1206.0,0.0185
1205.0,0.0185
1204.0,0.0185
1203.0,0.0186
1202.0,0.0186
1201.0,0.0186
1200.0,0.0187
1199.0,0.0188
1198.0,0.0189
1197.0,0.019
1196.0,0.0191
1195.0,0.0192
1194.0,0.0193
1193.0,0.0193
1192.0,0.0193
1191.0,0.0193
1190.0,0.0193
1189.0,0.0194
1188.0,0.0195
1187.0,0.0195
1186.0,0.0196
1185.0,0.0197
1184.0,0.0198
1183.0,0.02
1182.0,0.0202
1181.0,0.0204
1180.0,0.0205
1179.0,0.0205
1178.0,0.0203
1177.0,0.0201
1176.0,0.02
1175.0,0.02
1174.0,0.02
1173.0,0.0199
1172.0,0.0199
1171.0,0.0198
1170.0,0.0197
1169.0,0.0197
1168.0,0.0197
1167.0,0.0197
1166.0,0.0197
1165.0,0.0198
1164.0,0.0199
1163.0,0.0199
1162.0,0.0198
1161.0,0.0199
1160.0,0.02
1159.0,0.0202
1158.0,0.0204
1157.0,0.0206
1156.0,0.0209
1155.0,0.0211
1154.0,0.0213
1153.0,0.0213
1152.0,0.0213
1151.0,0.0212
1150.0,0.021
1149.0,0.0209
1148.0,0.0209
1147.0,0.0208
1146.0,0.0207
1145.0,0.0206
1144.0,0.0205
1143.0,0.0204
1142.0,0.0203
1141.0,0.0202
1140.0,0.0203
1139.0,0.0204
1138.0,0.0205
1137.0,0.0206
1136.0,0.0206
1135.0,0.0205
1134.0,0.0204
1133.0,0.0204
1132.0,0.0204
1131.0,0.0204
1130.0,0.0204
1129.0,0.0204
1128.0,0.0204
1127.0,0.0204
1126.0,0.0204
1125.0,0.0203
1124.0,0.0203
1123.0,0.0202
1122.0,0.0202
1121.0,0.0202
1120.0,0.0203
1119.0,0.0204
1118.0,0.0205
1117.0,0.0206
1116.0,0.0207
1115.0,0.0208
1114.0,0.0209
1113.0,0.0209
1112.0,0.021
1111.0,0.0211
1110.0,0.0211
1109.0,0.0211
1108.0,0.0211
1107.0,0.021
1106.0,0.0209
1105.0,0.0208
1104.0,0.0207
1103.0,0.0207
1102.0,0.0208
1101.0,0.0208
1100.0,0.0209
1099.0,0.0209
1098.0,0.021
1097.0,0.021
1096.0,0.021
1095.0,0.0209
1094.0,0.0209
1093.0,0.021
1092.0,0.0211
1091.0,0.0212
1090.0,0.0212
1089.0,0.0212
1088.0,0.0212
1087.0,0.0212
1086.0,0.0213
1085.0,0.0213
1084.0,0.0213
1083.0,0.0213
1082.0,0.0214
1081.0,0.0216
1080.0,0.0217
1079.0,0.0218
1078.0,0.022
1077.0,0.0221
1076.0,0.0223
1075.0,0.0224
1074.0,0.0225
1073.0,0.0227
1072.0,0.0229
1071.0,0.0231
1070.0,0.0233
1069.0,0.0235
1068.0,0.0236
1067.0,0.0236
1066.0,0.0235
1065.0,0.0235
1064.0,0.0234
1063.0,0.0233
1062.0,0.0231
1061.0,0.0229
1060.0,0.0229
1059.0,0.0228
1058.0,0.0228
1057.0,0.0228
1056.0,0.0227
1055.0,0.0226
1054.0,0.0225
1053.0,0.0225
1052.0,0.0225
1051.0,0.0224
1050.0,0.0224
1049.0,0.0224
1048.0,0.0224
1047.0,0.0223
1046.0,0.0223
1045.0,0.0222
1044.0,0.0222
1043.0,0.0221
1042.0,0.022
1041.0,0.0219
1040.0,0.0219
1039.0,0.0219
1038.0,0.022
1037.0,0.0222
1036.0,0.0225
1035.0,0.0229
1034.0,0.0234
1033.0,0.0241
1032.0,0.0249
1031.0,0.0258
1030.0,0.0266
1029.0,0.0272
1028.0,0.0276
1027.0,0.0278
1026.0,0.0278
1025.0,0.0276
1024.0,0.0273
1023.0,0.0269
1022.0,0.0264
1021.0,0.0261
1020.0,0.0258
1019.0,0.0256
1018.0,0.0253
1017.0,0.0251
1016.0,0.025
1015.0,0.0249
1014.0,0.0248
1013.0,0.0247
1012.0,0.0247
1011.0,0.0247
1010.0,0.0247
1009.0,0.0247
1008.0,0.0247
1007.0,0.0247
1006.0,0.0247
1005.0,0.0248
1004.0,0.0249
1003.0,0.025
1002.0,0.025
1001.0,0.025
1000.0,0.0249
999.0,0.0249
998.0,0.0248
997.0,0.0247
996.0,0.0246
995.0,0.0245
994.0,0.0244
993.0,0.0244
992.0,0.0244
991.0,0.0244
990.0,0.0244
989.0,0.0244
988.0,0.0244
987.0,0.0244
986.0,0.0245
985.0,0.0246
984.0,0.0247
983.0,0.0248
982.0,0.0249
981.0,0.025
980.0,0.0251
979.0,0.0251
978.0,0.0251
977.0,0.0252
976.0,0.0252
975.0,0.0252
974.0,0.0252
973.0,0.0252
972.0,0.0253
971.0,0.0254
970.0,0.0255
969.0,0.0256
968.0,0.0257
967.0,0.0259
966.0,0.026
965.0,0.0261
964.0,0.0261
963.0,0.0261
962.0,0.0261
961.0,0.0261
960.0,0.0261
959.0,0.0261
958.0,0.0261
957.0,0.026
956.0,0.0259
955.0,0.0259
954.0,0.0259
953.0,0.0259
952.0,0.026
951.0,0.026
950.0,0.0261
949.0,0.0262
948.0,0.0262
947.0,0.0262
946.0,0.0263
945.0,0.0264
944.0,0.0265
943.0,0.0267
942.0,0.0268
941.0,0.0268
940.0,0.0268
939.0,0.0267
938.0,0.0266
937.0,0.0265
936.0,0.0265
935.0,0.0265
934.0,0.0265
933.0,0.0266
932.0,0.0266
931.0,0.0265
930.0,0.0265
929.0,0.0265
928.0,0.0266
927.0,0.0267
926.0,0.0268
925.0,0.0268
924.0,0.0268
923.0,0.0267
922.0,0.0267
921.0,0.0268
920.0,0.027
919.0,0.0271
918.0,0.0272
917.0,0.0273
916.0,0.0274
915.0,0.0275
914.0,0.0277
913.0,0.0281
912.0,0.0287
911.0,0.0293
910.0,0.0299
909.0,0.0303
908.0,0.0307
907.0,0.031
906.0,0.0312
905.0,0.0314
904.0,0.0315
903.0,0.0315
902.0,0.0313
901.0,0.031
900.0,0.0307
899.0,0.0303
898.0,0.03
897.0,0.0298
896.0,0.0297
895.0,0.0296
894.0,0.0296
893.0,0.0295
892.0,0.0294
891.0,0.0293
890.0,0.0293
889.0,0.0292
888.0,0.0292
887.0,0.0292
886.0,0.0292
885.0,0.0292
884.0,0.0291
883.0,0.0291
882.0,0.029
881.0,0.0289
880.0,0.0288
879.0,0.0287
878.0,0.0287
877.0,0.0287
876.0,0.0288
875.0,0.0289
874.0,0.0289
873.0,0.0289
872.0,0.0289
871.0,0.0289
870.0,0.0289
869.0,0.0289
868.0,0.0289
867.0,0.0289
866.0,0.0288
865.0,0.0289
864.0,0.0289
863.0,0.0289
862.0,0.0289
861.0,0.0288
860.0,0.0288
859.0,0.029
858.0,0.0292
857.0,0.0292
856.0,0.0292
855.0,0.0291
854.0,0.029
853.0,0.0289
852.0,0.0289
851.0,0.0291
850.0,0.0293
849.0,0.0295
848.0,0.0296
847.0,0.0297
846.0,0.0297
845.0,0.0298
844.0,0.03
843.0,0.0302
842.0,0.0303
841.0,0.0304
840.0,0.0305
839.0,0.0306
838.0,0.0307
837.0,0.0308
836.0,0.0308
835.0,0.0308
834.0,0.0306
833.0,0.0303
832.0,0.03
831.0,0.0297
830.0,0.0295
829.0,0.0294
828.0,0.0295
827.0,0.0296
826.0,0.0297
825.0,0.0299
824.0,0.03
823.0,0.03
822.0,0.0299
821.0,0.0297
820.0,0.0296
819.0,0.0296
818.0,0.0296
817.0,0.0295
816.0,0.0294
815.0,0.0293
814.0,0.0291
813.0,0.0291
812.0,0.0291
811.0,0.0291
810.0,0.0291
809.0,0.0292
808.0,0.0293
807.0,0.0295
806.0,0.0296
805.0,0.0296
804.0,0.0296
803.0,0.0294
802.0,0.0292
801.0,0.029
800.0,0.0288
799.0,0.0288
798.0,0.0288
797.0,0.0289
796.0,0.029
795.0,0.0292
794.0,0.0294
793.0,0.0295
792.0,0.0297
791.0,0.0298
790.0,0.0298
789.0,0.0297
788.0,0.0297
787.0,0.0298
786.0,0.0301
785.0,0.0304
784.0,0.0307
783.0,0.0309
782.0,0.031
781.0,0.0312
780.0,0.0314
779.0,0.0317
778.0,0.032
777.0,0.0324
776.0,0.0329
775.0,0.0336
774.0,0.0346
773.0,0.0357
772.0,0.037
771.0,0.0383
770.0,0.0395
769.0,0.0408
768.0,0.0421
767.0,0.0436
766.0,0.045
765.0,0.0465
764.0,0.0479
763.0,0.0496
762.0,0.0515
761.0,0.0535
760.0,0.0555
759.0,0.0571
758.0,0.0585
757.0,0.0596
756.0,0.0606
755.0,0.0613
754.0,0.0617
753.0,0.062
752.0,0.0622
751.0,0.0624
750.0,0.0626
749.0,0.0628
748.0,0.0631
747.0,0.0631
746.0,0.0628
745.0,0.062
744.0,0.0609
743.0,0.0595
742.0,0.0577
741.0,0.0559
740.0,0.054
739.0,0.0523
738.0,0.0507
737.0,0.0493
736.0,0.048
735.0,0.0467
734.0,0.0453
733.0,0.0438
732.0,0.0424
731.0,0.0413
730.0,0.0402
729.0,0.0392
728.0,0.0384
727.0,0.0378
726.0,0.0372
725.0,0.0366
724.0,0.036
723.0,0.0356
722.0,0.0355
721.0,0.0356
720.0,0.0351
719.0,0.0341
718.0,0.0327
717.0,0.0316
716.0,0.0307
715.0,0.0298
714.0,0.029
713.0,0.0284
712.0,0.0281
711.0,0.0285
710.0,0.0296
709.0,0.0319
708.0,0.0356
707.0,0.0408
706.0,0.0477
705.0,0.0564
704.0,0.067
703.0,0.0792
702.0,0.0929
701.0,0.108
700.0,0.1238
699.0,0.1396
698.0,0.154
697.0,0.1656
696.0,0.1724
695.0,0.1724
694.0,0.1649
693.0,0.1521
692.0,0.1371
691.0,0.1227
690.0,0.1105
689.0,0.1016
688.0,0.0954
687.0,0.0908
686.0,0.0868
685.0,0.0831
684.0,0.0798
683.0,0.0767
682.0,0.074
681.0,0.0717
680.0,0.0699
679.0,0.0684
678.0,0.0671
677.0,0.0663
676.0,0.066
675.0,0.0659
674.0,0.066
673.0,0.0662
672.0,0.0653
671.0,0.0618
670.0,0.0548
669.0,0.0457
668.0,0.039
667.0,0.0413
666.0,0.049
665.0,0.0554
664.0,0.0584
663.0,0.0588
662.0,0.0582
661.0,0.0574
660.0,0.057
659.0,0.0567
658.0,0.0564
657.0,0.056
656.0,0.0557
655.0,0.0554
654.0,0.0552
653.0,0.0549
652.0,0.0547
651.0,0.0544
650.0,0.054
649.0,0.0537
648.0,0.0536
647.0,0.0531
646.0,0.0521
645.0,0.0511
644.0,0.0506
643.0,0.0507
642.0,0.0511
641.0,0.0513
640.0,0.0513
639.0,0.0509
638.0,0.0508
637.0,0.0515
636.0,0.0529
635.0,0.0546
634.0,0.0556
633.0,0.0556
632.0,0.0547
631.0,0.053
630.0,0.0513
629.0,0.0502
628.0,0.05
627.0,0.0502
626.0,0.0507
625.0,0.0514
624.0,0.0524
623.0,0.0533
622.0,0.0538
621.0,0.0542
620.0,0.0549
619.0,0.0556
618.0,0.0559
617.0,0.0556
616.0,0.0552
615.0,0.0549
614.0,0.0547
613.0,0.0545
612.0,0.0541
611.0,0.0539
610.0,0.054
609.0,0.0542
608.0,0.0539
607.0,0.0528
606.0,0.0514
605.0,0.0508
604.0,0.051
603.0,0.0516
602.0,0.052
601.0,0.0524
600.0,0.0525
