nm,Intensity
526.5,830.1
526.637,830.3
526.774,830.1
526.91,829.7
527.047,830.2
527.184,829.3
527.32,829.3
527.457,830.4
527.594,829.5
527.73,829.5
527.867,830.6
528.004,830.3
528.14,829.6
528.277,828.9
528.414,828.9
528.55,829.7
528.687,829.7
528.823,830.7
528.96,829.2
529.096,829.0
529.233,829.8
529.37,829.9
529.506,830.7
529.643,829.7
529.779,830.4
529.916,830.2
530.052,829.6
530.189,830.1
530.325,830.7
530.462,829.7
530.598,830.4
530.735,830.8
530.871,829.7
531.008,830.6
531.144,830.6
531.28,830.9
531.417,830.6
531.553,828.8
531.69,830.6
531.826,830.5
531.962,836.0
532.099,877.4
532.235,884.3
532.372,842.8
532.508,831.6
532.644,830.1
532.781,829.4
532.917,831.2
533.053,829.8
533.19,829.5
533.326,829.3
533.462,832.4
533.599,845.4
533.735,973.3
533.871,1529.2
534.007,2361.8
534.144,2701.1
534.28,2689.3
534.416,2634.7
534.552,2585.9
534.689,2571.2
534.825,2520.6
534.961,2417.8
535.097,2353.7
535.234,2333.4
535.37,2321.4
535.506,2306.6
535.642,2288.2
535.778,2259.5
535.914,2242.8
536.051,2222.2
536.187,2206.8
536.323,2196.5
536.459,2185.6
536.595,2167.0
536.731,2164.1
536.867,2173.9
537.003,2165.9
537.14,2171.4
537.276,2166.0
537.412,2171.1
537.548,2170.4
537.684,2163.6
537.82,2173.9
537.956,2172.0
538.092,2186.2
538.228,2206.2
538.364,2202.0
538.5,2205.2
538.636,2217.0
538.772,2204.5
538.908,2213.1
539.044,2209.2
539.18,2217.5
539.316,2217.3
539.452,2245.8
539.588,2256.8
539.724,2269.6
539.86,2285.9
539.996,2293.7
540.132,2308.3
540.268,2287.2
540.403,2283.3
540.539,2262.1
540.675,2273.3
540.811,2278.7
540.947,2282.0
541.083,2287.6
541.219,2284.9
541.355,2271.0
541.49,2291.1
541.626,2288.0
541.762,2296.9
541.898,2291.7
542.034,2321.7
542.17,2298.2
542.305,2319.5
542.441,2320.2
542.577,2333.5
542.713,2343.2
542.848,2348.0
542.984,2356.9
543.12,2349.3
543.256,2363.0
543.391,2372.5
543.527,2372.6
543.663,2379.6
543.799,2387.1
543.934,2394.9
544.07,2419.3
544.206,2410.4
544.341,2408.5
544.477,2394.8
544.613,2407.9
544.748,2430.6
544.884,2435.8
545.02,2430.3
545.155,2438.9
545.291,2445.4
545.427,2453.4
545.562,2446.5
545.698,2449.3
545.833,2459.2
545.969,2463.5
546.105,2465.0
546.24,2481.6
546.376,2471.4
546.511,2471.8
546.647,2488.4
546.782,2505.9
546.918,2486.5
547.053,2520.1
547.189,2511.2
547.325,2498.4
547.46,2507.6
547.596,2518.3
547.731,2516.6
547.867,2517.9
548.002,2515.3
548.137,2524.5
548.273,2538.5
548.408,2535.1
548.544,2544.4
548.679,2571.7
548.815,2604.4
548.95,2589.8
549.086,2582.2
549.221,2575.3
549.356,2576.6
549.492,2580.6
549.627,2572.7
549.763,2601.7
549.898,2599.0
550.033,2593.0
550.169,2606.6
550.304,2601.5
550.439,2641.8
550.575,2780.2
550.71,2942.1
550.845,2778.9
550.981,2647.4
551.116,2644.4
551.251,2641.9
551.387,2675.9
551.522,2656.2
551.657,2672.2
551.793,2666.5
551.928,2672.1
552.063,2680.6
552.198,2668.9
552.334,2694.7
552.469,2699.5
552.604,2692.1
552.739,2744.5
552.874,2754.8
553.01,2745.4
553.145,2706.4
553.28,2713.3
553.415,2707.7
553.55,2722.8
553.686,2720.6
553.821,2743.1
553.956,2740.1
554.091,2741.1
554.226,2744.0
554.361,2760.3
554.497,2770.3
554.632,2768.3
554.767,2778.4
554.902,2770.3
555.037,2780.5
555.172,2799.2
555.307,2796.7
555.442,2810.1
555.577,2842.6
555.712,2851.6
555.848,2839.1
555.983,2849.1
556.118,2830.6
556.253,2872.7
556.388,2861.3
556.523,2880.9
556.658,2879.2
556.793,2905.8
556.928,2906.8
557.063,2924.7
557.198,2976.7
557.333,3030.4
557.468,3166.1
557.603,3330.9
557.738,3347.6
557.873,3156.2
558.008,3018.3
558.142,2947.9
558.277,2948.8
558.412,2928.8
558.547,2935.3
558.682,2917.4
558.817,2935.1
558.952,2923.9
559.087,2928.5
559.222,2922.9
559.357,2915.2
559.492,2956.5
559.626,2945.0
559.761,2952.3
559.896,2959.8
560.031,2962.8
560.166,2977.6
560.301,3000.7
560.435,2986.5
560.57,2989.0
560.705,2998.7
560.84,3004.1
560.975,3002.3
561.109,3043.1
561.244,3038.2
561.379,3034.6
561.514,3022.2
561.649,3058.6
561.783,3067.3
561.918,3108.2
562.053,3149.1
562.188,3163.9
562.322,3130.3
562.457,3113.0
562.592,3103.4
562.726,3122.9
562.861,3098.8
562.996,3121.3
563.131,3120.5
563.265,3112.7
563.4,3123.7
563.535,3135.3
563.669,3155.0
563.804,3175.6
563.939,3165.0
564.073,3190.2
564.208,3204.0
564.342,3218.6
564.477,3233.7
564.612,3287.2
564.746,3323.0
564.881,3369.7
565.015,3487.2
565.15,3518.4
565.285,3467.8
565.419,3432.6
565.554,3422.5
565.688,3414.1
565.823,3468.2
565.957,3456.4
566.092,3394.5
566.227,3383.1
566.361,3332.4
566.496,3326.2
566.63,3283.2
566.765,3268.0
566.899,3271.8
567.034,3265.8
567.168,3278.9
567.303,3288.3
567.437,3298.0
567.572,3375.9
567.706,3401.4
567.84,3412.5
567.975,3396.0
568.109,3363.8
568.244,3369.1
568.378,3344.8
568.513,3346.1
568.647,3366.1
568.781,3360.4
568.916,3377.2
569.05,3386.8
569.185,3393.9
569.319,3412.1
569.453,3421.6
569.588,3429.1
569.722,3456.6
569.857,3446.9
569.991,3481.3
570.125,3475.8
570.26,3488.6
570.394,3532.7
570.528,3560.2
570.663,3597.1
570.797,3674.6
570.931,3755.9
571.065,3888.2
571.2,4027.5
571.334,4123.0
571.468,4141.2
571.603,4040.0
571.737,3871.0
571.871,3789.1
572.005,3767.4
572.14,3682.4
572.274,3644.7
572.408,3601.4
572.542,3616.3
572.677,3562.5
572.811,3598.0
572.945,3606.4
573.079,3596.9
573.213,3594.0
573.348,3598.9
573.482,3592.2
573.616,3602.4
573.75,3617.1
573.884,3622.4
574.018,3624.9
574.153,3621.6
574.287,3648.2
574.421,3656.9
574.555,3651.1
574.689,3652.4
574.823,3650.4
574.957,3656.7
575.092,3675.3
575.226,3742.3
575.36,3794.4
575.494,3809.4
575.628,3800.8
575.762,3741.9
575.896,3725.2
576.03,3712.8
576.164,3719.6
576.298,3756.0
576.432,3759.6
576.566,3747.0
576.7,3775.1
576.834,3791.7
576.968,3768.5
577.103,3785.8
577.237,3816.1
577.371,3799.5
577.505,3803.6
577.639,3795.1
577.773,3760.2
577.907,3772.8
578.04,3772.9
578.174,3788.3
578.308,3787.1
578.442,3795.3
578.576,3793.9
578.71,3803.6
578.844,3802.3
578.978,3805.5
579.112,3824.0
579.246,3830.3
579.38,3813.1
579.514,3823.3
579.648,3833.9
579.782,3858.0
579.916,3839.3
580.049,3830.0
580.183,3859.8
580.317,3865.9
580.451,3864.2
580.585,3868.7
580.719,3865.9
580.853,3901.2
580.986,3917.5
581.12,3914.8
581.254,3941.0
581.388,3964.3
581.522,4011.7
581.656,4132.7
581.789,4397.8
581.923,4927.2
582.057,5915.0
582.191,6739.5
582.325,6081.2
582.458,4843.9
582.592,4298.1
582.726,4100.7
582.86,4063.4
582.993,4029.6
583.127,3986.7
583.261,4000.0
583.395,4004.5
583.528,4006.9
583.662,3988.2
583.796,4011.6
583.93,4008.1
584.063,4013.8
584.197,4006.5
584.331,4038.6
584.464,4028.8
584.598,4060.3
584.732,4039.2
584.865,4057.9
584.999,4062.4
585.133,4089.0
585.266,4141.0
585.4,4189.0
585.534,4352.9
585.667,4624.7
585.801,4948.9
585.935,5252.5
586.068,5388.5
586.202,5233.4
586.336,5020.3
586.469,4831.9
586.603,4604.0
586.736,4409.8
586.87,4297.7
587.004,4244.3
587.137,4208.4
587.271,4182.3
587.404,4188.6
587.538,4158.7
587.671,4150.5
587.805,4149.7
587.938,4138.8
588.072,4133.2
588.206,4131.7
588.339,4151.5
588.473,4137.9
588.606,4122.5
588.74,4131.6
588.873,4115.3
589.007,4145.1
589.14,4129.6
589.274,4133.4
589.407,4143.5
589.541,4118.7
589.674,4136.5
589.808,4122.4
589.941,4150.4
590.074,4148.7
590.208,4143.7
590.341,4148.5
590.475,4156.1
590.608,4149.2
590.742,4166.6
590.875,4183.2
591.009,4168.1
591.142,4175.7
591.275,4189.9
591.409,4186.4
591.542,4190.7
591.676,4200.9
591.809,4179.6
591.942,4198.3
592.076,4174.7
592.209,4185.8
592.342,4199.2
592.476,4196.3
592.609,4171.0
592.743,4176.4
592.876,4195.8
593.009,4176.2
593.143,4184.3
593.276,4176.6
593.409,4213.3
593.543,4199.6
593.676,4214.9
593.809,4220.4
593.942,4197.4
594.076,4212.8
594.209,4222.1
594.342,4235.8
594.476,4241.8
594.609,4238.1
594.742,4247.3
594.875,4260.7
595.009,4280.6
595.142,4277.5
595.275,4261.5
595.408,4262.5
595.542,4304.7
595.675,4301.1
595.808,4286.8
595.941,4294.2
596.075,4306.1
596.208,4318.2
596.341,4309.1
596.474,4306.0
596.607,4305.0
596.741,4329.9
596.874,4338.5
597.007,4341.1
597.14,4367.9
597.273,4346.5
597.406,4351.3
597.54,4348.7
597.673,4369.8
597.806,4353.2
597.939,4407.3
598.072,4387.5
598.205,4401.0
598.338,4402.8
598.472,4410.7
598.605,4417.5
598.738,4412.2
598.871,4425.2
599.004,4432.6
599.137,4437.1
599.27,4440.0
599.403,4456.3
599.536,4446.2
599.67,4443.6
599.803,4432.0
599.936,4460.1
600.069,4459.8
600.202,4450.0
600.335,4459.9
600.468,4441.3
600.601,4441.1
600.734,4415.0
600.867,4446.7
601.0,4437.8
601.133,4426.6
601.266,4461.0
601.399,4464.3
601.532,4453.0
601.665,4465.8
601.798,4455.5
601.931,4449.1
602.064,4456.4
602.197,4464.0
602.33,4477.8
602.463,4481.1
602.596,4502.4
602.729,4507.0
602.862,4508.1
602.995,4535.1
603.128,4535.0
603.261,4540.2
603.394,4560.6
603.527,4560.8
603.66,4569.7
603.793,4574.0
603.925,4563.7
604.058,4563.1
604.191,4580.0
604.324,4557.9
604.457,4571.2
604.59,4594.0
604.723,4566.9
604.856,4557.3
604.989,4576.3
605.122,4542.1
605.254,4518.9
605.387,4545.3
605.52,4538.5
605.653,4502.9
605.786,4541.4
605.919,4513.2
606.052,4556.0
606.184,4550.8
606.317,4573.4
606.45,4519.7
606.583,4562.5
606.716,4544.5
606.849,4576.2
606.981,4582.8
607.114,4597.1
607.247,4598.7
607.38,4610.7
607.513,4624.9
607.645,4649.9
607.778,4673.2
607.911,4677.0
608.044,4685.6
608.177,4675.6
608.309,4714.5
608.442,4701.1
608.575,4710.3
608.708,4745.7
608.84,4763.5
608.973,4752.3
609.106,4753.1
609.239,4774.0
609.371,4786.4
609.504,4784.3
609.637,4757.6
609.769,4780.3
609.902,4808.5
610.035,4790.8
610.168,4836.1
610.3,4811.5
610.433,4816.5
610.566,4824.2
610.698,4826.8
610.831,4829.8
610.964,4864.7
611.096,4859.2
611.229,4849.1
611.362,4885.3
611.494,4873.5
611.627,4910.2
611.76,4903.4
611.892,4934.5
612.025,4935.6
612.158,4956.7
612.29,4993.8
612.423,5009.0
612.556,5030.6
612.688,5050.2
612.821,5077.8
612.953,5114.9
613.086,5123.0
613.219,5123.1
613.351,5158.2
613.484,5166.0
613.616,5192.2
613.749,5195.7
613.882,5204.3
614.014,5204.6
614.147,5223.6
614.279,5247.3
614.412,5252.1
614.544,5234.2
614.677,5254.9
614.809,5286.6
614.942,5269.5
615.075,5296.8
615.207,5277.2
615.34,5293.4
615.472,5310.4
615.605,5321.0
615.737,5332.8
615.87,5324.6
616.002,5349.3
616.135,5345.4
616.267,5342.2
616.4,5376.0
616.532,5372.9
616.665,5391.7
616.797,5417.6
616.93,5449.9
617.062,5460.1
617.195,5483.3
617.327,5491.2
617.46,5482.5
617.592,5533.3
617.725,5535.2
617.857,5523.0
617.989,5549.0
618.122,5600.9
618.254,5574.9
618.387,5610.5
618.519,5589.1
618.652,5616.1
618.784,5653.1
618.917,5640.4
619.049,5656.1
619.181,5636.5
619.314,5653.1
619.446,5657.8
619.579,5678.6
619.711,5695.3
619.843,5736.4
619.976,5701.1
620.108,5701.0
620.241,5708.7
620.373,5723.5
620.505,5756.6
620.638,5758.8
620.77,5777.2
620.902,5789.2
621.035,5782.2
621.167,5802.0
621.299,5810.7
621.432,5819.5
621.564,5834.3
621.696,5886.2
621.829,5875.4
621.961,5865.7
622.093,5903.0
622.226,5898.5
622.358,5907.7
622.49,5941.6
622.623,5956.1
622.755,5992.7
622.887,6018.7
623.02,6017.7
623.152,6036.4
623.284,6028.3
623.416,6078.4
623.549,6063.4
623.681,6105.6
623.813,6133.9
623.946,6141.5
624.078,6149.3
624.21,6134.2
624.342,6184.1
624.475,6187.0
624.607,6189.1
624.739,6222.6
624.871,6238.3
625.004,6240.6
625.136,6225.8
625.268,6290.5
625.4,6261.2
625.533,6262.6
625.665,6260.2
625.797,6282.3
625.929,6305.5
626.061,6313.1
626.194,6300.1
626.326,6312.7
626.458,6316.0
626.59,6343.2
626.722,6351.3
626.855,6378.7
626.987,6343.7
627.119,6383.2
627.251,6397.7
627.383,6409.9
627.516,6389.0
627.648,6386.5
627.78,6408.7
627.912,6413.8
628.044,6439.0
628.176,6468.0
628.308,6498.2
628.441,6489.2
628.573,6517.1
628.705,6500.3
628.837,6514.4
628.969,6580.1
629.101,6574.4
629.233,6609.2
629.366,6589.9
629.498,6667.7
629.63,6629.5
629.762,6650.4
629.894,6662.0
630.026,6694.4
630.158,6653.2
630.29,6692.3
630.422,6687.7
630.554,6693.3
630.687,6736.8
630.819,6737.8
630.951,6779.1
631.083,6791.6
631.215,6803.6
631.347,6836.1
631.479,6905.2
631.611,6921.2
631.743,7009.1
631.875,6994.9
632.007,6980.6
632.139,6988.8
632.271,6985.0
632.403,6955.3
632.535,6924.9
632.667,6940.8
632.799,6958.5
632.931,6936.5
633.063,6927.9
633.195,6933.0
633.328,6918.6
633.46,6922.5
633.592,6928.8
633.724,6907.6
633.856,6941.4
633.988,6933.2
634.12,6917.4
634.252,6902.3
634.384,6928.0
634.516,6937.2
634.647,6923.7
634.779,6929.7
634.911,6929.2
635.043,6961.2
635.175,6993.0
635.307,6988.9
635.439,7041.5
635.571,7061.2
635.703,7095.9
635.835,7118.3
635.967,7183.3
636.099,7203.7
636.231,7276.3
636.363,7329.7
636.495,7424.4
636.627,7445.6
636.759,7382.6
636.891,7365.0
637.023,7287.9
637.155,7246.2
637.286,7184.9
637.418,7163.0
637.55,7187.1
637.682,7195.4
637.814,7176.8
637.946,7183.6
638.078,7223.9
638.21,7172.3
638.342,7218.8
638.474,7201.9
638.605,7187.2
638.737,7211.7
638.869,7210.7
639.001,7222.1
639.133,7216.3
639.265,7227.1
639.397,7215.8
639.529,7234.1
639.66,7272.9
639.792,7255.4
639.924,7262.1
640.056,7258.4
640.188,7269.7
640.32,7284.1
640.452,7267.7
640.583,7300.4
640.715,7308.7
640.847,7288.6
640.979,7287.7
641.111,7368.0
641.243,7305.6
641.374,7335.8
641.506,7364.1
641.638,7368.3
641.77,7359.9
641.902,7353.3
642.033,7371.3
642.165,7381.8
642.297,7391.8
642.429,7379.9
642.561,7388.3
642.692,7437.0
642.824,7415.0
642.956,7333.9
643.088,7351.2
643.22,7367.1
643.351,7335.0
643.483,7338.4
643.615,7291.1
643.747,7321.6
643.878,7289.1
644.01,7302.8
644.142,7288.3
644.274,7312.9
644.405,7306.2
644.537,7292.3
644.669,7298.0
644.801,7311.6
644.932,7301.2
645.064,7294.9
645.196,7315.8
645.328,7326.1
645.459,7315.8
645.591,7320.9
645.723,7332.6
645.854,7318.2
645.986,7335.6
646.118,7354.5
646.25,7355.2
646.381,7342.7
646.513,7353.1
646.645,7380.8
646.776,7416.1
646.908,7385.7
647.04,7400.0
647.172,7408.6
647.303,7447.3
647.435,7431.5
647.567,7460.4
647.698,7417.9
647.83,7408.3
647.962,7442.4
648.093,7404.3
648.225,7437.7
648.357,7399.1
648.488,7395.7
648.62,7413.7
648.752,7408.7
648.883,7428.6
649.015,7406.1
649.147,7412.7
649.278,7363.6
649.41,7372.6
649.542,7405.7
649.673,7427.2
649.805,7398.0
649.937,7408.1
650.068,7383.6
650.2,7401.8
650.331,7372.3
650.463,7390.4
650.595,7372.2
650.726,7356.4
650.858,7353.4
650.99,7393.7
651.121,7387.9
651.253,7400.0
651.384,7424.5
651.516,7448.7
651.648,7440.9
651.779,7438.4
651.911,7422.4
652.042,7408.4
652.174,7457.5
652.306,7450.0
652.437,7438.7
652.569,7410.4
652.7,7466.2
652.832,7451.8
652.963,7469.3
653.095,7452.2
653.227,7440.9
653.358,7445.3
653.49,7432.0
653.621,7463.9
653.753,7487.2
653.884,7512.4
654.016,7491.8
654.148,7483.6
654.279,7508.2
654.411,7444.4
654.542,7515.7
654.674,7481.9
654.805,7449.4
654.937,7449.5
655.068,7436.1
655.2,7475.5
655.331,7471.4
655.463,7505.8
655.595,7524.6
655.726,7508.9
655.858,7453.1
655.989,7507.3
656.121,7488.4
656.252,7477.6
656.384,7476.1
656.515,7498.4
656.647,7481.0
656.778,7504.9
656.91,7516.2
657.041,7496.7
657.173,7526.0
657.304,7543.8
657.436,7537.4
657.567,7528.1
657.699,7550.7
657.83,7522.7
657.962,7518.4
658.093,7546.3
658.225,7527.8
658.356,7547.3
658.488,7561.3
658.619,7591.2
658.751,7576.1
658.882,7533.1
659.013,7545.2
659.145,7546.1
659.276,7626.0
659.408,7600.2
659.539,7560.2
659.671,7521.5
659.802,7542.8
659.934,7578.6
660.065,7556.7
660.197,7559.3
660.328,7529.1
660.459,7537.8
660.591,7541.4
660.722,7573.1
660.854,7530.2
660.985,7505.3
661.117,7484.8
661.248,7539.3
661.38,7504.2
661.511,7476.4
661.642,7454.8
661.774,7495.4
661.905,7523.9
662.037,7484.5
662.168,7464.8
662.299,7441.6
662.431,7476.6
662.562,7457.7
662.694,7499.9
662.825,7450.3
662.957,7410.6
663.088,7451.3
