cm-1,Intensity
109.24,4619.5
113.61,4591.55
117.976,4566.95
122.339,4518.7
126.699,4486.1
131.056,4466.5
135.41,4461.15
139.761,4450.6
144.108,4440.25
148.453,4435.05
152.795,4428.75
157.133,4428.9
161.468,4439.05
165.8,4458.45
170.13,4467.75
174.456,4458.75
178.779,4465.05
183.099,4468.35
187.416,4443.7
191.729,4412.85
196.04,4407.85
200.348,4408.05
204.653,4409.4
208.954,4407.55
213.253,4386.45
217.548,4390.5
221.841,4391.0
226.13,4377.45
230.417,4381.75
234.7,4392.7
238.98,4396.85
243.258,4386.5
247.532,4381.8
251.803,4385.4
256.072,4369.0
260.337,4374.95
264.599,4384.1
268.859,4364.95
273.115,4351.3
277.368,4349.65
281.618,4351.65
285.866,4361.3
290.11,4349.9
294.351,4338.35
298.59,4332.1
302.825,4336.65
307.057,4319.75
311.287,4347.6
315.513,4357.6
319.737,4354.15
323.957,4346.6
328.175,4335.45
332.389,4325.05
336.601,4327.05
340.809,4340.85
345.015,4314.9
349.218,4300.35
353.418,4312.9
357.615,4301.6
361.808,4295.9
365.999,4298.0
370.188,4303.35
374.373,4302.75
378.555,4300.65
382.734,4299.65
386.911,4325.35
391.084,4356.75
395.255,4388.45
399.422,4387.65
403.587,4371.25
407.749,4338.45
411.908,4318.85
416.064,4278.95
420.217,4271.1
424.367,4272.5
428.514,4286.7
432.659,4285.1
436.8,4296.85
440.939,4284.35
445.075,4276.25
449.208,4265.95
453.338,4285.35
457.465,4282.35
461.589,4264.8
465.711,4252.1
469.829,4241.0
473.945,4240.25
478.058,4229.4
482.168,4222.75
486.275,4219.55
490.379,4209.7
494.481,4206.85
498.579,4219.2
502.675,4217.0
506.768,4206.85
510.858,4210.95
514.946,4204.7
519.03,4217.8
523.112,4224.7
527.191,4226.95
531.267,4216.75
535.34,4210.1
539.41,4194.2
543.478,4188.3
547.542,4190.15
551.604,4189.55
555.664,4188.95
559.72,4177.7
563.773,4177.15
567.824,4165.65
571.872,4166.1
575.917,4167.55
579.96,4172.05
583.999,4163.55
588.036,4157.45
592.07,4152.85
596.102,4151.85
600.13,4152.45
604.156,4164.8
608.179,4163.0
612.199,4160.45
616.216,4158.25
620.231,4158.65
624.243,4153.7
628.252,4148.2
632.259,4141.75
636.262,4141.1
640.263,4136.5
644.261,4136.25
648.257,4127.6
652.25,4123.85
656.24,4131.2
660.227,4132.25
664.211,4123.25
668.193,4118.7
672.172,4110.75
676.149,4123.1
680.122,4127.05
684.093,4126.5
688.062,4125.85
692.027,4109.75
695.99,4104.95
699.95,4096.85
703.907,4105.2
707.862,4105.35
711.814,4104.85
715.763,4104.4
719.71,4102.7
723.654,4105.05
727.595,4103.55
731.534,4100.5
735.47,4105.3
739.403,4107.0
743.334,4101.1
747.261,4097.25
751.187,4088.6
755.109,4089.15
759.029,4096.3
762.946,4092.4
766.861,4098.85
770.773,4103.15
774.682,4090.25
778.589,4099.3
782.493,4098.85
786.394,4108.05
790.293,4111.0
794.189,4127.75
798.082,4171.55
801.973,4202.0
805.861,4221.6
809.746,4209.65
813.629,4165.85
817.509,4142.2
821.387,4121.7
825.262,4130.25
829.134,4150.95
833.004,4170.7
836.871,4190.6
840.736,4197.15
844.598,4170.05
848.457,4134.2
852.314,4111.4
856.168,4092.85
860.019,4084.0
863.868,4091.5
867.715,4087.75
871.558,4085.3
875.4,4080.55
879.238,4077.8
883.074,4070.55
886.908,4070.6
890.738,4079.7
894.567,4080.85
898.392,4079.7
902.216,4067.95
906.036,4065.8
909.854,4068.05
913.669,4067.8
917.482,4076.75
921.293,4071.35
925.1,4061.4
928.906,4061.15
932.708,4072.6
936.508,4073.95
940.306,4079.85
944.101,4072.5
947.894,4064.95
951.684,4066.65
955.471,4065.4
959.256,4076.0
963.038,4090.3
966.818,4101.4
970.595,4094.55
974.37,4085.65
978.142,4089.0
981.912,4076.7
985.679,4065.4
989.444,4078.1
993.206,4102.3
996.966,4101.65
1000.72,4091.3
1004.48,4076.15
1008.23,4066.55
1011.98,4055.45
1015.73,4063.05
1019.47,4060.4
1023.21,4061.35
1026.95,4067.0
1030.69,4074.3
1034.43,4075.25
1038.16,4080.1
1041.89,4067.6
1045.61,4060.25
1049.34,4060.7
1053.06,4048.55
1056.78,4048.5
1060.5,4046.1
1064.21,4046.9
1067.93,4038.0
1071.64,4042.3
1075.34,4037.55
1079.05,4042.25
1082.75,4038.85
1086.45,4040.45
1090.15,4046.7
1093.85,4045.95
1097.54,4041.8
1101.23,4043.85
1104.92,4033.35
1108.6,4026.45
1112.29,4037.25
1115.97,4037.55
1119.64,4030.5
1123.32,4033.15
1126.99,4033.4
1130.67,4043.0
1134.33,4058.55
1138.0,4069.4
1141.66,4080.9
1145.33,4087.25
1148.98,4090.1
1152.64,4092.3
1156.29,4088.15
1159.95,4084.0
1163.6,4082.15
1167.24,4070.7
1170.89,4056.65
1174.53,4039.3
1178.17,4038.55
1181.81,4024.55
1185.44,4024.1
1189.07,4024.05
1192.7,4019.45
1196.33,4023.45
1199.96,4025.45
1203.58,4026.15
1207.2,4035.1
1210.82,4043.7
1214.44,4043.7
1218.05,4039.3
1221.66,4026.65
1225.27,4019.85
1228.88,4022.35
1232.48,4020.7
1236.08,4020.9
1239.68,4018.65
1243.28,4016.9
1246.87,4013.4
1250.46,4013.8
1254.05,4017.25
1257.64,4012.25
1261.23,4022.55
1264.81,4019.9
1268.39,4008.5
1271.97,4000.0
1275.55,4006.75
1279.12,4015.4
1282.69,4017.8
1286.26,4018.85
1289.83,4020.65
1293.39,4027.95
1296.95,4023.5
1300.51,4031.95
1304.07,4021.5
1307.62,4024.6
1311.18,4027.25
1314.73,4040.85
1318.28,4055.65
1321.82,4061.6
1325.37,4064.5
1328.91,4063.25
1332.45,4047.2
1335.98,4034.65
1339.52,4022.4
1343.05,4023.0
1346.58,4017.4
1350.11,4013.55
1353.63,4017.15
1357.15,4014.4
1360.67,4016.35
1364.19,4016.25
1367.71,4003.75
1371.22,3999.5
1374.73,3994.6
1378.24,3983.95
1381.75,3975.35
1385.26,3972.15
1388.76,3978.15
1392.26,3975.65
1395.76,3969.45
1399.25,3965.75
1402.74,3973.8
1406.24,3970.1
1409.72,3975.65
1413.21,3975.65
1416.7,3977.2
1420.18,3984.5
1423.66,3991.05
1427.14,3994.15
1430.61,4003.45
1434.08,4014.8
1437.56,4018.1
1441.02,4027.4
1444.49,4048.5
1447.96,4057.8
1451.42,4064.55
1454.88,4061.3
1458.33,4045.5
1461.79,4026.75
1465.24,4015.0
1468.69,3996.75
1472.14,3987.0
1475.59,3972.0
1479.03,3962.85
1482.48,3954.95
1485.92,3948.65
1489.35,3948.6
1492.79,3940.6
1496.22,3938.25
1499.65,3939.4
1503.08,3945.95
1506.51,3947.05
1509.93,3945.5
1513.36,3939.65
1516.78,3944.95
1520.19,3939.05
1523.61,3938.95
1527.02,3937.5
1530.44,3930.5
1533.84,3929.15
1537.25,3932.05
1540.66,3933.1
1544.06,3928.95
1547.46,3931.7
1550.86,3925.05
1554.25,3930.55
1557.65,3928.0
1561.04,3919.8
1564.43,3919.95
1567.82,3918.2
1571.2,3913.25
1574.59,3912.5
1577.97,3920.85
1581.35,3911.55
1584.72,3917.6
1588.1,3918.85
1591.47,3916.5
1594.84,3916.5
1598.21,3916.6
1601.58,3915.2
1604.94,3911.65
1608.3,3907.95
1611.66,3908.2
1615.02,3905.2
1618.37,3910.5
1621.73,3905.7
1625.08,3904.8
1628.43,3901.25
1631.77,3902.3
1635.12,3894.7
1638.46,3897.3
1641.8,3893.3
1645.14,3890.95
1648.48,3893.6
1651.81,3893.4
1655.14,3900.05
1658.47,3899.45
1661.8,3900.75
1665.13,3895.1
1668.45,3894.75
1671.77,3888.15
1675.09,3887.5
1678.41,3889.7
1681.73,3888.15
1685.04,3882.85
1688.35,3891.45
1691.66,3886.75
1694.97,3890.1
1698.27,3887.75
1701.57,3883.5
1704.88,3880.45
1708.17,3880.65
1711.47,3876.8
1714.77,3872.85
1718.06,3875.45
1721.35,3871.95
1724.64,3880.5
1727.92,3873.8
1731.21,3869.85
1734.49,3875.95
1737.77,3874.75
1741.05,3870.1
1744.32,3867.25
1747.6,3865.65
1750.87,3863.9
1754.14,3862.1
1757.41,3869.25
1760.67,3867.4
1763.94,3862.35
1767.2,3863.75
1770.46,3862.85
1773.72,3863.1
1776.97,3861.8
1780.23,3860.25
1783.48,3859.95
1786.73,3857.5
1789.97,3857.05
1793.22,3855.25
1796.46,3850.9
1799.7,3853.45
1802.94,3854.6
1806.18,3852.3
1809.42,3850.55
1812.65,3850.05
1815.88,3847.45
1819.11,3848.85
1822.34,3848.1
1825.56,3848.05
1828.78,3847.35
1832.01,3846.45
1835.23,3845.25
1838.44,3846.65
1841.66,3841.55
1844.87,3844.55
1848.08,3847.35
1851.29,3844.65
1854.5,3839.75
1857.7,3846.55
1860.91,3842.1
1864.11,3839.85
1867.31,3836.0
1870.5,3837.05
1873.7,3837.15
1876.89,3834.65
1880.08,3834.5
1883.27,3835.5
1886.46,3838.55
1889.65,3836.95
1892.83,3831.95
1896.01,3830.65
1899.19,3831.35
1902.37,3831.4
1905.54,3831.2
1908.72,3827.35
1911.89,3822.8
1915.06,3828.85
1918.23,3826.05
1921.39,3824.35
1924.56,3826.1
1927.72,3829.5
1930.88,3828.05
1934.04,3824.6
1937.19,3822.15
1940.35,3822.4
1943.5,3824.65
1946.65,3823.2
1949.8,3818.4
1952.94,3815.95
1956.09,3819.8
1959.23,3819.7
1962.37,3817.25
1965.51,3814.75
1968.64,3815.9
1971.78,3812.2
1974.91,3816.5
1978.04,3812.4
1981.17,3811.55
1984.3,3813.0
1987.42,3809.6
1990.55,3809.4
1993.67,3808.45
1996.79,3808.7
1999.9,3807.75
2003.02,3805.8
2006.13,3804.2
2009.25,3803.55
2012.36,3800.95
2015.46,3802.7
2018.57,3802.5
2021.67,3806.15
2024.78,3803.1
2027.88,3801.8
2030.97,3801.6
2034.07,3803.2
2037.16,3801.6
2040.26,3799.35
2043.35,3798.15
2046.44,3801.35
2049.52,3800.4
2052.61,3796.6
2055.69,3794.9
2058.77,3795.55
2061.85,3799.2
2064.93,3796.65
2068.01,3793.1
2071.08,3795.55
2074.15,3792.45
2077.22,3794.8
2080.29,3797.25
2083.36,3794.85
2086.42,3792.65
2089.48,3793.85
2092.54,3794.15
2095.6,3792.15
2098.66,3789.5
2101.72,3789.15
2104.77,3786.05
2107.82,3787.3
2110.87,3786.65
2113.92,3787.2
2116.96,3787.15
2120.01,3787.85
2123.05,3786.75
2126.09,3786.1
2129.13,3785.35
2132.16,3784.55
2135.2,3780.55
2138.23,3782.5
2141.26,3784.45
2144.29,3782.8
2147.32,3786.05
2150.35,3780.85
2153.37,3781.75
2156.39,3783.3
2159.41,3781.85
2162.43,3783.3
2165.45,3780.1
2168.46,3780.15
2171.47,3782.8
2174.48,3782.4
2177.49,3780.15
2180.5,3780.4
2183.51,3780.1
2186.51,3778.05
2189.51,3777.85
2192.51,3776.8
2195.51,3775.8
2198.51,3778.6
2201.5,3779.3
2204.49,3777.3
2207.49,3777.1
2210.47,3775.05
2213.46,3775.75
2216.45,3774.95
2219.43,3775.45
2222.41,3775.65
2225.39,3774.35
2228.37,3771.55
2231.35,3775.6
2234.32,3772.2
2237.3,3770.7
2240.27,3774.55
2243.24,3772.25
2246.21,3770.8
2249.17,3770.4
2252.14,3771.7
2255.1,3769.95
2258.06,3771.15
2261.02,3770.2
2263.97,3769.75
2266.93,3770.25
2269.88,3771.2
2272.84,3769.7
2275.79,3767.6
2278.73,3770.3
2281.68,3769.25
2284.62,3767.9
2287.57,3769.25
2290.51,3767.4
2293.45,3766.15
2296.39,3767.05
2299.32,3768.35
2302.26,3766.55
2305.19,3767.0
2308.12,3767.05
2311.05,3766.3
2313.97,3766.65
2316.9,3765.65
2319.82,3765.85
2322.75,3765.6
2325.67,3763.9
2328.58,3766.55
2331.5,3765.1
2334.42,3764.25
2337.33,3764.6
2340.24,3765.35
2343.15,3761.7
2346.06,3764.45
2348.96,3762.4
2351.87,3764.55
2354.77,3761.65
2357.67,3761.05
2360.57,3762.8
2363.47,3762.75
2366.37,3760.85
2369.26,3760.7
2372.15,3761.55
2375.04,3761.25
2377.93,3761.8
2380.82,3760.6
2383.7,3761.35
2386.59,3761.95
2389.47,3761.45
2392.35,3761.15
2395.23,3759.65
2398.11,3758.95
2400.98,3759.9
2403.86,3761.2
2406.73,3759.6
2409.6,3757.7
2412.47,3758.8
2415.33,3759.1
2418.2,3760.2
2421.06,3759.85
2423.92,3757.75
2426.78,3756.6
2429.64,3755.95
2432.5,3757.85
2435.35,3756.95
2438.21,3757.3
2441.06,3757.5
2443.91,3756.85
2446.76,3757.45
2449.6,3755.95
2452.45,3758.15
2455.29,3754.4
2458.13,3757.65
2460.97,3755.15
2463.81,3756.55
2466.65,3755.65
2469.48,3757.45
2472.32,3754.0
2475.15,3756.75
2477.98,3755.0
2480.81,3752.95
2483.63,3754.95
2486.46,3755.55
2489.28,3754.95
2492.1,3755.45
2494.92,3754.55
2497.74,3753.05
2500.56,3752.9
2503.37,3753.6
2506.18,3754.4
2509.0,3753.0
2511.81,3753.5
2514.61,3753.05
2517.42,3752.35
2520.23,3752.3
2523.03,3752.95
2525.83,3750.2
2528.63,3752.2
2531.43,3751.6
2534.23,3751.7
2537.02,3752.05
2539.81,3751.75
2542.61,3752.6
2545.4,3753.2
2548.19,3751.2
2550.97,3752.2
2553.76,3750.4
2556.54,3750.4
2559.32,3751.85
2562.1,3751.95
2564.88,3751.05
2567.66,3749.35
2570.44,3750.45
2573.21,3748.75
2575.98,3750.65
2578.75,3749.7
2581.52,3749.45
2584.29,3753.15
2587.06,3752.65
2589.82,3751.05
2592.58,3751.25
2595.34,3749.65
2598.1,3750.95
2600.86,3751.2
2603.62,3750.65
2606.37,3747.9
2609.13,3749.15
2611.88,3752.15
2614.63,3749.3
2617.38,3750.0
2620.12,3750.1
2622.87,3750.1
2625.61,3748.7
2628.35,3749.85
2631.09,3749.85
2633.83,3748.8
2636.57,3747.85
2639.3,3749.4
2642.04,3748.45
2644.77,3748.6
2647.5,3749.45
2650.23,3747.85
2652.96,3748.15
2655.68,3747.55
2658.41,3748.75
2661.13,3749.7
2663.85,3749.25
2666.57,3745.95
2669.29,3747.75
2672.01,3748.15
2674.72,3747.35
2677.44,3747.3
2680.15,3746.2
2682.86,3747.05
2685.57,3746.85
2688.27,3746.8
2690.98,3747.0
2693.68,3745.65
2696.39,3746.3
2699.09,3747.05
2701.79,3749.45
2704.48,3748.1
2707.18,3748.15
2709.87,3748.9
2712.57,3748.95
2715.26,3746.9
2717.95,3747.95
2720.64,3748.75
2723.33,3748.5
2726.01,3749.0
2728.69,3747.25
2731.38,3749.9
2734.06,3747.05
2736.74,3748.3
2739.41,3746.0
2742.09,3746.55
2744.77,3744.9
2747.44,3747.75
2750.11,3745.75
2752.78,3744.45
2755.45,3746.5
2758.12,3743.3
2760.78,3743.55
2763.44,3743.15
2766.11,3745.5
2768.77,3744.5
2771.43,3743.9
2774.08,3744.05
2776.74,3741.75
2779.4,3742.5
2782.05,3742.45
2784.7,3742.85
2787.35,3743.05
2790.0,3744.35
2792.65,3743.7
2795.29,3742.55
2797.94,3742.25
2800.58,3744.15
2803.22,3743.15
2805.86,3742.5
2808.5,3742.5
2811.13,3744.4
2813.77,3744.75
2816.4,3746.2
2819.04,3745.55
2821.67,3748.95
2824.3,3748.85
2826.92,3750.35
2829.55,3751.9
2832.17,3752.95
2834.8,3754.75
2837.42,3754.1
2840.04,3756.15
2842.66,3756.95
2845.27,3756.0
2847.89,3759.15
2850.5,3759.05
2853.12,3759.0
2855.73,3760.35
2858.34,3761.1
2860.95,3763.25
2863.55,3765.05
2866.16,3764.35
2868.76,3767.4
2871.36,3767.3
2873.96,3771.65
2876.56,3770.95
2879.16,3772.95
2881.76,3772.55
2884.35,3772.0
2886.95,3773.45
2889.54,3771.6
2892.13,3771.8
2894.72,3768.4
2897.3,3768.8
2899.89,3766.85
2902.48,3767.55
2905.06,3763.4
2907.64,3760.25
2910.22,3760.8
2912.8,3760.6
2915.38,3761.0
2917.95,3757.8
2920.53,3757.45
2923.1,3756.85
2925.67,3754.5
2928.24,3753.35
2930.81,3751.85
2933.38,3752.25
2935.94,3752.55
2938.51,3751.3
2941.07,3749.65
2943.63,3749.5
2946.19,3752.2
2948.75,3750.95
2951.31,3748.0
2953.86,3749.6
2956.42,3749.3
2958.97,3746.9
2961.52,3747.1
2964.07,3747.2
2966.62,3746.95
2969.17,3743.15
2971.71,3744.05
2974.26,3743.15
2976.8,3743.25
2979.34,3741.65
2981.88,3740.65
2984.42,3741.0
2986.95,3741.2
2989.49,3738.3
2992.02,3738.65
2994.56,3737.95
2997.09,3738.9
2999.62,3738.2
3002.15,3737.45
3004.67,3738.1
3007.2,3737.6
3009.72,3736.9
3012.25,3738.3
3014.77,3737.25
3017.29,3737.55
3019.81,3736.95
3022.32,3737.65
3024.84,3735.1
3027.35,3737.7
3029.87,3738.2
3032.38,3737.55
3034.89,3736.05
3037.4,3735.0
3039.9,3736.45
3042.41,3738.2
3044.91,3737.25
3047.42,3736.5
3049.92,3735.8
3052.42,3736.95
3054.92,3736.05
3057.41,3738.0
3059.91,3736.15
3062.41,3736.65
3064.9,3735.75
3067.39,3734.85
3069.88,3735.65
3072.37,3735.7
3074.86,3735.8
3077.34,3735.85
3079.83,3735.5
3082.31,3734.9
3084.8,3736.6
3087.28,3736.25
3089.76,3736.1
3092.23,3735.7
3094.71,3735.15
3097.19,3736.35
3099.66,3736.7
3102.13,3736.75
3104.6,3734.95
3107.07,3734.55
3109.54,3733.9
3112.01,3736.25
3114.47,3735.5
3116.94,3735.7
3119.4,3735.8
3121.86,3734.5
3124.32,3736.1
3126.78,3735.45
3129.24,3735.15
3131.7,3734.7
3134.15,3736.05
3136.6,3735.55
3139.06,3736.65
3141.51,3736.05
3143.96,3734.9
3146.4,3734.85
3148.85,3735.4
3151.3,3734.9
3153.74,3735.55
3156.18,3733.5
3158.62,3736.2
3161.06,3734.95
3163.5,3734.55
3165.94,3734.95
3168.38,3734.45
3170.81,3734.9
3173.24,3734.75
3175.68,3734.4
3178.11,3735.25
3180.53,3734.5
3182.96,3735.05
3185.39,3735.95
3187.81,3734.95
3190.24,3737.15
3192.66,3734.85
3195.08,3735.0
3197.5,3735.65
3199.92,3735.4
3202.34,3734.65
3204.75,3734.7
3207.17,3734.4
3209.58,3734.35
3211.99,3733.8
3214.4,3733.8
3216.81,3734.75
3219.22,3734.1
3221.63,3734.25
3224.03,3733.8
3226.44,3735.2
3228.84,3734.2
3231.24,3735.95
3233.64,3735.85
3236.04,3733.7
3238.43,3734.35
3240.83,3734.6
3243.23,3734.3
3245.62,3733.3
3248.01,3736.2
3250.4,3734.5
3252.79,3735.55
3255.18,3734.2
3257.57,3735.2
3259.95,3733.8
3262.34,3735.7
3264.72,3735.75
3267.1,3734.2
3269.48,3735.6
3271.86,3734.3
3274.24,3735.6
3276.61,3734.15
3278.99,3732.4
3281.36,3735.5
3283.73,3734.8
3286.11,3734.55
3288.48,3735.2
3290.84,3734.8
3293.21,3734.2
3295.58,3734.2
3297.94,3733.5
3300.31,3735.0
3302.67,3734.75
3305.03,3734.85
3307.39,3734.2
3309.75,3734.9
3312.1,3733.45
3314.46,3734.75
3316.81,3734.05
3319.17,3734.0
3321.52,3733.1
3323.87,3735.25
3326.22,3733.7
3328.57,3733.65
3330.91,3734.1
3333.26,3733.6
3335.6,3734.4
3337.95,3734.55
3340.29,3734.75
3342.63,3734.35
3344.97,3733.45
3347.3,3734.05
3349.64,3732.6
3351.98,3734.05
3354.31,3734.0
3356.64,3734.1
3358.97,3733.1
3361.3,3734.85
3363.63,3733.85
3365.96,3732.8
3368.29,3734.4
3370.61,3734.35
3372.94,3732.5
3375.26,3731.85
