cm-1,A
4000.0,-0.0012
3999.0,-0.0012
3998.0,-0.0013
3997.0,-0.0013
3996.0,-0.0013
3995.0,-0.0013
3994.0,-0.0013
3993.0,-0.0013
3992.0,-0.0014
3991.0,-0.0014
3990.0,-0.0015
3989.0,-0.0016
3988.0,-0.0016
3987.0,-0.0016
3986.0,-0.0015
3985.0,-0.0015
3984.0,-0.0015
3983.0,-0.0015
3982.0,-0.0015
3981.0,-0.0014
3980.0,-0.0014
3979.0,-0.0014
3978.0,-0.0014
3977.0,-0.0014
3976.0,-0.0014
3975.0,-0.0014
3974.0,-0.0014
3973.0,-0.0013
3972.0,-0.0013
3971.0,-0.0012
3970.0,-0.0012
3969.0,-0.0012
3968.0,-0.0013
3967.0,-0.0013
3966.0,-0.0013
3965.0,-0.0013
3964.0,-0.0012
3963.0,-0.0012
3962.0,-0.0012
3961.0,-0.0012
3960.0,-0.0012
3959.0,-0.0012
3958.0,-0.0012
3957.0,-0.0012
3956.0,-0.0013
3955.0,-0.0014
3954.0,-0.0015
3953.0,-0.0015
3952.0,-0.0014
3951.0,-0.0013
3950.0,-0.0012
3949.0,-0.0011
3948.0,-0.0011
3947.0,-0.0011
3946.0,-0.0012
3945.0,-0.0012
3944.0,-0.0013
3943.0,-0.0013
3942.0,-0.0013
3941.0,-0.0014
3940.0,-0.0013
3939.0,-0.0013
3938.0,-0.0012
3937.0,-0.0012
3936.0,-0.0013
3935.0,-0.0013
3934.0,-0.0013
3933.0,-0.0013
3932.0,-0.0012
3931.0,-0.0012
3930.0,-0.0012
3929.0,-0.0013
3928.0,-0.0013
3927.0,-0.0013
3926.0,-0.0012
3925.0,-0.0012
3924.0,-0.0012
3923.0,-0.0012
3922.0,-0.0013
3921.0,-0.0013
3920.0,-0.0014
3919.0,-0.0014
3918.0,-0.0014
3917.0,-0.0013
3916.0,-0.0013
3915.0,-0.0013
3914.0,-0.0014
3913.0,-0.0014
3912.0,-0.0014
3911.0,-0.0014
3910.0,-0.0014
3909.0,-0.0014
3908.0,-0.0014
3907.0,-0.0014
3906.0,-0.0013
3905.0,-0.0012
3904.0,-0.0011
3903.0,-0.001
3902.0,-0.0009
3901.0,-0.0009
3900.0,-0.001
3899.0,-0.0011
3898.0,-0.0012
3897.0,-0.0012
3896.0,-0.0013
3895.0,-0.0013
3894.0,-0.0013
3893.0,-0.0013
3892.0,-0.0012
3891.0,-0.0011
3890.0,-0.0011
3889.0,-0.0012
3888.0,-0.0012
3887.0,-0.0012
3886.0,-0.0012
3885.0,-0.0012
3884.0,-0.0012
3883.0,-0.0012
3882.0,-0.0011
3881.0,-0.0011
3880.0,-0.0011
3879.0,-0.0012
3878.0,-0.0013
3877.0,-0.0014
3876.0,-0.0015
3875.0,-0.0014
3874.0,-0.0013
3873.0,-0.0012
3872.0,-0.0011
3871.0,-0.0011
3870.0,-0.0011
3869.0,-0.0011
3868.0,-0.0011
3867.0,-0.0012
3866.0,-0.0013
3865.0,-0.0013
3864.0,-0.0013
3863.0,-0.0013
3862.0,-0.0014
3861.0,-0.0014
3860.0,-0.0013
3859.0,-0.0012
3858.0,-0.0011
3857.0,-0.001
3856.0,-0.0011
3855.0,-0.0012
3854.0,-0.0012
3853.0,-0.001
3852.0,-0.001
3851.0,-0.001
3850.0,-0.0012
3849.0,-0.0013
3848.0,-0.0014
3847.0,-0.0014
3846.0,-0.0013
3845.0,-0.0012
3844.0,-0.0011
3843.0,-0.001
3842.0,-0.001
3841.0,-0.001
3840.0,-0.001
3839.0,-0.001
3838.0,-0.001
3837.0,-0.0011
3836.0,-0.0011
3835.0,-0.0012
3834.0,-0.0013
3833.0,-0.0013
3832.0,-0.0013
3831.0,-0.0013
3830.0,-0.0013
3829.0,-0.0014
3828.0,-0.0013
3827.0,-0.0013
3826.0,-0.0012
3825.0,-0.0011
3824.0,-0.0011
3823.0,-0.0011
3822.0,-0.0011
3821.0,-0.001
3820.0,-0.001
3819.0,-0.001
3818.0,-0.001
3817.0,-0.001
3816.0,-0.0009
3815.0,-0.001
3814.0,-0.0011
3813.0,-0.0012
3812.0,-0.0012
3811.0,-0.0013
3810.0,-0.0013
3809.0,-0.0013
3808.0,-0.0013
3807.0,-0.0013
3806.0,-0.0014
3805.0,-0.0014
3804.0,-0.0014
3803.0,-0.0014
3802.0,-0.0013
3801.0,-0.0011
3800.0,-0.0011
3799.0,-0.0011
3798.0,-0.0013
3797.0,-0.0014
3796.0,-0.0015
3795.0,-0.0015
3794.0,-0.0015
3793.0,-0.0015
3792.0,-0.0014
3791.0,-0.0013
3790.0,-0.0012
3789.0,-0.0012
3788.0,-0.0012
3787.0,-0.0013
3786.0,-0.0014
3785.0,-0.0015
3784.0,-0.0015
3783.0,-0.0015
3782.0,-0.0014
3781.0,-0.0014
3780.0,-0.0013
3779.0,-0.0013
3778.0,-0.0013
3777.0,-0.0013
3776.0,-0.0013
3775.0,-0.0013
3774.0,-0.0013
3773.0,-0.0013
3772.0,-0.0013
3771.0,-0.0013
3770.0,-0.0013
3769.0,-0.0013
3768.0,-0.0013
3767.0,-0.0012
3766.0,-0.0013
3765.0,-0.0013
3764.0,-0.0013
3763.0,-0.0014
3762.0,-0.0015
3761.0,-0.0015
3760.0,-0.0015
3759.0,-0.0015
3758.0,-0.0015
3757.0,-0.0014
3756.0,-0.0013
3755.0,-0.0011
3754.0,-0.0009
3753.0,-0.0007
3752.0,-0.0006
3751.0,-0.0006
3750.0,-0.0006
3749.0,-0.0007
3748.0,-0.0007
3747.0,-0.0008
3746.0,-0.0008
3745.0,-0.0007
3744.0,-0.0006
3743.0,-0.0007
3742.0,-0.0008
3741.0,-0.0009
3740.0,-0.001
3739.0,-0.0011
3738.0,-0.0012
3737.0,-0.0013
3736.0,-0.0012
3735.0,-0.0011
3734.0,-0.001
3733.0,-0.001
3732.0,-0.0011
3731.0,-0.0012
3730.0,-0.0012
3729.0,-0.0011
3728.0,-0.001
3727.0,-0.0008
3726.0,-0.0007
3725.0,-0.0007
3724.0,-0.0009
3723.0,-0.001
3722.0,-0.0011
3721.0,-0.0011
3720.0,-0.0011
3719.0,-0.0012
3718.0,-0.0012
3717.0,-0.0012
3716.0,-0.0011
3715.0,-0.001
3714.0,-0.0008
3713.0,-0.0007
3712.0,-0.0007
3711.0,-0.0008
3710.0,-0.0009
3709.0,-0.001
3708.0,-0.0011
3707.0,-0.001
3706.0,-0.001
3705.0,-0.0011
3704.0,-0.0011
3703.0,-0.0012
3702.0,-0.0011
3701.0,-0.0011
3700.0,-0.0011
3699.0,-0.0011
3698.0,-0.0011
3697.0,-0.001
3696.0,-0.001
3695.0,-0.0009
3694.0,-0.001
3693.0,-0.001
3692.0,-0.0011
3691.0,-0.001
3690.0,-0.001
3689.0,-0.0009
3688.0,-0.001
3687.0,-0.0011
3686.0,-0.0012
3685.0,-0.0012
3684.0,-0.0013
3683.0,-0.0013
3682.0,-0.0014
3681.0,-0.0014
3680.0,-0.0013
3679.0,-0.0013
3678.0,-0.0014
3677.0,-0.0015
3676.0,-0.0014
3675.0,-0.0012
3674.0,-0.001
3673.0,-0.0009
3672.0,-0.0008
3671.0,-0.0007
3670.0,-0.0008
3669.0,-0.001
3668.0,-0.0011
3667.0,-0.0012
3666.0,-0.0013
3665.0,-0.0013
3664.0,-0.0014
3663.0,-0.0014
3662.0,-0.0014
3661.0,-0.0014
3660.0,-0.0014
3659.0,-0.0014
3658.0,-0.0014
3657.0,-0.0014
3656.0,-0.0013
3655.0,-0.0013
3654.0,-0.0012
3653.0,-0.0012
3652.0,-0.0012
3651.0,-0.0014
3650.0,-0.0015
3649.0,-0.0015
3648.0,-0.0014
3647.0,-0.0014
3646.0,-0.0013
3645.0,-0.0013
3644.0,-0.0012
3643.0,-0.0012
3642.0,-0.0012
3641.0,-0.0012
3640.0,-0.0012
3639.0,-0.0011
3638.0,-0.0011
3637.0,-0.0012
3636.0,-0.0012
3635.0,-0.0013
3634.0,-0.0012
3633.0,-0.0011
3632.0,-0.0011
3631.0,-0.0011
3630.0,-0.0012
3629.0,-0.0012
3628.0,-0.0012
3627.0,-0.0011
3626.0,-0.0011
3625.0,-0.0011
3624.0,-0.001
3623.0,-0.001
3622.0,-0.001
3621.0,-0.001
3620.0,-0.001
3619.0,-0.001
3618.0,-0.0011
3617.0,-0.0011
3616.0,-0.0011
3615.0,-0.0011
3614.0,-0.0011
3613.0,-0.0011
3612.0,-0.0011
3611.0,-0.0011
3610.0,-0.0011
3609.0,-0.0011
3608.0,-0.0011
3607.0,-0.001
3606.0,-0.001
3605.0,-0.0009
3604.0,-0.0009
3603.0,-0.0009
3602.0,-0.001
3601.0,-0.0011
3600.0,-0.0012
3599.0,-0.0013
3598.0,-0.0013
3597.0,-0.0012
3596.0,-0.0012
3595.0,-0.0012
3594.0,-0.0012
3593.0,-0.0012
3592.0,-0.0011
3591.0,-0.0011
3590.0,-0.0011
3589.0,-0.0012
3588.0,-0.0012
3587.0,-0.0013
3586.0,-0.0013
3585.0,-0.0013
3584.0,-0.0013
3583.0,-0.0012
3582.0,-0.0012
3581.0,-0.0012
3580.0,-0.0012
3579.0,-0.0012
3578.0,-0.0012
3577.0,-0.0013
3576.0,-0.0013
3575.0,-0.0013
3574.0,-0.0014
3573.0,-0.0014
3572.0,-0.0014
3571.0,-0.0013
3570.0,-0.0012
3569.0,-0.0011
3568.0,-0.001
3567.0,-0.0009
3566.0,-0.0008
3565.0,-0.0007
3564.0,-0.0007
3563.0,-0.0008
3562.0,-0.0009
3561.0,-0.001
3560.0,-0.0012
3559.0,-0.0013
3558.0,-0.0013
3557.0,-0.0013
3556.0,-0.0013
3555.0,-0.0013
3554.0,-0.0012
3553.0,-0.0013
3552.0,-0.0013
3551.0,-0.0013
3550.0,-0.0013
3549.0,-0.0012
3548.0,-0.0012
3547.0,-0.0011
3546.0,-0.0011
3545.0,-0.0012
3544.0,-0.0012
3543.0,-0.0013
3542.0,-0.0013
3541.0,-0.0013
3540.0,-0.0013
3539.0,-0.0014
3538.0,-0.0014
3537.0,-0.0014
3536.0,-0.0015
3535.0,-0.0015
3534.0,-0.0016
3533.0,-0.0016
3532.0,-0.0015
3531.0,-0.0014
3530.0,-0.0013
3529.0,-0.0013
3528.0,-0.0013
3527.0,-0.0013
3526.0,-0.0013
3525.0,-0.0013
3524.0,-0.0013
3523.0,-0.0014
3522.0,-0.0015
3521.0,-0.0015
3520.0,-0.0016
3519.0,-0.0015
3518.0,-0.0014
3517.0,-0.0014
3516.0,-0.0013
3515.0,-0.0013
3514.0,-0.0013
3513.0,-0.0013
3512.0,-0.0013
3511.0,-0.0014
3510.0,-0.0014
3509.0,-0.0015
3508.0,-0.0015
3507.0,-0.0015
3506.0,-0.0015
3505.0,-0.0015
3504.0,-0.0015
3503.0,-0.0014
3502.0,-0.0014
3501.0,-0.0013
3500.0,-0.0013
3499.0,-0.0013
3498.0,-0.0013
3497.0,-0.0013
3496.0,-0.0013
3495.0,-0.0013
3494.0,-0.0013
3493.0,-0.0013
3492.0,-0.0013
3491.0,-0.0013
3490.0,-0.0013
3489.0,-0.0012
3488.0,-0.0012
3487.0,-0.0012
3486.0,-0.0012
3485.0,-0.0013
3484.0,-0.0013
3483.0,-0.0013
3482.0,-0.0013
3481.0,-0.0013
3480.0,-0.0014
3479.0,-0.0014
3478.0,-0.0015
3477.0,-0.0016
3476.0,-0.0016
3475.0,-0.0016
3474.0,-0.0016
3473.0,-0.0015
3472.0,-0.0016
3471.0,-0.0016
3470.0,-0.0017
3469.0,-0.0017
3468.0,-0.0016
3467.0,-0.0016
3466.0,-0.0015
3465.0,-0.0014
3464.0,-0.0014
3463.0,-0.0014
3462.0,-0.0015
3461.0,-0.0015
3460.0,-0.0015
3459.0,-0.0015
3458.0,-0.0015
3457.0,-0.0015
3456.0,-0.0016
3455.0,-0.0016
3454.0,-0.0015
3453.0,-0.0014
3452.0,-0.0014
3451.0,-0.0014
3450.0,-0.0014
3449.0,-0.0014
3448.0,-0.0013
3447.0,-0.0012
3446.0,-0.0012
3445.0,-0.0012
3444.0,-0.0012
3443.0,-0.0013
3442.0,-0.0014
3441.0,-0.0014
3440.0,-0.0014
3439.0,-0.0014
3438.0,-0.0013
3437.0,-0.0013
3436.0,-0.0012
3435.0,-0.0012
3434.0,-0.0013
3433.0,-0.0014
3432.0,-0.0015
3431.0,-0.0015
3430.0,-0.0016
3429.0,-0.0016
3428.0,-0.0015
3427.0,-0.0014
3426.0,-0.0014
3425.0,-0.0013
3424.0,-0.0013
3423.0,-0.0013
3422.0,-0.0013
3421.0,-0.0014
3420.0,-0.0014
3419.0,-0.0015
3418.0,-0.0016
3417.0,-0.0016
3416.0,-0.0016
3415.0,-0.0016
3414.0,-0.0016
3413.0,-0.0016
3412.0,-0.0016
3411.0,-0.0015
3410.0,-0.0015
3409.0,-0.0014
3408.0,-0.0013
3407.0,-0.0013
3406.0,-0.0013
3405.0,-0.0013
3404.0,-0.0013
3403.0,-0.0013
3402.0,-0.0013
3401.0,-0.0013
3400.0,-0.0014
3399.0,-0.0014
3398.0,-0.0015
3397.0,-0.0014
3396.0,-0.0013
3395.0,-0.0012
3394.0,-0.0011
3393.0,-0.0011
3392.0,-0.0012
3391.0,-0.0013
3390.0,-0.0014
3389.0,-0.0014
3388.0,-0.0013
3387.0,-0.0013
3386.0,-0.0013
3385.0,-0.0013
3384.0,-0.0013
3383.0,-0.0013
3382.0,-0.0013
3381.0,-0.0013
3380.0,-0.0013
3379.0,-0.0014
3378.0,-0.0015
3377.0,-0.0015
3376.0,-0.0015
3375.0,-0.0014
3374.0,-0.0014
3373.0,-0.0013
3372.0,-0.0013
3371.0,-0.0013
3370.0,-0.0013
3369.0,-0.0014
3368.0,-0.0015
3367.0,-0.0015
3366.0,-0.0014
3365.0,-0.0014
3364.0,-0.0013
3363.0,-0.0013
3362.0,-0.0013
3361.0,-0.0013
3360.0,-0.0013
3359.0,-0.0013
3358.0,-0.0013
3357.0,-0.0013
3356.0,-0.0013
3355.0,-0.0014
3354.0,-0.0014
3353.0,-0.0014
3352.0,-0.0014
3351.0,-0.0014
3350.0,-0.0013
3349.0,-0.0013
3348.0,-0.0013
3347.0,-0.0013
3346.0,-0.0013
3345.0,-0.0013
3344.0,-0.0013
3343.0,-0.0014
3342.0,-0.0014
3341.0,-0.0015
3340.0,-0.0015
3339.0,-0.0016
3338.0,-0.0015
3337.0,-0.0014
3336.0,-0.0014
3335.0,-0.0013
3334.0,-0.0013
3333.0,-0.0013
3332.0,-0.0013
3331.0,-0.0013
3330.0,-0.0012
3329.0,-0.0012
3328.0,-0.0011
3327.0,-0.0011
3326.0,-0.0011
3325.0,-0.0012
3324.0,-0.0012
3323.0,-0.0014
3322.0,-0.0015
3321.0,-0.0016
3320.0,-0.0016
3319.0,-0.0016
3318.0,-0.0015
3317.0,-0.0015
3316.0,-0.0014
3315.0,-0.0014
3314.0,-0.0014
3313.0,-0.0014
3312.0,-0.0015
3311.0,-0.0015
3310.0,-0.0015
3309.0,-0.0015
3308.0,-0.0015
3307.0,-0.0015
3306.0,-0.0015
3305.0,-0.0014
3304.0,-0.0014
3303.0,-0.0014
3302.0,-0.0013
3301.0,-0.0013
3300.0,-0.0013
3299.0,-0.0012
3298.0,-0.0012
3297.0,-0.0011
3296.0,-0.0011
3295.0,-0.0012
3294.0,-0.0013
3293.0,-0.0013
3292.0,-0.0014
3291.0,-0.0014
3290.0,-0.0013
3289.0,-0.0013
3288.0,-0.0013
3287.0,-0.0013
3286.0,-0.0014
3285.0,-0.0013
3284.0,-0.0013
3283.0,-0.0013
3282.0,-0.0013
3281.0,-0.0013
3280.0,-0.0013
3279.0,-0.0014
3278.0,-0.0013
3277.0,-0.0013
3276.0,-0.0012
3275.0,-0.0012
3274.0,-0.0012
3273.0,-0.0013
3272.0,-0.0013
3271.0,-0.0013
3270.0,-0.0013
3269.0,-0.0013
3268.0,-0.0013
3267.0,-0.0013
3266.0,-0.0013
3265.0,-0.0013
3264.0,-0.0013
3263.0,-0.0013
3262.0,-0.0013
3261.0,-0.0013
3260.0,-0.0013
3259.0,-0.0012
3258.0,-0.0012
3257.0,-0.0013
3256.0,-0.0013
3255.0,-0.0014
3254.0,-0.0014
3253.0,-0.0013
3252.0,-0.0012
3251.0,-0.0012
3250.0,-0.0012
3249.0,-0.0012
3248.0,-0.0012
3247.0,-0.0012
3246.0,-0.0012
3245.0,-0.0012
3244.0,-0.0013
3243.0,-0.0014
3242.0,-0.0014
3241.0,-0.0014
3240.0,-0.0013
3239.0,-0.0013
3238.0,-0.0014
3237.0,-0.0014
3236.0,-0.0014
3235.0,-0.0014
3234.0,-0.0013
3233.0,-0.0014
3232.0,-0.0014
3231.0,-0.0015
3230.0,-0.0016
3229.0,-0.0015
3228.0,-0.0015
3227.0,-0.0013
3226.0,-0.0013
3225.0,-0.0013
3224.0,-0.0013
3223.0,-0.0013
3222.0,-0.0013
3221.0,-0.0012
3220.0,-0.0012
3219.0,-0.0012
3218.0,-0.0013
3217.0,-0.0014
3216.0,-0.0014
3215.0,-0.0015
3214.0,-0.0015
3213.0,-0.0015
3212.0,-0.0014
3211.0,-0.0012
3210.0,-0.0012
3209.0,-0.0012
3208.0,-0.0012
3207.0,-0.0013
3206.0,-0.0013
3205.0,-0.0012
3204.0,-0.0012
3203.0,-0.0012
3202.0,-0.0012
3201.0,-0.0013
3200.0,-0.0013
3199.0,-0.0012
3198.0,-0.0012
3197.0,-0.0012
3196.0,-0.0012
3195.0,-0.0012
3194.0,-0.0012
3193.0,-0.0012
3192.0,-0.0012
3191.0,-0.0013
3190.0,-0.0014
3189.0,-0.0014
3188.0,-0.0015
3187.0,-0.0015
3186.0,-0.0015
3185.0,-0.0015
3184.0,-0.0015
3183.0,-0.0014
3182.0,-0.0014
3181.0,-0.0013
3180.0,-0.0013
3179.0,-0.0013
3178.0,-0.0012
3177.0,-0.0012
3176.0,-0.0012
3175.0,-0.0012
3174.0,-0.0012
3173.0,-0.0013
3172.0,-0.0013
3171.0,-0.0013
3170.0,-0.0013
3169.0,-0.0014
3168.0,-0.0014
3167.0,-0.0013
3166.0,-0.0013
3165.0,-0.0013
3164.0,-0.0012
3163.0,-0.0012
3162.0,-0.0013
3161.0,-0.0013
3160.0,-0.0014
3159.0,-0.0014
3158.0,-0.0014
3157.0,-0.0014
3156.0,-0.0014
3155.0,-0.0014
3154.0,-0.0013
3153.0,-0.0013
3152.0,-0.0013
3151.0,-0.0013
3150.0,-0.0014
3149.0,-0.0014
3148.0,-0.0014
3147.0,-0.0013
3146.0,-0.0013
3145.0,-0.0013
3144.0,-0.0013
3143.0,-0.0013
3142.0,-0.0013
3141.0,-0.0013
3140.0,-0.0012
3139.0,-0.0012
3138.0,-0.0012
3137.0,-0.0012
3136.0,-0.0012
3135.0,-0.0012
3134.0,-0.0013
3133.0,-0.0013
3132.0,-0.0013
3131.0,-0.0013
3130.0,-0.0012
3129.0,-0.0012
3128.0,-0.0012
3127.0,-0.0013
3126.0,-0.0013
3125.0,-0.0013
3124.0,-0.0013
3123.0,-0.0013
3122.0,-0.0013
3121.0,-0.0013
3120.0,-0.0013
3119.0,-0.0012
3118.0,-0.0012
3117.0,-0.0012
3116.0,-0.0012
3115.0,-0.0012
3114.0,-0.0013
3113.0,-0.0013
3112.0,-0.0013
3111.0,-0.0013
3110.0,-0.0013
3109.0,-0.0013
3108.0,-0.0013
3107.0,-0.0013
3106.0,-0.0013
3105.0,-0.0013
3104.0,-0.0013
3103.0,-0.0013
3102.0,-0.0013
3101.0,-0.0013
3100.0,-0.0013
3099.0,-0.0013
3098.0,-0.0013
3097.0,-0.0013
3096.0,-0.0013
3095.0,-0.0013
3094.0,-0.0013
3093.0,-0.0012
3092.0,-0.0012
3091.0,-0.0011
3090.0,-0.0011
3089.0,-0.0012
3088.0,-0.0013
3087.0,-0.0014
3086.0,-0.0013
3085.0,-0.0013
3084.0,-0.0012
3083.0,-0.0012
3082.0,-0.0013
3081.0,-0.0013
3080.0,-0.0014
3079.0,-0.0014
3078.0,-0.0014
3077.0,-0.0014
3076.0,-0.0013
3075.0,-0.0013
3074.0,-0.0013
3073.0,-0.0013
3072.0,-0.0013
3071.0,-0.0013
3070.0,-0.0014
3069.0,-0.0014
3068.0,-0.0013
3067.0,-0.0012
3066.0,-0.0012
3065.0,-0.0012
3064.0,-0.0012
3063.0,-0.0012
3062.0,-0.0012
3061.0,-0.0012
3060.0,-0.0013
3059.0,-0.0013
3058.0,-0.0014
3057.0,-0.0014
3056.0,-0.0013
3055.0,-0.0013
3054.0,-0.0013
3053.0,-0.0014
3052.0,-0.0014
3051.0,-0.0014
3050.0,-0.0014
3049.0,-0.0013
3048.0,-0.0013
3047.0,-0.0013
3046.0,-0.0013
3045.0,-0.0012
3044.0,-0.0012
3043.0,-0.0011
3042.0,-0.0011
3041.0,-0.0012
3040.0,-0.0013
3039.0,-0.0014
3038.0,-0.0014
3037.0,-0.0014
3036.0,-0.0013
3035.0,-0.0013
3034.0,-0.0013
3033.0,-0.0013
3032.0,-0.0013
3031.0,-0.0013
3030.0,-0.0012
3029.0,-0.0012
3028.0,-0.0011
3027.0,-0.0011
3026.0,-0.0011
3025.0,-0.0011
3024.0,-0.0012
3023.0,-0.0012
3022.0,-0.0013
3021.0,-0.0013
3020.0,-0.0013
3019.0,-0.0013
3018.0,-0.0012
3017.0,-0.0012
3016.0,-0.0012
3015.0,-0.0012
3014.0,-0.0012
3013.0,-0.0013
3012.0,-0.0014
3011.0,-0.0014
3010.0,-0.0013
3009.0,-0.0013
3008.0,-0.0012
3007.0,-0.0012
3006.0,-0.0013
3005.0,-0.0013
3004.0,-0.0012
3003.0,-0.0012
3002.0,-0.0012
3001.0,-0.0012
3000.0,-0.0013
2999.0,-0.0013
2998.0,-0.0013
2997.0,-0.0013
2996.0,-0.0013
2995.0,-0.0013
2994.0,-0.0013
2993.0,-0.0013
2992.0,-0.0013
2991.0,-0.0012
2990.0,-0.0011
2989.0,-0.0011
2988.0,-0.0011
2987.0,-0.0011
2986.0,-0.0012
2985.0,-0.0012
2984.0,-0.0011
2983.0,-0.0011
2982.0,-0.001
2981.0,-0.0011
2980.0,-0.0011
2979.0,-0.0012
2978.0,-0.0013
2977.0,-0.0013
2976.0,-0.0013
2975.0,-0.0013
2974.0,-0.0013
2973.0,-0.0013
2972.0,-0.0012
2971.0,-0.0012
2970.0,-0.0012
2969.0,-0.0012
2968.0,-0.0013
2967.0,-0.0013
2966.0,-0.0013
2965.0,-0.0012
2964.0,-0.0011
2963.0,-0.001
2962.0,-0.001
2961.0,-0.0009
2960.0,-0.0009
2959.0,-0.0009
2958.0,-0.001
2957.0,-0.001
2956.0,-0.0011
2955.0,-0.0011
2954.0,-0.0012
2953.0,-0.0012
2952.0,-0.0012
2951.0,-0.0011
2950.0,-0.0011
2949.0,-0.0011
2948.0,-0.0011
2947.0,-0.0012
2946.0,-0.0012
2945.0,-0.0012
2944.0,-0.0012
2943.0,-0.0012
2942.0,-0.0012
2941.0,-0.0012
2940.0,-0.0012
2939.0,-0.0012
2938.0,-0.0012
2937.0,-0.0012
2936.0,-0.0012
2935.0,-0.0012
2934.0,-0.0012
2933.0,-0.0012
2932.0,-0.0013
2931.0,-0.0013
2930.0,-0.0013
2929.0,-0.0013
2928.0,-0.0013
2927.0,-0.0012
2926.0,-0.0012
2925.0,-0.0013
2924.0,-0.0013
2923.0,-0.0014
2922.0,-0.0014
2921.0,-0.0014
2920.0,-0.0014
2919.0,-0.0014
2918.0,-0.0013
2917.0,-0.0012
2916.0,-0.0012
2915.0,-0.0012
2914.0,-0.0012
2913.0,-0.0012
2912.0,-0.0012
2911.0,-0.0012
2910.0,-0.0012
2909.0,-0.0012
2908.0,-0.0013
2907.0,-0.0013
2906.0,-0.0012
2905.0,-0.0012
2904.0,-0.0012
2903.0,-0.0012
2902.0,-0.0011
2901.0,-0.0011
2900.0,-0.0011
2899.0,-0.0012
2898.0,-0.0012
2897.0,-0.0012
2896.0,-0.0012
2895.0,-0.0012
2894.0,-0.0012
2893.0,-0.0012
2892.0,-0.0011
2891.0,-0.0011
2890.0,-0.0012
2889.0,-0.0012
2888.0,-0.0012
2887.0,-0.0012
2886.0,-0.0012
2885.0,-0.0012
2884.0,-0.0012
2883.0,-0.0012
2882.0,-0.0011
2881.0,-0.0011
2880.0,-0.0011
2879.0,-0.0011
2878.0,-0.0011
2877.0,-0.0011
2876.0,-0.0012
2875.0,-0.0012
2874.0,-0.0011
2873.0,-0.0011
2872.0,-0.001
2871.0,-0.001
2870.0,-0.0009
2869.0,-0.0009
2868.0,-0.001
2867.0,-0.001
2866.0,-0.001
2865.0,-0.001
2864.0,-0.0011
2863.0,-0.0011
2862.0,-0.0012
2861.0,-0.0012
2860.0,-0.0012
2859.0,-0.0012
2858.0,-0.0012
2857.0,-0.0013
2856.0,-0.0013
2855.0,-0.0014
2854.0,-0.0013
2853.0,-0.0012
2852.0,-0.0011
2851.0,-0.0011
2850.0,-0.0011
2849.0,-0.0012
2848.0,-0.0013
2847.0,-0.0013
2846.0,-0.0013
2845.0,-0.0013
2844.0,-0.0012
2843.0,-0.0013
2842.0,-0.0013
2841.0,-0.0013
2840.0,-0.0013
2839.0,-0.0012
2838.0,-0.0012
2837.0,-0.0012
2836.0,-0.0012
2835.0,-0.0011
2834.0,-0.0012
2833.0,-0.0012
2832.0,-0.0012
2831.0,-0.0012
2830.0,-0.0012
2829.0,-0.0012
2828.0,-0.0012
2827.0,-0.0012
2826.0,-0.0012
2825.0,-0.0011
2824.0,-0.0011
2823.0,-0.0011
2822.0,-0.0011
2821.0,-0.0011
2820.0,-0.0011
2819.0,-0.0011
2818.0,-0.0011
2817.0,-0.0011
2816.0,-0.0011
2815.0,-0.0011
2814.0,-0.0011
2813.0,-0.0011
2812.0,-0.0012
2811.0,-0.0011
2810.0,-0.0011
2809.0,-0.0011
2808.0,-0.0011
2807.0,-0.0011
2806.0,-0.0011
2805.0,-0.0012
2804.0,-0.0012
2803.0,-0.0011
2802.0,-0.0011
2801.0,-0.0011
2800.0,-0.0011
2799.0,-0.0011
2798.0,-0.0011
2797.0,-0.0011
2796.0,-0.0011
2795.0,-0.0011
2794.0,-0.0011
2793.0,-0.0011
2792.0,-0.0012
2791.0,-0.0012
2790.0,-0.0011
2789.0,-0.0011
2788.0,-0.0011
2787.0,-0.0012
2786.0,-0.0012
2785.0,-0.0012
2784.0,-0.0012
2783.0,-0.0012
2782.0,-0.0012
2781.0,-0.0011
2780.0,-0.0011
2779.0,-0.0012
2778.0,-0.0012
2777.0,-0.0012
2776.0,-0.0012
2775.0,-0.0012
2774.0,-0.0011
2773.0,-0.0011
2772.0,-0.0011
2771.0,-0.0011
2770.0,-0.0011
2769.0,-0.0011
2768.0,-0.0011
2767.0,-0.001
2766.0,-0.0011
2765.0,-0.0011
2764.0,-0.0012
2763.0,-0.0012
2762.0,-0.0012
2761.0,-0.0012
2760.0,-0.0012
2759.0,-0.0012
2758.0,-0.0012
2757.0,-0.0011
2756.0,-0.0011
2755.0,-0.001
2754.0,-0.0011
2753.0,-0.0011
2752.0,-0.0011
2751.0,-0.0011
2750.0,-0.0011
2749.0,-0.0011
2748.0,-0.0011
2747.0,-0.0011
2746.0,-0.0012
2745.0,-0.0011
2744.0,-0.0011
2743.0,-0.0011
2742.0,-0.0012
2741.0,-0.0012
2740.0,-0.0012
2739.0,-0.0012
2738.0,-0.0011
2737.0,-0.0011
2736.0,-0.0011
2735.0,-0.0011
2734.0,-0.0011
2733.0,-0.0011
2732.0,-0.0012
2731.0,-0.0012
2730.0,-0.0013
2729.0,-0.0013
2728.0,-0.0013
2727.0,-0.0012
2726.0,-0.0012
2725.0,-0.0011
2724.0,-0.0011
2723.0,-0.001
2722.0,-0.001
2721.0,-0.001
2720.0,-0.001
2719.0,-0.0011
2718.0,-0.0011
2717.0,-0.0012
2716.0,-0.0012
2715.0,-0.0012
2714.0,-0.0012
2713.0,-0.0012
2712.0,-0.0011
2711.0,-0.0011
2710.0,-0.0011
2709.0,-0.0011
2708.0,-0.001
2707.0,-0.001
2706.0,-0.001
2705.0,-0.001
2704.0,-0.001
2703.0,-0.001
2702.0,-0.001
2701.0,-0.001
2700.0,-0.0009
2699.0,-0.0009
2698.0,-0.0009
2697.0,-0.001
2696.0,-0.0011
2695.0,-0.0011
2694.0,-0.0011
2693.0,-0.0011
2692.0,-0.0011
2691.0,-0.0011
2690.0,-0.0011
2689.0,-0.0011
2688.0,-0.0011
2687.0,-0.0011
2686.0,-0.0011
2685.0,-0.0012
2684.0,-0.0012
2683.0,-0.0012
2682.0,-0.0012
2681.0,-0.0012
2680.0,-0.0012
2679.0,-0.0012
2678.0,-0.0011
2677.0,-0.001
2676.0,-0.0009
2675.0,-0.0009
2674.0,-0.001
2673.0,-0.001
2672.0,-0.001
2671.0,-0.001
2670.0,-0.001
2669.0,-0.001
2668.0,-0.001
2667.0,-0.001
2666.0,-0.001
2665.0,-0.001
2664.0,-0.001
2663.0,-0.001
2662.0,-0.001
2661.0,-0.001
2660.0,-0.001
2659.0,-0.0009
2658.0,-0.0009
2657.0,-0.0009
2656.0,-0.0009
2655.0,-0.0009
2654.0,-0.0009
2653.0,-0.0009
2652.0,-0.001
2651.0,-0.001
2650.0,-0.001
2649.0,-0.001
2648.0,-0.001
2647.0,-0.001
2646.0,-0.001
2645.0,-0.001
2644.0,-0.001
2643.0,-0.001
2642.0,-0.0011
2641.0,-0.001
2640.0,-0.001
2639.0,-0.001
2638.0,-0.001
2637.0,-0.001
2636.0,-0.001
2635.0,-0.001
2634.0,-0.001
2633.0,-0.001
2632.0,-0.001
2631.0,-0.0011
2630.0,-0.0011
2629.0,-0.0011
2628.0,-0.0011
2627.0,-0.0011
2626.0,-0.0011
2625.0,-0.0011
2624.0,-0.0011
2623.0,-0.0012
2622.0,-0.0012
2621.0,-0.0012
2620.0,-0.0011
2619.0,-0.001
2618.0,-0.0009
2617.0,-0.0009
2616.0,-0.0009
2615.0,-0.0009
2614.0,-0.001
2613.0,-0.001
2612.0,-0.001
2611.0,-0.001
2610.0,-0.0011
2609.0,-0.0012
2608.0,-0.0012
2607.0,-0.0012
2606.0,-0.0011
2605.0,-0.001
2604.0,-0.0009
2603.0,-0.0009
2602.0,-0.0009
2601.0,-0.0009
2600.0,-0.001
2599.0,-0.001
2598.0,-0.001
2597.0,-0.001
2596.0,-0.001
2595.0,-0.0011
2594.0,-0.0011
2593.0,-0.0011
2592.0,-0.0011
2591.0,-0.0011
2590.0,-0.0011
2589.0,-0.0011
2588.0,-0.0012
2587.0,-0.0012
2586.0,-0.0012
2585.0,-0.0012
2584.0,-0.0012
2583.0,-0.0011
2582.0,-0.001
2581.0,-0.0009
2580.0,-0.0009
2579.0,-0.0009
2578.0,-0.0009
2577.0,-0.0009
2576.0,-0.001
2575.0,-0.001
2574.0,-0.001
2573.0,-0.001
2572.0,-0.0009
2571.0,-0.0009
2570.0,-0.0009
2569.0,-0.001
2568.0,-0.001
2567.0,-0.001
2566.0,-0.001
2565.0,-0.001
2564.0,-0.001
2563.0,-0.001
2562.0,-0.0009
2561.0,-0.0009
2560.0,-0.0009
2559.0,-0.001
2558.0,-0.001
2557.0,-0.001
2556.0,-0.001
2555.0,-0.001
2554.0,-0.001
2553.0,-0.001
2552.0,-0.001
2551.0,-0.001
2550.0,-0.001
2549.0,-0.0009
2548.0,-0.0009
2547.0,-0.001
2546.0,-0.001
2545.0,-0.0011
2544.0,-0.0011
2543.0,-0.0011
2542.0,-0.001
2541.0,-0.001
2540.0,-0.001
2539.0,-0.001
2538.0,-0.001
2537.0,-0.001
2536.0,-0.001
2535.0,-0.001
2534.0,-0.001
2533.0,-0.001
2532.0,-0.001
2531.0,-0.001
2530.0,-0.001
2529.0,-0.001
2528.0,-0.001
2527.0,-0.0009
2526.0,-0.0009
2525.0,-0.0009
2524.0,-0.0009
2523.0,-0.0009
2522.0,-0.001
2521.0,-0.001
2520.0,-0.0009
2519.0,-0.0009
2518.0,-0.0009
2517.0,-0.001
2516.0,-0.001
2515.0,-0.001
2514.0,-0.0009
2513.0,-0.0009
2512.0,-0.0009
2511.0,-0.0009
2510.0,-0.001
2509.0,-0.001
2508.0,-0.001
2507.0,-0.001
2506.0,-0.001
2505.0,-0.001
2504.0,-0.001
2503.0,-0.001
2502.0,-0.001
2501.0,-0.001
2500.0,-0.0009
2499.0,-0.0009
2498.0,-0.0009
2497.0,-0.0009
2496.0,-0.0009
2495.0,-0.0009
2494.0,-0.0009
2493.0,-0.001
2492.0,-0.001
2491.0,-0.001
2490.0,-0.001
2489.0,-0.0009
2488.0,-0.0009
2487.0,-0.0009
2486.0,-0.0009
2485.0,-0.0009
2484.0,-0.0009
2483.0,-0.0009
2482.0,-0.0009
2481.0,-0.0009
2480.0,-0.0009
2479.0,-0.0009
2478.0,-0.001
2477.0,-0.001
2476.0,-0.001
2475.0,-0.0009
2474.0,-0.0009
2473.0,-0.0009
2472.0,-0.0009
2471.0,-0.001
2470.0,-0.001
2469.0,-0.0009
2468.0,-0.0009
2467.0,-0.0009
2466.0,-0.0009
2465.0,-0.001
2464.0,-0.001
2463.0,-0.001
2462.0,-0.001
2461.0,-0.0009
2460.0,-0.0009
2459.0,-0.0008
2458.0,-0.0008
2457.0,-0.0008
2456.0,-0.0008
2455.0,-0.0008
2454.0,-0.0009
2453.0,-0.0009
2452.0,-0.001
2451.0,-0.001
2450.0,-0.001
2449.0,-0.0009
2448.0,-0.0009
2447.0,-0.0009
2446.0,-0.0009
2445.0,-0.0009
2444.0,-0.0009
2443.0,-0.0009
2442.0,-0.001
2441.0,-0.0009
2440.0,-0.0009
2439.0,-0.0009
2438.0,-0.0009
2437.0,-0.0009
2436.0,-0.0009
2435.0,-0.0009
2434.0,-0.0009
2433.0,-0.0009
2432.0,-0.0009
2431.0,-0.0009
2430.0,-0.0009
2429.0,-0.0009
2428.0,-0.0008
2427.0,-0.0008
2426.0,-0.0007
2425.0,-0.0007
2424.0,-0.0007
2423.0,-0.0008
2422.0,-0.0009
2421.0,-0.001
2420.0,-0.001
2419.0,-0.001
2418.0,-0.0009
2417.0,-0.0009
2416.0,-0.0008
2415.0,-0.0008
2414.0,-0.0009
2413.0,-0.0009
2412.0,-0.0009
2411.0,-0.0009
2410.0,-0.0009
2409.0,-0.0008
2408.0,-0.0008
2407.0,-0.0009
2406.0,-0.0009
2405.0,-0.0008
2404.0,-0.0008
2403.0,-0.0009
2402.0,-0.0009
2401.0,-0.0009
2400.0,-0.0009
2399.0,-0.0008
2398.0,-0.0008
2397.0,-0.0008
2396.0,-0.0008
2395.0,-0.0008
2394.0,-0.0008
2393.0,-0.0008
2392.0,-0.0008
2391.0,-0.0009
2390.0,-0.0008
2389.0,-0.0008
2388.0,-0.0008
2387.0,-0.0007
2386.0,-0.0006
2385.0,-0.0005
2384.0,-0.0004
2383.0,-0.0003
2382.0,-0.0002
2381.0,-0.0002
2380.0,-0.0002
2379.0,-0.0002
2378.0,-0.0002
2377.0,-0.0001
2376.0,-0.0002
2375.0,-0.0003
2374.0,-0.0005
2373.0,-0.0005
2372.0,-0.0004
2371.0,-0.0
2370.0,0.0004
2369.0,0.0007
2368.0,0.0009
2367.0,0.0009
2366.0,0.0006
2365.0,0.0001
2364.0,-0.0004
2363.0,-0.0006
2362.0,-0.0005
2361.0,-0.0006
2360.0,-0.0008
2359.0,-0.0009
2358.0,-0.0005
2357.0,0.0
2356.0,0.0002
2355.0,0.0002
2354.0,0.0002
2353.0,0.0003
2352.0,0.0004
2351.0,0.0004
2350.0,0.0004
2349.0,0.0002
2348.0,0.0001
2347.0,0.0
2346.0,0.0002
2345.0,0.0004
2344.0,0.0006
2343.0,0.0009
2342.0,0.0011
2341.0,0.0011
2340.0,0.0008
2339.0,0.0005
2338.0,0.0002
2337.0,0.0002
2336.0,0.0004
2335.0,0.0007
2334.0,0.0009
2333.0,0.0009
2332.0,0.0008
2331.0,0.0008
2330.0,0.0008
2329.0,0.0011
2328.0,0.0013
2327.0,0.0014
2326.0,0.0013
2325.0,0.001
2324.0,0.0006
2323.0,0.0004
2322.0,0.0003
2321.0,0.0002
2320.0,0.0001
2319.0,0.0001
2318.0,0.0001
2317.0,0.0002
2316.0,0.0002
2315.0,0.0002
2314.0,0.0002
2313.0,0.0002
2312.0,0.0002
2311.0,0.0001
2310.0,0.0001
2309.0,0.0001
2308.0,0.0
2307.0,-0.0001
2306.0,-0.0001
2305.0,-0.0001
2304.0,-0.0001
2303.0,-0.0001
2302.0,-0.0002
2301.0,-0.0003
2300.0,-0.0003
2299.0,-0.0003
2298.0,-0.0003
2297.0,-0.0003
2296.0,-0.0003
2295.0,-0.0003
2294.0,-0.0004
2293.0,-0.0004
2292.0,-0.0005
2291.0,-0.0005
2290.0,-0.0005
2289.0,-0.0005
2288.0,-0.0005
2287.0,-0.0005
2286.0,-0.0005
2285.0,-0.0005
2284.0,-0.0005
2283.0,-0.0005
2282.0,-0.0005
2281.0,-0.0005
2280.0,-0.0005
2279.0,-0.0005
2278.0,-0.0006
2277.0,-0.0006
2276.0,-0.0007
2275.0,-0.0007
2274.0,-0.0006
2273.0,-0.0006
2272.0,-0.0006
2271.0,-0.0006
2270.0,-0.0006
2269.0,-0.0006
2268.0,-0.0007
2267.0,-0.0007
2266.0,-0.0007
2265.0,-0.0007
2264.0,-0.0007
2263.0,-0.0007
2262.0,-0.0007
2261.0,-0.0008
2260.0,-0.0008
2259.0,-0.0008
2258.0,-0.0008
2257.0,-0.0007
2256.0,-0.0008
2255.0,-0.0008
2254.0,-0.0008
2253.0,-0.0008
2252.0,-0.0007
2251.0,-0.0007
2250.0,-0.0007
2249.0,-0.0008
2248.0,-0.0008
2247.0,-0.0008
2246.0,-0.0008
2245.0,-0.0008
2244.0,-0.0008
2243.0,-0.0008
2242.0,-0.0008
2241.0,-0.0008
2240.0,-0.0008
2239.0,-0.0007
2238.0,-0.0007
2237.0,-0.0008
2236.0,-0.0008
2235.0,-0.0008
2234.0,-0.0008
2233.0,-0.0008
2232.0,-0.0008
2231.0,-0.0008
2230.0,-0.0008
2229.0,-0.0008
2228.0,-0.0008
2227.0,-0.0008
2226.0,-0.0007
2225.0,-0.0007
2224.0,-0.0008
2223.0,-0.0008
2222.0,-0.0008
2221.0,-0.0008
2220.0,-0.0008
2219.0,-0.0008
2218.0,-0.0008
2217.0,-0.0008
2216.0,-0.0008
2215.0,-0.0008
2214.0,-0.0008
2213.0,-0.0008
2212.0,-0.0008
2211.0,-0.0008
2210.0,-0.0008
2209.0,-0.0009
2208.0,-0.0008
2207.0,-0.0008
2206.0,-0.0008
2205.0,-0.0007
2204.0,-0.0007
2203.0,-0.0008
2202.0,-0.0008
2201.0,-0.0008
2200.0,-0.0008
2199.0,-0.0007
2198.0,-0.0007
2197.0,-0.0007
2196.0,-0.0008
2195.0,-0.0008
2194.0,-0.0008
2193.0,-0.0008
2192.0,-0.0008
2191.0,-0.0008
2190.0,-0.0007
2189.0,-0.0007
2188.0,-0.0007
2187.0,-0.0008
2186.0,-0.0008
2185.0,-0.0008
2184.0,-0.0008
2183.0,-0.0008
2182.0,-0.0008
2181.0,-0.0008
2180.0,-0.0008
2179.0,-0.0008
2178.0,-0.0008
2177.0,-0.0007
2176.0,-0.0007
2175.0,-0.0007
2174.0,-0.0007
2173.0,-0.0007
2172.0,-0.0007
2171.0,-0.0008
2170.0,-0.0008
2169.0,-0.0008
2168.0,-0.0008
2167.0,-0.0008
2166.0,-0.0008
2165.0,-0.0008
2164.0,-0.0008
2163.0,-0.0008
2162.0,-0.0008
2161.0,-0.0008
2160.0,-0.0008
2159.0,-0.0008
2158.0,-0.0007
2157.0,-0.0007
2156.0,-0.0007
2155.0,-0.0007
2154.0,-0.0007
2153.0,-0.0007
2152.0,-0.0006
2151.0,-0.0006
2150.0,-0.0007
2149.0,-0.0007
2148.0,-0.0007
2147.0,-0.0007
2146.0,-0.0007
2145.0,-0.0006
2144.0,-0.0006
2143.0,-0.0006
2142.0,-0.0006
2141.0,-0.0007
2140.0,-0.0007
2139.0,-0.0007
2138.0,-0.0007
2137.0,-0.0007
2136.0,-0.0007
2135.0,-0.0008
2134.0,-0.0008
2133.0,-0.0008
2132.0,-0.0008
2131.0,-0.0008
2130.0,-0.0007
2129.0,-0.0007
2128.0,-0.0007
2127.0,-0.0007
2126.0,-0.0008
2125.0,-0.0008
2124.0,-0.0008
2123.0,-0.0008
2122.0,-0.0008
2121.0,-0.0007
2120.0,-0.0007
2119.0,-0.0007
2118.0,-0.0007
2117.0,-0.0007
2116.0,-0.0007
2115.0,-0.0007
2114.0,-0.0007
2113.0,-0.0007
2112.0,-0.0007
2111.0,-0.0008
2110.0,-0.0008
2109.0,-0.0008
2108.0,-0.0008
2107.0,-0.0008
2106.0,-0.0008
2105.0,-0.0008
2104.0,-0.0008
2103.0,-0.0007
2102.0,-0.0007
2101.0,-0.0007
2100.0,-0.0007
2099.0,-0.0008
2098.0,-0.0007
2097.0,-0.0007
2096.0,-0.0007
2095.0,-0.0007
2094.0,-0.0007
2093.0,-0.0007
2092.0,-0.0007
2091.0,-0.0007
2090.0,-0.0007
2089.0,-0.0007
2088.0,-0.0007
2087.0,-0.0007
2086.0,-0.0007
2085.0,-0.0008
2084.0,-0.0008
2083.0,-0.0007
2082.0,-0.0007
2081.0,-0.0007
2080.0,-0.0007
2079.0,-0.0007
2078.0,-0.0007
2077.0,-0.0007
2076.0,-0.0007
2075.0,-0.0007
2074.0,-0.0008
2073.0,-0.0008
2072.0,-0.0008
2071.0,-0.0007
2070.0,-0.0007
2069.0,-0.0007
2068.0,-0.0006
2067.0,-0.0007
2066.0,-0.0007
2065.0,-0.0007
2064.0,-0.0007
2063.0,-0.0007
2062.0,-0.0007
2061.0,-0.0007
2060.0,-0.0007
2059.0,-0.0006
2058.0,-0.0006
2057.0,-0.0005
2056.0,-0.0006
2055.0,-0.0006
2054.0,-0.0007
2053.0,-0.0007
2052.0,-0.0007
2051.0,-0.0007
2050.0,-0.0007
2049.0,-0.0007
2048.0,-0.0007
2047.0,-0.0007
2046.0,-0.0007
2045.0,-0.0007
2044.0,-0.0007
2043.0,-0.0006
2042.0,-0.0007
2041.0,-0.0007
2040.0,-0.0007
2039.0,-0.0008
2038.0,-0.0007
2037.0,-0.0007
2036.0,-0.0007
2035.0,-0.0007
2034.0,-0.0007
2033.0,-0.0007
2032.0,-0.0007
2031.0,-0.0007
2030.0,-0.0007
2029.0,-0.0007
2028.0,-0.0008
2027.0,-0.0008
2026.0,-0.0007
2025.0,-0.0007
2024.0,-0.0007
2023.0,-0.0008
2022.0,-0.0008
2021.0,-0.0008
2020.0,-0.0008
2019.0,-0.0008
2018.0,-0.0008
2017.0,-0.0008
2016.0,-0.0008
2015.0,-0.0008
2014.0,-0.0007
2013.0,-0.0007
2012.0,-0.0007
2011.0,-0.0006
2010.0,-0.0006
2009.0,-0.0006
2008.0,-0.0006
2007.0,-0.0007
2006.0,-0.0007
2005.0,-0.0007
2004.0,-0.0007
2003.0,-0.0007
2002.0,-0.0007
2001.0,-0.0008
2000.0,-0.0008
1999.0,-0.0008
1998.0,-0.0007
1997.0,-0.0007
1996.0,-0.0006
1995.0,-0.0006
1994.0,-0.0006
1993.0,-0.0006
1992.0,-0.0007
1991.0,-0.0007
1990.0,-0.0007
1989.0,-0.0007
1988.0,-0.0007
1987.0,-0.0007
1986.0,-0.0008
1985.0,-0.0008
1984.0,-0.0008
1983.0,-0.0008
1982.0,-0.0008
1981.0,-0.0007
1980.0,-0.0007
1979.0,-0.0006
1978.0,-0.0006
1977.0,-0.0006
1976.0,-0.0007
1975.0,-0.0007
1974.0,-0.0007
1973.0,-0.0007
1972.0,-0.0007
1971.0,-0.0007
1970.0,-0.0006
1969.0,-0.0006
1968.0,-0.0006
1967.0,-0.0006
1966.0,-0.0006
1965.0,-0.0006
1964.0,-0.0006
1963.0,-0.0007
1962.0,-0.0007
1961.0,-0.0007
1960.0,-0.0007
1959.0,-0.0007
1958.0,-0.0007
1957.0,-0.0007
1956.0,-0.0007
1955.0,-0.0007
1954.0,-0.0007
1953.0,-0.0006
1952.0,-0.0006
1951.0,-0.0006
1950.0,-0.0006
1949.0,-0.0006
1948.0,-0.0006
1947.0,-0.0006
1946.0,-0.0006
1945.0,-0.0006
1944.0,-0.0006
1943.0,-0.0006
1942.0,-0.0006
1941.0,-0.0007
1940.0,-0.0007
1939.0,-0.0007
1938.0,-0.0007
1937.0,-0.0007
1936.0,-0.0007
1935.0,-0.0006
1934.0,-0.0007
1933.0,-0.0007
1932.0,-0.0007
1931.0,-0.0007
1930.0,-0.0007
1929.0,-0.0007
1928.0,-0.0007
1927.0,-0.0007
1926.0,-0.0007
1925.0,-0.0007
1924.0,-0.0007
1923.0,-0.0007
1922.0,-0.0007
1921.0,-0.0007
1920.0,-0.0007
1919.0,-0.0007
1918.0,-0.0007
1917.0,-0.0007
1916.0,-0.0007
1915.0,-0.0007
1914.0,-0.0006
1913.0,-0.0006
1912.0,-0.0006
1911.0,-0.0006
1910.0,-0.0006
1909.0,-0.0007
1908.0,-0.0007
1907.0,-0.0007
1906.0,-0.0007
1905.0,-0.0007
1904.0,-0.0007
1903.0,-0.0007
1902.0,-0.0007
1901.0,-0.0007
1900.0,-0.0008
1899.0,-0.0008
1898.0,-0.0008
1897.0,-0.0007
1896.0,-0.0007
1895.0,-0.0007
1894.0,-0.0007
1893.0,-0.0007
1892.0,-0.0006
1891.0,-0.0006
1890.0,-0.0006
1889.0,-0.0006
1888.0,-0.0006
1887.0,-0.0007
1886.0,-0.0007
1885.0,-0.0007
1884.0,-0.0007
1883.0,-0.0008
1882.0,-0.0008
1881.0,-0.0008
1880.0,-0.0008
1879.0,-0.0008
1878.0,-0.0008
1877.0,-0.0007
1876.0,-0.0007
1875.0,-0.0008
1874.0,-0.0008
1873.0,-0.0008
1872.0,-0.0008
1871.0,-0.0008
1870.0,-0.0008
1869.0,-0.0008
1868.0,-0.0008
1867.0,-0.0008
1866.0,-0.0008
1865.0,-0.0007
1864.0,-0.0007
1863.0,-0.0007
1862.0,-0.0007
1861.0,-0.0008
1860.0,-0.0008
1859.0,-0.0008
1858.0,-0.0007
1857.0,-0.0007
1856.0,-0.0007
1855.0,-0.0007
1854.0,-0.0007
1853.0,-0.0007
1852.0,-0.0008
1851.0,-0.0008
1850.0,-0.0009
1849.0,-0.0009
1848.0,-0.0009
1847.0,-0.0008
1846.0,-0.0008
1845.0,-0.0009
1844.0,-0.0009
1843.0,-0.0009
1842.0,-0.0009
1841.0,-0.0009
1840.0,-0.0008
1839.0,-0.0008
1838.0,-0.0008
1837.0,-0.0008
1836.0,-0.0008
1835.0,-0.0008
1834.0,-0.0008
1833.0,-0.0007
1832.0,-0.0007
1831.0,-0.0007
1830.0,-0.0007
1829.0,-0.0008
1828.0,-0.0008
1827.0,-0.0009
1826.0,-0.0009
1825.0,-0.0009
1824.0,-0.0009
1823.0,-0.0008
1822.0,-0.0008
1821.0,-0.0008
1820.0,-0.0009
1819.0,-0.0009
1818.0,-0.0009
1817.0,-0.0009
1816.0,-0.0009
1815.0,-0.0008
1814.0,-0.0008
1813.0,-0.0009
1812.0,-0.0009
1811.0,-0.0009
1810.0,-0.0009
1809.0,-0.0009
1808.0,-0.0009
1807.0,-0.0009
1806.0,-0.0009
1805.0,-0.001
1804.0,-0.001
1803.0,-0.001
1802.0,-0.001
1801.0,-0.001
1800.0,-0.0009
1799.0,-0.0009
1798.0,-0.0009
1797.0,-0.0009
1796.0,-0.0009
1795.0,-0.0009
1794.0,-0.0009
1793.0,-0.001
1792.0,-0.001
1791.0,-0.0011
1790.0,-0.0011
1789.0,-0.0011
1788.0,-0.0011
1787.0,-0.0012
1786.0,-0.0012
1785.0,-0.0012
1784.0,-0.0012
1783.0,-0.0012
1782.0,-0.0013
1781.0,-0.0013
1780.0,-0.0012
1779.0,-0.0012
1778.0,-0.0012
1777.0,-0.0011
1776.0,-0.0011
1775.0,-0.0011
1774.0,-0.0011
1773.0,-0.0011
1772.0,-0.0011
1771.0,-0.0011
1770.0,-0.0011
1769.0,-0.0011
1768.0,-0.0011
1767.0,-0.0011
1766.0,-0.0012
1765.0,-0.0012
1764.0,-0.0012
1763.0,-0.0012
1762.0,-0.0011
1761.0,-0.0011
1760.0,-0.0011
1759.0,-0.0012
1758.0,-0.0012
1757.0,-0.0012
1756.0,-0.0012
1755.0,-0.0011
1754.0,-0.0011
1753.0,-0.001
1752.0,-0.001
1751.0,-0.0009
1750.0,-0.0009
1749.0,-0.0008
1748.0,-0.0007
1747.0,-0.0006
1746.0,-0.0005
1745.0,-0.0004
1744.0,-0.0002
1743.0,0.0
1742.0,0.0002
1741.0,0.0005
1740.0,0.0008
1739.0,0.0011
1738.0,0.0014
1737.0,0.0016
1736.0,0.0018
1735.0,0.0021
1734.0,0.0025
1733.0,0.0028
1732.0,0.003
1731.0,0.0032
1730.0,0.0034
1729.0,0.0036
1728.0,0.0037
1727.0,0.0038
1726.0,0.004
1725.0,0.0041
1724.0,0.0042
1723.0,0.0044
1722.0,0.0045
1721.0,0.0047
1720.0,0.0048
1719.0,0.0049
1718.0,0.005
1717.0,0.005
1716.0,0.005
1715.0,0.005
1714.0,0.005
1713.0,0.005
1712.0,0.005
1711.0,0.0049
1710.0,0.0049
1709.0,0.0048
1708.0,0.0047
1707.0,0.0045
1706.0,0.0043
1705.0,0.0041
1704.0,0.004
1703.0,0.0038
1702.0,0.0037
1701.0,0.0034
1700.0,0.0031
1699.0,0.0031
1698.0,0.0031
1697.0,0.0031
1696.0,0.003
1695.0,0.0028
1694.0,0.0027
1693.0,0.0027
1692.0,0.0026
1691.0,0.0025
1690.0,0.0024
1689.0,0.0024
1688.0,0.0024
1687.0,0.0023
1686.0,0.0022
1685.0,0.0021
1684.0,0.0019
1683.0,0.0019
1682.0,0.0019
1681.0,0.0019
1680.0,0.0019
1679.0,0.0019
1678.0,0.002
1677.0,0.0019
1676.0,0.0019
1675.0,0.0018
1674.0,0.0018
1673.0,0.0017
1672.0,0.0017
1671.0,0.0017
1670.0,0.0016
1669.0,0.0016
1668.0,0.0016
1667.0,0.0016
1666.0,0.0016
1665.0,0.0016
1664.0,0.0015
1663.0,0.0015
1662.0,0.0014
1661.0,0.0014
1660.0,0.0014
1659.0,0.0013
1658.0,0.0013
1657.0,0.0013
1656.0,0.0013
1655.0,0.0013
1654.0,0.0012
1653.0,0.0012
1652.0,0.0012
1651.0,0.0012
1650.0,0.0012
1649.0,0.0012
1648.0,0.0012
1647.0,0.0011
1646.0,0.0011
1645.0,0.0011
1644.0,0.0011
1643.0,0.0011
1642.0,0.0011
1641.0,0.0011
1640.0,0.0011
1639.0,0.0011
1638.0,0.001
1637.0,0.001
1636.0,0.0011
1635.0,0.001
1634.0,0.001
1633.0,0.001
1632.0,0.0009
1631.0,0.0009
1630.0,0.0009
1629.0,0.0009
1628.0,0.0009
1627.0,0.0009
1626.0,0.0009
1625.0,0.0009
1624.0,0.001
1623.0,0.001
1622.0,0.001
1621.0,0.001
1620.0,0.001
1619.0,0.0011
1618.0,0.0011
1617.0,0.001
1616.0,0.0009
1615.0,0.0008
1614.0,0.0008
1613.0,0.0008
1612.0,0.0009
1611.0,0.0009
1610.0,0.0009
1609.0,0.0009
1608.0,0.0009
1607.0,0.0009
1606.0,0.0009
1605.0,0.0009
1604.0,0.0009
1603.0,0.0009
1602.0,0.0009
1601.0,0.0008
1600.0,0.0008
1599.0,0.0008
1598.0,0.0008
1597.0,0.0008
1596.0,0.0008
1595.0,0.0008
1594.0,0.0007
1593.0,0.0007
1592.0,0.0007
1591.0,0.0007
1590.0,0.0007
1589.0,0.0007
1588.0,0.0007
1587.0,0.0007
1586.0,0.0006
1585.0,0.0006
1584.0,0.0006
1583.0,0.0007
1582.0,0.0007
1581.0,0.0008
1580.0,0.0008
1579.0,0.0008
1578.0,0.0008
1577.0,0.0008
1576.0,0.0008
1575.0,0.0008
1574.0,0.0008
1573.0,0.0008
1572.0,0.0009
1571.0,0.0009
1570.0,0.001
1569.0,0.0009
1568.0,0.0008
1567.0,0.0008
1566.0,0.0008
1565.0,0.0008
1564.0,0.0008
1563.0,0.0007
1562.0,0.0007
1561.0,0.0005
1560.0,0.0001
1559.0,-0.0
1558.0,0.0002
1557.0,0.0003
1556.0,0.0004
1555.0,0.0005
1554.0,0.0005
1553.0,0.0005
1552.0,0.0005
1551.0,0.0004
1550.0,0.0004
1549.0,0.0004
1548.0,0.0004
1547.0,0.0004
1546.0,0.0004
1545.0,0.0003
1544.0,0.0002
1543.0,0.0002
1542.0,0.0002
1541.0,0.0002
1540.0,0.0003
1539.0,0.0004
1538.0,0.0005
1537.0,0.0005
1536.0,0.0006
1535.0,0.0006
1534.0,0.0006
1533.0,0.0005
1532.0,0.0004
1531.0,0.0004
1530.0,0.0004
1529.0,0.0004
1528.0,0.0004
1527.0,0.0004
1526.0,0.0004
1525.0,0.0004
1524.0,0.0004
1523.0,0.0004
1522.0,0.0003
1521.0,0.0003
1520.0,0.0003
1519.0,0.0003
1518.0,0.0004
1517.0,0.0004
1516.0,0.0003
1515.0,0.0003
1514.0,0.0002
1513.0,0.0002
1512.0,0.0002
1511.0,0.0002
1510.0,0.0002
1509.0,0.0003
1508.0,0.0005
1507.0,0.0008
1506.0,0.001
1505.0,0.001
1504.0,0.001
1503.0,0.0009
1502.0,0.0008
1501.0,0.0007
1500.0,0.0006
1499.0,0.0005
1498.0,0.0004
1497.0,0.0003
1496.0,0.0003
1495.0,0.0003
1494.0,0.0003
1493.0,0.0003
1492.0,0.0003
1491.0,0.0003
1490.0,0.0002
1489.0,0.0003
1488.0,0.0002
1487.0,0.0002
1486.0,0.0001
1485.0,0.0001
1484.0,0.0001
1483.0,0.0001
1482.0,0.0001
1481.0,0.0001
1480.0,0.0001
1479.0,0.0001
1478.0,0.0001
1477.0,0.0001
1476.0,0.0
1475.0,0.0001
1474.0,0.0001
1473.0,0.0001
1472.0,0.0001
1471.0,0.0001
1470.0,0.0001
1469.0,0.0001
1468.0,0.0
1467.0,0.0001
1466.0,0.0001
1465.0,0.0001
1464.0,0.0002
1463.0,0.0003
1462.0,0.0003
1461.0,0.0004
1460.0,0.0004
1459.0,0.0004
1458.0,0.0004
1457.0,0.0006
1456.0,0.0008
1455.0,0.0008
1454.0,0.0008
1453.0,0.0008
1452.0,0.0008
1451.0,0.0008
1450.0,0.0009
1449.0,0.0009
1448.0,0.0009
1447.0,0.0009
1446.0,0.001
1445.0,0.001
1444.0,0.0009
1443.0,0.0009
1442.0,0.0009
1441.0,0.0008
1440.0,0.0008
1439.0,0.0008
1438.0,0.0008
1437.0,0.0008
1436.0,0.0007
1435.0,0.0007
1434.0,0.0006
1433.0,0.0006
1432.0,0.0005
1431.0,0.0004
1430.0,0.0003
1429.0,0.0002
1428.0,0.0001
1427.0,0.0001
1426.0,0.0
1425.0,-0.0
1424.0,-0.0001
1423.0,-0.0001
1422.0,-0.0001
1421.0,-0.0001
1420.0,-0.0001
1419.0,-0.0001
1418.0,-0.0001
1417.0,0.0001
1416.0,0.0003
1415.0,0.0006
1414.0,0.001
1413.0,0.0015
1412.0,0.002
1411.0,0.0024
1410.0,0.0027
1409.0,0.0029
1408.0,0.0029
1407.0,0.0028
1406.0,0.0026
1405.0,0.0024
1404.0,0.0023
1403.0,0.0021
1402.0,0.002
1401.0,0.0018
1400.0,0.0017
1399.0,0.0016
1398.0,0.0015
1397.0,0.0014
1396.0,0.0013
1395.0,0.0012
1394.0,0.0011
1393.0,0.001
1392.0,0.001
1391.0,0.0009
1390.0,0.0009
1389.0,0.0008
1388.0,0.0007
1387.0,0.0006
1386.0,0.0005
1385.0,0.0005
1384.0,0.0005
1383.0,0.0005
1382.0,0.0005
1381.0,0.0005
1380.0,0.0006
1379.0,0.0006
1378.0,0.0007
1377.0,0.0008
1376.0,0.0009
1375.0,0.001
1374.0,0.0011
1373.0,0.0011
1372.0,0.0012
1371.0,0.0013
1370.0,0.0013
1369.0,0.0013
1368.0,0.0013
1367.0,0.0012
1366.0,0.0011
1365.0,0.0009
1364.0,0.0007
1363.0,0.0005
1362.0,0.0004
1361.0,0.0002
1360.0,0.0001
1359.0,0.0
1358.0,-0.0
1357.0,-0.0001
1356.0,-0.0001
1355.0,-0.0002
1354.0,-0.0002
1353.0,-0.0003
1352.0,-0.0003
1351.0,-0.0003
1350.0,-0.0003
1349.0,-0.0002
1348.0,-0.0002
1347.0,-0.0001
1346.0,-0.0001
1345.0,0.0
1344.0,0.0001
1343.0,0.0001
1342.0,0.0002
1341.0,0.0002
1340.0,0.0002
1339.0,0.0002
1338.0,0.0002
1337.0,0.0002
1336.0,0.0001
1335.0,-0.0
1334.0,-0.0001
1333.0,-0.0002
1332.0,-0.0003
1331.0,-0.0003
1330.0,-0.0003
1329.0,-0.0003
1328.0,-0.0003
1327.0,-0.0003
1326.0,-0.0002
1325.0,-0.0001
1324.0,-0.0
1323.0,0.0001
1322.0,0.0001
1321.0,0.0002
1320.0,0.0002
1319.0,0.0003
1318.0,0.0003
1317.0,0.0004
1316.0,0.0006
1315.0,0.0007
1314.0,0.0008
1313.0,0.0009
1312.0,0.001
1311.0,0.0011
1310.0,0.0012
1309.0,0.0014
1308.0,0.0016
1307.0,0.0017
1306.0,0.0019
1305.0,0.002
1304.0,0.0022
1303.0,0.0023
1302.0,0.0026
1301.0,0.0028
1300.0,0.0032
1299.0,0.0035
1298.0,0.0038
1297.0,0.0042
1296.0,0.0046
1295.0,0.005
1294.0,0.0053
1293.0,0.0057
1292.0,0.006
1291.0,0.0063
1290.0,0.0065
1289.0,0.0068
1288.0,0.007
1287.0,0.0071
1286.0,0.0072
1285.0,0.0074
1284.0,0.0076
1283.0,0.0077
1282.0,0.0078
1281.0,0.0079
1280.0,0.008
1279.0,0.0081
1278.0,0.0081
1277.0,0.0082
1276.0,0.0083
1275.0,0.0085
1274.0,0.0087
1273.0,0.0089
1272.0,0.0092
1271.0,0.0095
1270.0,0.0098
1269.0,0.0101
1268.0,0.0104
1267.0,0.0107
1266.0,0.011
1265.0,0.0112
1264.0,0.0114
1263.0,0.0116
1262.0,0.0117
1261.0,0.0118
1260.0,0.0119
1259.0,0.012
1258.0,0.0121
1257.0,0.0121
1256.0,0.0122
1255.0,0.0122
1254.0,0.0122
1253.0,0.0123
1252.0,0.0123
1251.0,0.0124
1250.0,0.0126
1249.0,0.0128
1248.0,0.013
1247.0,0.0132
1246.0,0.0134
1245.0,0.0137
1244.0,0.0139
1243.0,0.0142
1242.0,0.0144
1241.0,0.0146
1240.0,0.0148
1239.0,0.015
1238.0,0.0151
1237.0,0.0152
1236.0,0.0153
1235.0,0.0153
1234.0,0.0151
1233.0,0.015
1232.0,0.0148
1231.0,0.0146
1230.0,0.0143
1229.0,0.0141
1228.0,0.0138
1227.0,0.0135
1226.0,0.0132
1225.0,0.0129
1224.0,0.0127
1223.0,0.0124
1222.0,0.0122
1221.0,0.0119
1220.0,0.0117
1219.0,0.0114
1218.0,0.0112
1217.0,0.0109
1216.0,0.0106
1215.0,0.0104
1214.0,0.0102
1213.0,0.01
1212.0,0.0098
1211.0,0.0096
1210.0,0.0094
1209.0,0.0092
1208.0,0.009
1207.0,0.0088
1206.0,0.0086
1205.0,0.0084
1204.0,0.0083
1203.0,0.0081
1202.0,0.008
1201.0,0.0079
1200.0,0.0078
1199.0,0.0077
1198.0,0.0076
1197.0,0.0074
1196.0,0.0073
1195.0,0.0071
1194.0,0.007
1193.0,0.0068
1192.0,0.0067
1191.0,0.0066
1190.0,0.0065
1189.0,0.0063
1188.0,0.0062
1187.0,0.0061
1186.0,0.0059
1185.0,0.0058
1184.0,0.0057
1183.0,0.0056
1182.0,0.0056
1181.0,0.0055
1180.0,0.0055
1179.0,0.0055
1178.0,0.0056
1177.0,0.0056
1176.0,0.0056
1175.0,0.0057
1174.0,0.0057
1173.0,0.0057
1172.0,0.0056
1171.0,0.0055
1170.0,0.0054
1169.0,0.0052
1168.0,0.0051
1167.0,0.0048
1166.0,0.0046
1165.0,0.0044
1164.0,0.0042
1163.0,0.004
1162.0,0.0038
1161.0,0.0037
1160.0,0.0036
1159.0,0.0035
1158.0,0.0034
1157.0,0.0033
1156.0,0.0032
1155.0,0.0031
1154.0,0.003
1153.0,0.003
1152.0,0.003
1151.0,0.0031
1150.0,0.0033
1149.0,0.0034
1148.0,0.0036
1147.0,0.0039
1146.0,0.0041
1145.0,0.0044
1144.0,0.0048
1143.0,0.0051
1142.0,0.0055
1141.0,0.0058
1140.0,0.0061
1139.0,0.0063
1138.0,0.0065
1137.0,0.0067
1136.0,0.007
1135.0,0.0072
1134.0,0.0074
1133.0,0.0075
1132.0,0.0077
1131.0,0.0079
1130.0,0.0081
1129.0,0.0084
1128.0,0.0087
1127.0,0.0091
1126.0,0.0095
1125.0,0.0099
1124.0,0.0104
1123.0,0.0108
1122.0,0.0113
1121.0,0.0117
1120.0,0.012
1119.0,0.0122
1118.0,0.0123
1117.0,0.0124
1116.0,0.0124
1115.0,0.0123
1114.0,0.0122
1113.0,0.012
1112.0,0.0118
1111.0,0.0118
1110.0,0.0119
1109.0,0.0122
1108.0,0.0126
1107.0,0.013
1106.0,0.0135
1105.0,0.0141
1104.0,0.0147
1103.0,0.0153
1102.0,0.0159
1101.0,0.0166
1100.0,0.0171
1099.0,0.0177
1098.0,0.0181
1097.0,0.0186
1096.0,0.019
1095.0,0.0194
1094.0,0.0197
1093.0,0.02
1092.0,0.0202
1091.0,0.0204
1090.0,0.0204
1089.0,0.0204
1088.0,0.0203
1087.0,0.0202
1086.0,0.0201
1085.0,0.02
1084.0,0.0199
1083.0,0.0198
1082.0,0.0197
1081.0,0.0194
1080.0,0.0192
1079.0,0.0189
1078.0,0.0186
1077.0,0.0182
1076.0,0.0179
1075.0,0.0174
1074.0,0.017
1073.0,0.0167
1072.0,0.0163
1071.0,0.016
1070.0,0.0156
1069.0,0.0153
1068.0,0.0149
1067.0,0.0146
1066.0,0.0142
1065.0,0.0139
1064.0,0.0136
1063.0,0.0134
1062.0,0.0131
1061.0,0.0129
1060.0,0.0126
1059.0,0.0124
1058.0,0.0122
1057.0,0.012
1056.0,0.0119
1055.0,0.0117
1054.0,0.0117
1053.0,0.0116
1052.0,0.0117
1051.0,0.0118
1050.0,0.012
1049.0,0.0121
1048.0,0.0122
1047.0,0.0123
1046.0,0.0124
1045.0,0.0125
1044.0,0.0125
1043.0,0.0126
1042.0,0.0128
1041.0,0.0129
1040.0,0.0131
1039.0,0.0132
1038.0,0.0133
1037.0,0.0132
1036.0,0.0131
1035.0,0.013
1034.0,0.0128
1033.0,0.0126
1032.0,0.0125
1031.0,0.0124
1030.0,0.0122
1029.0,0.0121
1028.0,0.0119
1027.0,0.0118
1026.0,0.0117
1025.0,0.0116
1024.0,0.0115
1023.0,0.0117
1022.0,0.012
1021.0,0.0127
1020.0,0.0138
1019.0,0.015
1018.0,0.0163
1017.0,0.0173
1016.0,0.018
1015.0,0.0183
1014.0,0.0182
1013.0,0.0179
1012.0,0.0174
1011.0,0.0168
1010.0,0.0163
1009.0,0.0158
1008.0,0.0153
1007.0,0.0149
1006.0,0.0146
1005.0,0.0144
1004.0,0.0142
1003.0,0.0139
1002.0,0.0137
1001.0,0.0134
1000.0,0.0132
999.0,0.0131
998.0,0.0129
997.0,0.0128
996.0,0.0127
995.0,0.0126
994.0,0.0125
993.0,0.0124
992.0,0.0123
991.0,0.0123
990.0,0.0122
989.0,0.0121
988.0,0.0121
987.0,0.012
986.0,0.0119
985.0,0.0119
984.0,0.0118
983.0,0.0118
982.0,0.0117
981.0,0.0117
980.0,0.0117
979.0,0.0117
978.0,0.0117
977.0,0.0118
976.0,0.0118
975.0,0.0118
974.0,0.0117
973.0,0.0117
972.0,0.0117
971.0,0.0117
970.0,0.0117
969.0,0.0117
968.0,0.0117
967.0,0.0117
966.0,0.0116
965.0,0.0115
964.0,0.0115
963.0,0.0114
962.0,0.0114
961.0,0.0114
960.0,0.0113
959.0,0.0111
958.0,0.011
957.0,0.0109
956.0,0.0109
955.0,0.011
954.0,0.011
953.0,0.0109
952.0,0.0109
951.0,0.0109
950.0,0.0109
949.0,0.0108
948.0,0.0107
947.0,0.0106
946.0,0.0106
945.0,0.0106
944.0,0.0106
943.0,0.0107
942.0,0.0107
941.0,0.0106
940.0,0.0106
939.0,0.0105
938.0,0.0105
937.0,0.0104
936.0,0.0104
935.0,0.0103
934.0,0.0103
933.0,0.0102
932.0,0.0102
931.0,0.0102
930.0,0.0102
929.0,0.0103
928.0,0.0103
927.0,0.0103
926.0,0.0102
925.0,0.0101
924.0,0.01
923.0,0.0099
922.0,0.0099
921.0,0.0098
920.0,0.0098
919.0,0.0097
918.0,0.0097
917.0,0.0096
916.0,0.0096
915.0,0.0096
914.0,0.0096
913.0,0.0095
912.0,0.0095
911.0,0.0094
910.0,0.0094
909.0,0.0094
908.0,0.0095
907.0,0.0096
906.0,0.0098
905.0,0.0101
904.0,0.0104
903.0,0.0106
902.0,0.0108
901.0,0.011
900.0,0.0112
899.0,0.0114
898.0,0.0116
897.0,0.0116
896.0,0.0117
895.0,0.0117
894.0,0.0117
893.0,0.0118
892.0,0.0118
891.0,0.0117
890.0,0.0117
889.0,0.0117
888.0,0.0118
887.0,0.0119
886.0,0.0119
885.0,0.012
884.0,0.0121
883.0,0.0123
882.0,0.0126
881.0,0.013
880.0,0.0135
879.0,0.014
878.0,0.0145
877.0,0.015
876.0,0.0155
875.0,0.016
874.0,0.0165
873.0,0.0169
872.0,0.0173
871.0,0.0174
870.0,0.0173
869.0,0.0172
868.0,0.0169
867.0,0.0166
866.0,0.0161
865.0,0.0157
864.0,0.0153
863.0,0.015
862.0,0.0147
861.0,0.0145
860.0,0.0143
859.0,0.0142
858.0,0.0141
857.0,0.0139
856.0,0.0138
855.0,0.0137
854.0,0.0136
853.0,0.0136
852.0,0.0137
851.0,0.0137
850.0,0.0136
849.0,0.0136
848.0,0.0136
847.0,0.0137
846.0,0.0138
845.0,0.0139
844.0,0.0141
843.0,0.0142
842.0,0.0141
841.0,0.014
840.0,0.0139
839.0,0.0139
838.0,0.0139
837.0,0.0139
836.0,0.0139
835.0,0.0138
834.0,0.0138
833.0,0.0138
832.0,0.0137
831.0,0.0136
830.0,0.0135
829.0,0.0135
828.0,0.0135
827.0,0.0135
826.0,0.0134
825.0,0.0132
824.0,0.0132
823.0,0.0132
822.0,0.0132
821.0,0.0132
820.0,0.0131
819.0,0.013
818.0,0.0129
817.0,0.0129
816.0,0.0129
815.0,0.0129
814.0,0.0129
813.0,0.0129
812.0,0.0129
811.0,0.0128
810.0,0.0127
809.0,0.0126
808.0,0.0126
807.0,0.0126
806.0,0.0127
805.0,0.0129
804.0,0.0129
803.0,0.013
802.0,0.0129
801.0,0.0129
800.0,0.0129
799.0,0.0128
798.0,0.0127
797.0,0.0128
796.0,0.0132
795.0,0.0137
794.0,0.0141
793.0,0.0143
792.0,0.0143
791.0,0.0142
790.0,0.0141
789.0,0.014
788.0,0.0139
787.0,0.0137
786.0,0.0133
785.0,0.013
784.0,0.0127
783.0,0.0125
782.0,0.0123
781.0,0.0121
780.0,0.012
779.0,0.0117
778.0,0.0115
777.0,0.0113
776.0,0.0112
775.0,0.0111
774.0,0.011
773.0,0.0108
772.0,0.0106
771.0,0.0105
770.0,0.0103
769.0,0.0102
768.0,0.0102
767.0,0.0101
766.0,0.0099
765.0,0.0096
764.0,0.0094
763.0,0.0091
762.0,0.0089
761.0,0.0087
760.0,0.0084
759.0,0.0082
758.0,0.008
757.0,0.0078
756.0,0.0076
755.0,0.0073
754.0,0.0069
753.0,0.0065
752.0,0.0062
751.0,0.0058
750.0,0.0055
749.0,0.0052
748.0,0.0048
747.0,0.0045
746.0,0.0043
745.0,0.0045
744.0,0.0049
743.0,0.0056
742.0,0.0066
741.0,0.0079
740.0,0.0099
739.0,0.0123
738.0,0.0151
737.0,0.0181
736.0,0.0211
735.0,0.0241
734.0,0.0271
733.0,0.0302
732.0,0.0334
731.0,0.0367
730.0,0.0399
729.0,0.0432
728.0,0.0464
727.0,0.0496
726.0,0.0525
725.0,0.0549
724.0,0.0564
723.0,0.0567
722.0,0.0557
721.0,0.0536
720.0,0.0509
719.0,0.0481
718.0,0.0453
717.0,0.0428
716.0,0.0404
715.0,0.0383
714.0,0.0365
713.0,0.0352
712.0,0.0344
711.0,0.034
710.0,0.0336
709.0,0.0332
708.0,0.0325
707.0,0.0317
706.0,0.0311
705.0,0.0308
704.0,0.0306
703.0,0.0304
702.0,0.0301
701.0,0.0296
700.0,0.0291
699.0,0.0285
698.0,0.0279
697.0,0.0272
696.0,0.0265
695.0,0.0261
694.0,0.0263
693.0,0.0271
692.0,0.0279
691.0,0.0281
690.0,0.0274
689.0,0.0261
688.0,0.0249
687.0,0.0242
686.0,0.0242
685.0,0.0247
684.0,0.0253
683.0,0.0256
682.0,0.0257
681.0,0.026
680.0,0.0266
679.0,0.0269
678.0,0.0267
677.0,0.026
676.0,0.0251
675.0,0.024
674.0,0.0228
673.0,0.0218
672.0,0.021
671.0,0.0204
670.0,0.0194
669.0,0.0179
668.0,0.0175
667.0,0.0188
666.0,0.0206
665.0,0.0223
664.0,0.0237
663.0,0.0247
662.0,0.025
661.0,0.0246
660.0,0.024
659.0,0.0232
658.0,0.0228
657.0,0.0225
656.0,0.0222
655.0,0.0216
654.0,0.0208
653.0,0.0204
652.0,0.0206
651.0,0.0208
650.0,0.0206
649.0,0.0199
648.0,0.0192
647.0,0.0191
646.0,0.0196
645.0,0.0205
644.0,0.0214
643.0,0.0216
642.0,0.0213
641.0,0.0209
640.0,0.021
639.0,0.0212
638.0,0.0213
637.0,0.0212
636.0,0.0212
635.0,0.0212
634.0,0.0214
633.0,0.0221
632.0,0.0229
631.0,0.0228
630.0,0.0218
629.0,0.0205
628.0,0.0198
627.0,0.0196
626.0,0.0198
625.0,0.0199
624.0,0.02
623.0,0.02
622.0,0.0199
621.0,0.0198
620.0,0.02
619.0,0.0206
618.0,0.0215
617.0,0.022
616.0,0.0222
615.0,0.0221
614.0,0.0219
613.0,0.0218
612.0,0.0214
611.0,0.0207
610.0,0.0196
609.0,0.0188
608.0,0.0188
607.0,0.0196
606.0,0.0206
605.0,0.0216
604.0,0.0225
603.0,0.0234
602.0,0.0244
601.0,0.0249
600.0,0.0247
