cm-1,A
4000.0,-0.0014
3999.0,-0.0013
3998.0,-0.0012
3997.0,-0.0011
3996.0,-0.0011
3995.0,-0.0012
3994.0,-0.0012
3993.0,-0.0012
3992.0,-0.0012
3991.0,-0.0012
3990.0,-0.0012
3989.0,-0.0012
3988.0,-0.0013
3987.0,-0.0013
3986.0,-0.0013
3985.0,-0.0012
3984.0,-0.0011
3983.0,-0.0011
3982.0,-0.0011
3981.0,-0.0012
3980.0,-0.0013
3979.0,-0.0014
3978.0,-0.0014
3977.0,-0.0013
3976.0,-0.0012
3975.0,-0.0012
3974.0,-0.0011
3973.0,-0.0012
3972.0,-0.0012
3971.0,-0.0013
3970.0,-0.0013
3969.0,-0.0013
3968.0,-0.0013
3967.0,-0.0012
3966.0,-0.0011
3965.0,-0.0011
3964.0,-0.0011
3963.0,-0.0012
3962.0,-0.0012
3961.0,-0.0013
3960.0,-0.0013
3959.0,-0.0013
3958.0,-0.0012
3957.0,-0.0012
3956.0,-0.0012
3955.0,-0.0012
3954.0,-0.0013
3953.0,-0.0014
3952.0,-0.0015
3951.0,-0.0015
3950.0,-0.0015
3949.0,-0.0015
3948.0,-0.0014
3947.0,-0.0014
3946.0,-0.0014
3945.0,-0.0014
3944.0,-0.0014
3943.0,-0.0015
3942.0,-0.0015
3941.0,-0.0015
3940.0,-0.0014
3939.0,-0.0013
3938.0,-0.0013
3937.0,-0.0012
3936.0,-0.0012
3935.0,-0.0013
3934.0,-0.0013
3933.0,-0.0013
3932.0,-0.0012
3931.0,-0.0012
3930.0,-0.0012
3929.0,-0.0012
3928.0,-0.0012
3927.0,-0.0012
3926.0,-0.0012
3925.0,-0.0012
3924.0,-0.0013
3923.0,-0.0013
3922.0,-0.0013
3921.0,-0.0012
3920.0,-0.0012
3919.0,-0.0011
3918.0,-0.0011
3917.0,-0.0011
3916.0,-0.0012
3915.0,-0.0012
3914.0,-0.0013
3913.0,-0.0013
3912.0,-0.0013
3911.0,-0.0013
3910.0,-0.0013
3909.0,-0.0013
3908.0,-0.0013
3907.0,-0.0013
3906.0,-0.0014
3905.0,-0.0016
3904.0,-0.0017
3903.0,-0.0018
3902.0,-0.0018
3901.0,-0.0018
3900.0,-0.0018
3899.0,-0.0018
3898.0,-0.0017
3897.0,-0.0016
3896.0,-0.0015
3895.0,-0.0014
3894.0,-0.0013
3893.0,-0.0012
3892.0,-0.0012
3891.0,-0.0013
3890.0,-0.0013
3889.0,-0.0013
3888.0,-0.0014
3887.0,-0.0014
3886.0,-0.0015
3885.0,-0.0015
3884.0,-0.0015
3883.0,-0.0015
3882.0,-0.0014
3881.0,-0.0014
3880.0,-0.0014
3879.0,-0.0015
3878.0,-0.0014
3877.0,-0.0014
3876.0,-0.0014
3875.0,-0.0014
3874.0,-0.0015
3873.0,-0.0015
3872.0,-0.0014
3871.0,-0.0013
3870.0,-0.0013
3869.0,-0.0014
3868.0,-0.0014
3867.0,-0.0015
3866.0,-0.0014
3865.0,-0.0014
3864.0,-0.0014
3863.0,-0.0014
3862.0,-0.0015
3861.0,-0.0015
3860.0,-0.0015
3859.0,-0.0015
3858.0,-0.0015
3857.0,-0.0016
3856.0,-0.0017
3855.0,-0.0016
3854.0,-0.0016
3853.0,-0.0016
3852.0,-0.0016
3851.0,-0.0016
3850.0,-0.0016
3849.0,-0.0015
3848.0,-0.0015
3847.0,-0.0015
3846.0,-0.0015
3845.0,-0.0014
3844.0,-0.0014
3843.0,-0.0014
3842.0,-0.0014
3841.0,-0.0013
3840.0,-0.0013
3839.0,-0.0014
3838.0,-0.0015
3837.0,-0.0015
3836.0,-0.0014
3835.0,-0.0013
3834.0,-0.0011
3833.0,-0.0011
3832.0,-0.0012
3831.0,-0.0013
3830.0,-0.0013
3829.0,-0.0013
3828.0,-0.0012
3827.0,-0.0011
3826.0,-0.0011
3825.0,-0.0012
3824.0,-0.0013
3823.0,-0.0014
3822.0,-0.0014
3821.0,-0.0014
3820.0,-0.0014
3819.0,-0.0014
3818.0,-0.0013
3817.0,-0.0012
3816.0,-0.0012
3815.0,-0.0012
3814.0,-0.0012
3813.0,-0.0012
3812.0,-0.0012
3811.0,-0.0013
3810.0,-0.0013
3809.0,-0.0014
3808.0,-0.0014
3807.0,-0.0013
3806.0,-0.0013
3805.0,-0.0013
3804.0,-0.0013
3803.0,-0.0014
3802.0,-0.0015
3801.0,-0.0015
3800.0,-0.0014
3799.0,-0.0013
3798.0,-0.0012
3797.0,-0.0011
3796.0,-0.0012
3795.0,-0.0012
3794.0,-0.0013
3793.0,-0.0013
3792.0,-0.0012
3791.0,-0.0012
3790.0,-0.0012
3789.0,-0.0013
3788.0,-0.0013
3787.0,-0.0014
3786.0,-0.0014
3785.0,-0.0013
3784.0,-0.0013
3783.0,-0.0013
3782.0,-0.0013
3781.0,-0.0013
3780.0,-0.0013
3779.0,-0.0013
3778.0,-0.0013
3777.0,-0.0013
3776.0,-0.0013
3775.0,-0.0012
3774.0,-0.0012
3773.0,-0.0013
3772.0,-0.0013
3771.0,-0.0012
3770.0,-0.0013
3769.0,-0.0013
3768.0,-0.0013
3767.0,-0.0013
3766.0,-0.0013
3765.0,-0.0012
3764.0,-0.0012
3763.0,-0.0012
3762.0,-0.0013
3761.0,-0.0013
3760.0,-0.0012
3759.0,-0.0012
3758.0,-0.0012
3757.0,-0.0012
3756.0,-0.0012
3755.0,-0.0012
3754.0,-0.0013
3753.0,-0.0012
3752.0,-0.0011
3751.0,-0.0011
3750.0,-0.0013
3749.0,-0.0014
3748.0,-0.0015
3747.0,-0.0017
3746.0,-0.0017
3745.0,-0.0017
3744.0,-0.0016
3743.0,-0.0016
3742.0,-0.0015
3741.0,-0.0014
3740.0,-0.0014
3739.0,-0.0015
3738.0,-0.0015
3737.0,-0.0015
3736.0,-0.0015
3735.0,-0.0016
3734.0,-0.0017
3733.0,-0.0018
3732.0,-0.0018
3731.0,-0.0019
3730.0,-0.0019
3729.0,-0.002
3728.0,-0.0021
3727.0,-0.002
3726.0,-0.002
3725.0,-0.0019
3724.0,-0.0018
3723.0,-0.0017
3722.0,-0.0017
3721.0,-0.0016
3720.0,-0.0016
3719.0,-0.0016
3718.0,-0.0015
3717.0,-0.0014
3716.0,-0.0014
3715.0,-0.0014
3714.0,-0.0013
3713.0,-0.0013
3712.0,-0.0013
3711.0,-0.0014
3710.0,-0.0015
3709.0,-0.0016
3708.0,-0.0016
3707.0,-0.0017
3706.0,-0.0017
3705.0,-0.0017
3704.0,-0.0018
3703.0,-0.0018
3702.0,-0.0018
3701.0,-0.0018
3700.0,-0.0017
3699.0,-0.0017
3698.0,-0.0017
3697.0,-0.0017
3696.0,-0.0017
3695.0,-0.0017
3694.0,-0.0016
3693.0,-0.0015
3692.0,-0.0015
3691.0,-0.0015
3690.0,-0.0015
3689.0,-0.0016
3688.0,-0.0015
3687.0,-0.0015
3686.0,-0.0014
3685.0,-0.0013
3684.0,-0.0012
3683.0,-0.0012
3682.0,-0.0012
3681.0,-0.0012
3680.0,-0.0012
3679.0,-0.0012
3678.0,-0.0012
3677.0,-0.0012
3676.0,-0.0012
3675.0,-0.0013
3674.0,-0.0014
3673.0,-0.0015
3672.0,-0.0015
3671.0,-0.0014
3670.0,-0.0014
3669.0,-0.0013
3668.0,-0.0013
3667.0,-0.0012
3666.0,-0.0011
3665.0,-0.001
3664.0,-0.001
3663.0,-0.0011
3662.0,-0.0011
3661.0,-0.0012
3660.0,-0.0012
3659.0,-0.0013
3658.0,-0.0013
3657.0,-0.0013
3656.0,-0.0014
3655.0,-0.0015
3654.0,-0.0016
3653.0,-0.0017
3652.0,-0.0018
3651.0,-0.0017
3650.0,-0.0015
3649.0,-0.0013
3648.0,-0.0012
3647.0,-0.0012
3646.0,-0.0012
3645.0,-0.0012
3644.0,-0.0012
3643.0,-0.0011
3642.0,-0.0011
3641.0,-0.0011
3640.0,-0.0012
3639.0,-0.0012
3638.0,-0.0013
3637.0,-0.0013
3636.0,-0.0014
3635.0,-0.0014
3634.0,-0.0015
3633.0,-0.0016
3632.0,-0.0018
3631.0,-0.002
3630.0,-0.0021
3629.0,-0.0022
3628.0,-0.0021
3627.0,-0.002
3626.0,-0.0018
3625.0,-0.0017
3624.0,-0.0016
3623.0,-0.0016
3622.0,-0.0016
3621.0,-0.0017
3620.0,-0.0017
3619.0,-0.0017
3618.0,-0.0016
3617.0,-0.0014
3616.0,-0.0013
3615.0,-0.0013
3614.0,-0.0014
3613.0,-0.0015
3612.0,-0.0016
3611.0,-0.0016
3610.0,-0.0015
3609.0,-0.0014
3608.0,-0.0014
3607.0,-0.0014
3606.0,-0.0013
3605.0,-0.0013
3604.0,-0.0012
3603.0,-0.0011
3602.0,-0.0011
3601.0,-0.0012
3600.0,-0.0013
3599.0,-0.0013
3598.0,-0.0013
3597.0,-0.0013
3596.0,-0.0012
3595.0,-0.0013
3594.0,-0.0013
3593.0,-0.0013
3592.0,-0.0013
3591.0,-0.0013
3590.0,-0.0013
3589.0,-0.0013
3588.0,-0.0012
3587.0,-0.0013
3586.0,-0.0013
3585.0,-0.0012
3584.0,-0.0012
3583.0,-0.0011
3582.0,-0.001
3581.0,-0.0009
3580.0,-0.0009
3579.0,-0.0008
3578.0,-0.0008
3577.0,-0.0008
3576.0,-0.0008
3575.0,-0.0009
3574.0,-0.0009
3573.0,-0.001
3572.0,-0.001
3571.0,-0.0011
3570.0,-0.0011
3569.0,-0.0011
3568.0,-0.001
3567.0,-0.001
3566.0,-0.001
3565.0,-0.001
3564.0,-0.001
3563.0,-0.0009
3562.0,-0.0008
3561.0,-0.0007
3560.0,-0.0007
3559.0,-0.0007
3558.0,-0.0007
3557.0,-0.0008
3556.0,-0.0008
3555.0,-0.0009
3554.0,-0.0009
3553.0,-0.0009
3552.0,-0.0009
3551.0,-0.0008
3550.0,-0.0008
3549.0,-0.0007
3548.0,-0.0007
3547.0,-0.0008
3546.0,-0.0009
3545.0,-0.0011
3544.0,-0.0011
3543.0,-0.0012
3542.0,-0.0011
3541.0,-0.001
3540.0,-0.001
3539.0,-0.0009
3538.0,-0.0008
3537.0,-0.0008
3536.0,-0.0008
3535.0,-0.0008
3534.0,-0.0007
3533.0,-0.0007
3532.0,-0.0007
3531.0,-0.0008
3530.0,-0.0008
3529.0,-0.0009
3528.0,-0.0009
3527.0,-0.0009
3526.0,-0.0009
3525.0,-0.0009
3524.0,-0.0009
3523.0,-0.001
3522.0,-0.001
3521.0,-0.0009
3520.0,-0.0009
3519.0,-0.0008
3518.0,-0.0008
3517.0,-0.0008
3516.0,-0.0009
3515.0,-0.0008
3514.0,-0.0007
3513.0,-0.0007
3512.0,-0.0007
3511.0,-0.0007
3510.0,-0.0008
3509.0,-0.0009
3508.0,-0.0009
3507.0,-0.0009
3506.0,-0.0009
3505.0,-0.0009
3504.0,-0.0009
3503.0,-0.0009
3502.0,-0.0008
3501.0,-0.0007
3500.0,-0.0007
3499.0,-0.0007
3498.0,-0.0007
3497.0,-0.0007
3496.0,-0.0008
3495.0,-0.0008
3494.0,-0.0008
3493.0,-0.0008
3492.0,-0.0008
3491.0,-0.0007
3490.0,-0.0007
3489.0,-0.0006
3488.0,-0.0006
3487.0,-0.0006
3486.0,-0.0006
3485.0,-0.0006
3484.0,-0.0007
3483.0,-0.0008
3482.0,-0.0008
3481.0,-0.0008
3480.0,-0.0007
3479.0,-0.0007
3478.0,-0.0006
3477.0,-0.0006
3476.0,-0.0006
3475.0,-0.0007
3474.0,-0.0008
3473.0,-0.0009
3472.0,-0.0009
3471.0,-0.0008
3470.0,-0.0007
3469.0,-0.0006
3468.0,-0.0005
3467.0,-0.0005
3466.0,-0.0006
3465.0,-0.0007
3464.0,-0.0007
3463.0,-0.0007
3462.0,-0.0007
3461.0,-0.0007
3460.0,-0.0007
3459.0,-0.0008
3458.0,-0.0009
3457.0,-0.001
3456.0,-0.001
3455.0,-0.001
3454.0,-0.0009
3453.0,-0.0008
3452.0,-0.0008
3451.0,-0.0008
3450.0,-0.0008
3449.0,-0.0007
3448.0,-0.0007
3447.0,-0.0006
3446.0,-0.0005
3445.0,-0.0005
3444.0,-0.0005
3443.0,-0.0005
3442.0,-0.0006
3441.0,-0.0007
3440.0,-0.0008
3439.0,-0.0008
3438.0,-0.0007
3437.0,-0.0007
3436.0,-0.0006
3435.0,-0.0006
3434.0,-0.0007
3433.0,-0.0007
3432.0,-0.0008
3431.0,-0.0008
3430.0,-0.0008
3429.0,-0.0008
3428.0,-0.0008
3427.0,-0.0008
3426.0,-0.0008
3425.0,-0.0008
3424.0,-0.0008
3423.0,-0.0008
3422.0,-0.0008
3421.0,-0.0008
3420.0,-0.0009
3419.0,-0.0009
3418.0,-0.0009
3417.0,-0.0009
3416.0,-0.0008
3415.0,-0.0008
3414.0,-0.0008
3413.0,-0.0008
3412.0,-0.0008
3411.0,-0.0008
3410.0,-0.0008
3409.0,-0.0008
3408.0,-0.0009
3407.0,-0.001
3406.0,-0.001
3405.0,-0.001
3404.0,-0.0009
3403.0,-0.0008
3402.0,-0.0008
3401.0,-0.0008
3400.0,-0.0007
3399.0,-0.0007
3398.0,-0.0006
3397.0,-0.0007
3396.0,-0.0007
3395.0,-0.0008
3394.0,-0.0009
3393.0,-0.0009
3392.0,-0.0009
3391.0,-0.0009
3390.0,-0.0008
3389.0,-0.0008
3388.0,-0.0007
3387.0,-0.0007
3386.0,-0.0007
3385.0,-0.0007
3384.0,-0.0007
3383.0,-0.0007
3382.0,-0.0007
3381.0,-0.0008
3380.0,-0.0008
3379.0,-0.0008
3378.0,-0.0007
3377.0,-0.0007
3376.0,-0.0007
3375.0,-0.0007
3374.0,-0.0007
3373.0,-0.0007
3372.0,-0.0007
3371.0,-0.0007
3370.0,-0.0008
3369.0,-0.0008
3368.0,-0.0008
3367.0,-0.0008
3366.0,-0.0008
3365.0,-0.0008
3364.0,-0.0008
3363.0,-0.0008
3362.0,-0.0008
3361.0,-0.0009
3360.0,-0.0009
3359.0,-0.0009
3358.0,-0.0009
3357.0,-0.0009
3356.0,-0.0009
3355.0,-0.0008
3354.0,-0.0008
3353.0,-0.0007
3352.0,-0.0007
3351.0,-0.0007
3350.0,-0.0007
3349.0,-0.0008
3348.0,-0.0008
3347.0,-0.0009
3346.0,-0.0009
3345.0,-0.0009
3344.0,-0.0009
3343.0,-0.0009
3342.0,-0.0008
3341.0,-0.0008
3340.0,-0.0008
3339.0,-0.0007
3338.0,-0.0007
3337.0,-0.0007
3336.0,-0.0008
3335.0,-0.0008
3334.0,-0.0009
3333.0,-0.001
3332.0,-0.001
3331.0,-0.001
3330.0,-0.0009
3329.0,-0.0009
3328.0,-0.0009
3327.0,-0.0009
3326.0,-0.0009
3325.0,-0.0009
3324.0,-0.0009
3323.0,-0.001
3322.0,-0.001
3321.0,-0.001
3320.0,-0.0009
3319.0,-0.0008
3318.0,-0.0007
3317.0,-0.0007
3316.0,-0.0007
3315.0,-0.0008
3314.0,-0.0009
3313.0,-0.0009
3312.0,-0.0009
3311.0,-0.0009
3310.0,-0.0009
3309.0,-0.0009
3308.0,-0.0009
3307.0,-0.0008
3306.0,-0.0008
3305.0,-0.0008
3304.0,-0.0009
3303.0,-0.0009
3302.0,-0.0009
3301.0,-0.0009
3300.0,-0.0008
3299.0,-0.0007
3298.0,-0.0007
3297.0,-0.0008
3296.0,-0.0008
3295.0,-0.0008
3294.0,-0.0008
3293.0,-0.0007
3292.0,-0.0008
3291.0,-0.0008
3290.0,-0.0009
3289.0,-0.001
3288.0,-0.001
3287.0,-0.001
3286.0,-0.001
3285.0,-0.001
3284.0,-0.001
3283.0,-0.001
3282.0,-0.001
3281.0,-0.0011
3280.0,-0.0011
3279.0,-0.001
3278.0,-0.0009
3277.0,-0.0008
3276.0,-0.0008
3275.0,-0.0008
3274.0,-0.0009
3273.0,-0.0009
3272.0,-0.001
3271.0,-0.001
3270.0,-0.001
3269.0,-0.001
3268.0,-0.001
3267.0,-0.0009
3266.0,-0.0009
3265.0,-0.0008
3264.0,-0.0008
3263.0,-0.0009
3262.0,-0.0009
3261.0,-0.001
3260.0,-0.001
3259.0,-0.0009
3258.0,-0.0009
3257.0,-0.0009
3256.0,-0.0009
3255.0,-0.001
3254.0,-0.001
3253.0,-0.001
3252.0,-0.001
3251.0,-0.001
3250.0,-0.001
3249.0,-0.001
3248.0,-0.001
3247.0,-0.001
3246.0,-0.001
3245.0,-0.0009
3244.0,-0.0009
3243.0,-0.001
3242.0,-0.001
3241.0,-0.0009
3240.0,-0.0008
3239.0,-0.0008
3238.0,-0.0008
3237.0,-0.0008
3236.0,-0.0008
3235.0,-0.0008
3234.0,-0.0008
3233.0,-0.0009
3232.0,-0.001
3231.0,-0.001
3230.0,-0.0011
3229.0,-0.001
3228.0,-0.001
3227.0,-0.0009
3226.0,-0.0009
3225.0,-0.0009
3224.0,-0.0009
3223.0,-0.0009
3222.0,-0.001
3221.0,-0.001
3220.0,-0.001
3219.0,-0.0009
3218.0,-0.0009
3217.0,-0.0009
3216.0,-0.001
3215.0,-0.0011
3214.0,-0.0012
3213.0,-0.0011
3212.0,-0.0011
3211.0,-0.001
3210.0,-0.001
3209.0,-0.0009
3208.0,-0.0009
3207.0,-0.0009
3206.0,-0.0009
3205.0,-0.0009
3204.0,-0.0009
3203.0,-0.0009
3202.0,-0.0008
3201.0,-0.0008
3200.0,-0.0008
3199.0,-0.0008
3198.0,-0.0008
3197.0,-0.0008
3196.0,-0.0008
3195.0,-0.0009
3194.0,-0.0009
3193.0,-0.0009
3192.0,-0.0009
3191.0,-0.0009
3190.0,-0.0009
3189.0,-0.0009
3188.0,-0.0009
3187.0,-0.0008
3186.0,-0.0008
3185.0,-0.0008
3184.0,-0.0009
3183.0,-0.0009
3182.0,-0.0009
3181.0,-0.0009
3180.0,-0.0009
3179.0,-0.0009
3178.0,-0.0009
3177.0,-0.0009
3176.0,-0.0009
3175.0,-0.001
3174.0,-0.0011
3173.0,-0.0012
3172.0,-0.0011
3171.0,-0.0011
3170.0,-0.001
3169.0,-0.0009
3168.0,-0.001
3167.0,-0.001
3166.0,-0.001
3165.0,-0.0009
3164.0,-0.0009
3163.0,-0.0008
3162.0,-0.0008
3161.0,-0.0008
3160.0,-0.0009
3159.0,-0.001
3158.0,-0.001
3157.0,-0.0011
3156.0,-0.0011
3155.0,-0.0011
3154.0,-0.001
3153.0,-0.001
3152.0,-0.001
3151.0,-0.0009
3150.0,-0.0009
3149.0,-0.0009
3148.0,-0.0009
3147.0,-0.0009
3146.0,-0.0009
3145.0,-0.0009
3144.0,-0.0009
3143.0,-0.0009
3142.0,-0.001
3141.0,-0.001
3140.0,-0.001
3139.0,-0.001
3138.0,-0.0011
3137.0,-0.0011
3136.0,-0.0011
3135.0,-0.001
3134.0,-0.001
3133.0,-0.001
3132.0,-0.001
3131.0,-0.001
3130.0,-0.0011
3129.0,-0.0011
3128.0,-0.0011
3127.0,-0.001
3126.0,-0.001
3125.0,-0.0011
3124.0,-0.0011
3123.0,-0.0012
3122.0,-0.0013
3121.0,-0.0013
3120.0,-0.0013
3119.0,-0.0012
3118.0,-0.0011
3117.0,-0.0011
3116.0,-0.0011
3115.0,-0.0012
3114.0,-0.0011
3113.0,-0.0011
3112.0,-0.001
3111.0,-0.001
3110.0,-0.001
3109.0,-0.001
3108.0,-0.001
3107.0,-0.001
3106.0,-0.0011
3105.0,-0.0012
3104.0,-0.0012
3103.0,-0.0013
3102.0,-0.0012
3101.0,-0.0012
3100.0,-0.0012
3099.0,-0.0011
3098.0,-0.0011
3097.0,-0.0011
3096.0,-0.0011
3095.0,-0.0011
3094.0,-0.001
3093.0,-0.001
3092.0,-0.0009
3091.0,-0.001
3090.0,-0.001
3089.0,-0.0011
3088.0,-0.0011
3087.0,-0.0011
3086.0,-0.001
3085.0,-0.001
3084.0,-0.0011
3083.0,-0.0011
3082.0,-0.0011
3081.0,-0.0012
3080.0,-0.0012
3079.0,-0.0012
3078.0,-0.0012
3077.0,-0.0012
3076.0,-0.0012
3075.0,-0.0012
3074.0,-0.0012
3073.0,-0.0012
3072.0,-0.0012
3071.0,-0.0013
3070.0,-0.0013
3069.0,-0.0013
3068.0,-0.0012
3067.0,-0.0012
3066.0,-0.0012
3065.0,-0.0012
3064.0,-0.0012
3063.0,-0.0011
3062.0,-0.0011
3061.0,-0.001
3060.0,-0.0009
3059.0,-0.0009
3058.0,-0.0009
3057.0,-0.001
3056.0,-0.0012
3055.0,-0.0013
3054.0,-0.0013
3053.0,-0.0013
3052.0,-0.0012
3051.0,-0.0012
3050.0,-0.0011
3049.0,-0.0012
3048.0,-0.0012
3047.0,-0.0011
3046.0,-0.0011
3045.0,-0.0011
3044.0,-0.0011
3043.0,-0.0011
3042.0,-0.0011
3041.0,-0.0011
3040.0,-0.0011
3039.0,-0.0012
3038.0,-0.0012
3037.0,-0.0013
3036.0,-0.0013
3035.0,-0.0013
3034.0,-0.0013
3033.0,-0.0013
3032.0,-0.0013
3031.0,-0.0013
3030.0,-0.0013
3029.0,-0.0013
3028.0,-0.0013
3027.0,-0.0012
3026.0,-0.0012
3025.0,-0.0011
3024.0,-0.0011
3023.0,-0.0011
3022.0,-0.0011
3021.0,-0.0011
3020.0,-0.0011
3019.0,-0.0011
3018.0,-0.0011
3017.0,-0.001
3016.0,-0.0009
3015.0,-0.0009
3014.0,-0.0008
3013.0,-0.0008
3012.0,-0.0008
3011.0,-0.0007
3010.0,-0.0006
3009.0,-0.0006
3008.0,-0.0005
3007.0,-0.0004
3006.0,-0.0002
3005.0,-0.0001
3004.0,0.0
3003.0,0.0001
3002.0,0.0002
3001.0,0.0003
3000.0,0.0003
2999.0,0.0003
2998.0,0.0003
2997.0,0.0003
2996.0,0.0004
2995.0,0.0005
2994.0,0.0005
2993.0,0.0006
2992.0,0.0006
2991.0,0.0005
2990.0,0.0004
2989.0,0.0002
2988.0,0.0002
2987.0,0.0001
2986.0,0.0001
2985.0,0.0
2984.0,-0.0001
2983.0,-0.0002
2982.0,-0.0003
2981.0,-0.0004
2980.0,-0.0004
2979.0,-0.0004
2978.0,-0.0004
2977.0,-0.0005
2976.0,-0.0006
2975.0,-0.0007
2974.0,-0.0007
2973.0,-0.0006
2972.0,-0.0006
2971.0,-0.0005
2970.0,-0.0005
2969.0,-0.0006
2968.0,-0.0006
2967.0,-0.0006
2966.0,-0.0005
2965.0,-0.0005
2964.0,-0.0004
2963.0,-0.0004
2962.0,-0.0004
2961.0,-0.0004
2960.0,-0.0005
2959.0,-0.0005
2958.0,-0.0005
2957.0,-0.0004
2956.0,-0.0003
2955.0,-0.0002
2954.0,-0.0001
2953.0,0.0
2952.0,0.0001
2951.0,0.0001
2950.0,0.0002
2949.0,0.0002
2948.0,0.0002
2947.0,0.0002
2946.0,0.0002
2945.0,0.0003
2944.0,0.0003
2943.0,0.0002
2942.0,0.0001
2941.0,0.0
2940.0,-0.0001
2939.0,-0.0001
2938.0,-0.0002
2937.0,-0.0002
2936.0,-0.0003
2935.0,-0.0003
2934.0,-0.0003
2933.0,-0.0003
2932.0,-0.0003
2931.0,-0.0003
2930.0,-0.0004
2929.0,-0.0005
2928.0,-0.0006
2927.0,-0.0007
2926.0,-0.0007
2925.0,-0.0007
2924.0,-0.0007
2923.0,-0.0007
2922.0,-0.0006
2921.0,-0.0007
2920.0,-0.0007
2919.0,-0.0007
2918.0,-0.0007
2917.0,-0.0007
2916.0,-0.0006
2915.0,-0.0006
2914.0,-0.0006
2913.0,-0.0006
2912.0,-0.0006
2911.0,-0.0007
2910.0,-0.0007
2909.0,-0.0007
2908.0,-0.0007
2907.0,-0.0007
2906.0,-0.0007
2905.0,-0.0007
2904.0,-0.0007
2903.0,-0.0008
2902.0,-0.0008
2901.0,-0.0008
2900.0,-0.0008
2899.0,-0.0009
2898.0,-0.0009
2897.0,-0.0009
2896.0,-0.0009
2895.0,-0.0009
2894.0,-0.001
2893.0,-0.001
2892.0,-0.001
2891.0,-0.0009
2890.0,-0.0008
2889.0,-0.0007
2888.0,-0.0007
2887.0,-0.0007
2886.0,-0.0007
2885.0,-0.0007
2884.0,-0.0008
2883.0,-0.0008
2882.0,-0.0009
2881.0,-0.0009
2880.0,-0.0009
2879.0,-0.0009
2878.0,-0.0008
2877.0,-0.0008
2876.0,-0.0008
2875.0,-0.0008
2874.0,-0.0008
2873.0,-0.0008
2872.0,-0.0008
2871.0,-0.0008
2870.0,-0.0008
2869.0,-0.0008
2868.0,-0.0009
2867.0,-0.0009
2866.0,-0.0009
2865.0,-0.001
2864.0,-0.001
2863.0,-0.0011
2862.0,-0.0011
2861.0,-0.0011
2860.0,-0.001
2859.0,-0.001
2858.0,-0.001
2857.0,-0.001
2856.0,-0.001
2855.0,-0.001
2854.0,-0.001
2853.0,-0.001
2852.0,-0.001
2851.0,-0.001
2850.0,-0.0011
2849.0,-0.0011
2848.0,-0.0011
2847.0,-0.0011
2846.0,-0.0011
2845.0,-0.0011
2844.0,-0.0011
2843.0,-0.0011
2842.0,-0.0011
2841.0,-0.0011
2840.0,-0.0011
2839.0,-0.0011
2838.0,-0.0011
2837.0,-0.0011
2836.0,-0.0011
2835.0,-0.0011
2834.0,-0.0011
2833.0,-0.0011
2832.0,-0.0011
2831.0,-0.0011
2830.0,-0.0011
2829.0,-0.0012
2828.0,-0.0012
2827.0,-0.0012
2826.0,-0.0011
2825.0,-0.0011
2824.0,-0.0011
2823.0,-0.0012
2822.0,-0.0012
2821.0,-0.0012
2820.0,-0.0012
2819.0,-0.0012
2818.0,-0.0012
2817.0,-0.0012
2816.0,-0.0013
2815.0,-0.0013
2814.0,-0.0013
2813.0,-0.0012
2812.0,-0.0012
2811.0,-0.0012
2810.0,-0.0012
2809.0,-0.0013
2808.0,-0.0013
2807.0,-0.0013
2806.0,-0.0013
2805.0,-0.0012
2804.0,-0.0012
2803.0,-0.0012
2802.0,-0.0012
2801.0,-0.0013
2800.0,-0.0013
2799.0,-0.0014
2798.0,-0.0014
2797.0,-0.0013
2796.0,-0.0012
2795.0,-0.0011
2794.0,-0.0011
2793.0,-0.0011
2792.0,-0.0012
2791.0,-0.0013
2790.0,-0.0013
2789.0,-0.0013
2788.0,-0.0013
2787.0,-0.0013
2786.0,-0.0013
2785.0,-0.0014
2784.0,-0.0014
2783.0,-0.0014
2782.0,-0.0013
2781.0,-0.0012
2780.0,-0.0012
2779.0,-0.0013
2778.0,-0.0013
2777.0,-0.0014
2776.0,-0.0015
2775.0,-0.0015
2774.0,-0.0014
2773.0,-0.0014
2772.0,-0.0014
2771.0,-0.0014
2770.0,-0.0014
2769.0,-0.0014
2768.0,-0.0013
2767.0,-0.0013
2766.0,-0.0013
2765.0,-0.0013
2764.0,-0.0013
2763.0,-0.0014
2762.0,-0.0014
2761.0,-0.0014
2760.0,-0.0014
2759.0,-0.0014
2758.0,-0.0015
2757.0,-0.0015
2756.0,-0.0014
2755.0,-0.0014
2754.0,-0.0014
2753.0,-0.0014
2752.0,-0.0013
2751.0,-0.0013
2750.0,-0.0013
2749.0,-0.0013
2748.0,-0.0013
2747.0,-0.0013
2746.0,-0.0013
2745.0,-0.0014
2744.0,-0.0014
2743.0,-0.0014
2742.0,-0.0014
2741.0,-0.0014
2740.0,-0.0014
2739.0,-0.0014
2738.0,-0.0014
2737.0,-0.0014
2736.0,-0.0014
2735.0,-0.0013
2734.0,-0.0013
2733.0,-0.0013
2732.0,-0.0013
2731.0,-0.0013
2730.0,-0.0013
2729.0,-0.0014
2728.0,-0.0014
2727.0,-0.0015
2726.0,-0.0015
2725.0,-0.0015
2724.0,-0.0015
2723.0,-0.0015
2722.0,-0.0015
2721.0,-0.0015
2720.0,-0.0014
2719.0,-0.0014
2718.0,-0.0014
2717.0,-0.0014
2716.0,-0.0014
2715.0,-0.0014
2714.0,-0.0014
2713.0,-0.0015
2712.0,-0.0015
2711.0,-0.0015
2710.0,-0.0014
2709.0,-0.0014
2708.0,-0.0013
2707.0,-0.0013
2706.0,-0.0013
2705.0,-0.0013
2704.0,-0.0014
2703.0,-0.0014
2702.0,-0.0013
2701.0,-0.0013
2700.0,-0.0013
2699.0,-0.0013
2698.0,-0.0013
2697.0,-0.0014
2696.0,-0.0013
2695.0,-0.0013
2694.0,-0.0013
2693.0,-0.0013
2692.0,-0.0013
2691.0,-0.0013
2690.0,-0.0013
2689.0,-0.0013
2688.0,-0.0013
2687.0,-0.0013
2686.0,-0.0013
2685.0,-0.0014
2684.0,-0.0014
2683.0,-0.0014
2682.0,-0.0014
2681.0,-0.0015
2680.0,-0.0015
2679.0,-0.0015
2678.0,-0.0015
2677.0,-0.0016
2676.0,-0.0016
2675.0,-0.0016
2674.0,-0.0015
2673.0,-0.0014
2672.0,-0.0013
2671.0,-0.0013
2670.0,-0.0013
2669.0,-0.0014
2668.0,-0.0015
2667.0,-0.0015
2666.0,-0.0016
2665.0,-0.0016
2664.0,-0.0016
2663.0,-0.0016
2662.0,-0.0016
2661.0,-0.0016
2660.0,-0.0015
2659.0,-0.0015
2658.0,-0.0015
2657.0,-0.0015
2656.0,-0.0015
2655.0,-0.0015
2654.0,-0.0015
2653.0,-0.0015
2652.0,-0.0015
2651.0,-0.0015
2650.0,-0.0014
2649.0,-0.0014
2648.0,-0.0014
2647.0,-0.0014
2646.0,-0.0015
2645.0,-0.0015
2644.0,-0.0015
2643.0,-0.0015
2642.0,-0.0014
2641.0,-0.0014
2640.0,-0.0015
2639.0,-0.0015
2638.0,-0.0016
2637.0,-0.0016
2636.0,-0.0016
2635.0,-0.0016
2634.0,-0.0016
2633.0,-0.0015
2632.0,-0.0015
2631.0,-0.0015
2630.0,-0.0015
2629.0,-0.0015
2628.0,-0.0015
2627.0,-0.0015
2626.0,-0.0015
2625.0,-0.0015
2624.0,-0.0015
2623.0,-0.0015
2622.0,-0.0015
2621.0,-0.0015
2620.0,-0.0015
2619.0,-0.0015
2618.0,-0.0015
2617.0,-0.0016
2616.0,-0.0016
2615.0,-0.0016
2614.0,-0.0016
2613.0,-0.0016
2612.0,-0.0015
2611.0,-0.0015
2610.0,-0.0015
2609.0,-0.0015
2608.0,-0.0015
2607.0,-0.0016
2606.0,-0.0016
2605.0,-0.0016
2604.0,-0.0016
2603.0,-0.0016
2602.0,-0.0016
2601.0,-0.0016
2600.0,-0.0016
2599.0,-0.0016
2598.0,-0.0016
2597.0,-0.0016
2596.0,-0.0015
2595.0,-0.0015
2594.0,-0.0016
2593.0,-0.0016
2592.0,-0.0016
2591.0,-0.0016
2590.0,-0.0016
2589.0,-0.0016
2588.0,-0.0015
2587.0,-0.0015
2586.0,-0.0015
2585.0,-0.0016
2584.0,-0.0016
2583.0,-0.0016
2582.0,-0.0016
2581.0,-0.0016
2580.0,-0.0016
2579.0,-0.0016
2578.0,-0.0016
2577.0,-0.0016
2576.0,-0.0016
2575.0,-0.0016
2574.0,-0.0016
2573.0,-0.0016
2572.0,-0.0016
2571.0,-0.0017
2570.0,-0.0017
2569.0,-0.0016
2568.0,-0.0016
2567.0,-0.0016
2566.0,-0.0016
2565.0,-0.0016
2564.0,-0.0016
2563.0,-0.0016
2562.0,-0.0016
2561.0,-0.0016
2560.0,-0.0017
2559.0,-0.0018
2558.0,-0.0018
2557.0,-0.0018
2556.0,-0.0018
2555.0,-0.0018
2554.0,-0.0018
2553.0,-0.0018
2552.0,-0.0018
2551.0,-0.0018
2550.0,-0.0018
2549.0,-0.0017
2548.0,-0.0017
2547.0,-0.0016
2546.0,-0.0016
2545.0,-0.0016
2544.0,-0.0017
2543.0,-0.0017
2542.0,-0.0018
2541.0,-0.0018
2540.0,-0.0018
2539.0,-0.0018
2538.0,-0.0017
2537.0,-0.0017
2536.0,-0.0017
2535.0,-0.0017
2534.0,-0.0017
2533.0,-0.0017
2532.0,-0.0017
2531.0,-0.0016
2530.0,-0.0016
2529.0,-0.0016
2528.0,-0.0016
2527.0,-0.0016
2526.0,-0.0016
2525.0,-0.0016
2524.0,-0.0016
2523.0,-0.0016
2522.0,-0.0016
2521.0,-0.0017
2520.0,-0.0017
2519.0,-0.0017
2518.0,-0.0017
2517.0,-0.0017
2516.0,-0.0016
2515.0,-0.0017
2514.0,-0.0017
2513.0,-0.0016
2512.0,-0.0016
2511.0,-0.0016
2510.0,-0.0017
2509.0,-0.0017
2508.0,-0.0017
2507.0,-0.0017
2506.0,-0.0017
2505.0,-0.0017
2504.0,-0.0017
2503.0,-0.0017
2502.0,-0.0017
2501.0,-0.0017
2500.0,-0.0017
2499.0,-0.0017
2498.0,-0.0017
2497.0,-0.0017
2496.0,-0.0017
2495.0,-0.0017
2494.0,-0.0017
2493.0,-0.0017
2492.0,-0.0017
2491.0,-0.0018
2490.0,-0.0018
2489.0,-0.0018
2488.0,-0.0017
2487.0,-0.0017
2486.0,-0.0017
2485.0,-0.0016
2484.0,-0.0016
2483.0,-0.0016
2482.0,-0.0017
2481.0,-0.0017
2480.0,-0.0017
2479.0,-0.0017
2478.0,-0.0017
2477.0,-0.0016
2476.0,-0.0017
2475.0,-0.0017
2474.0,-0.0018
2473.0,-0.0019
2472.0,-0.0019
2471.0,-0.0019
2470.0,-0.0019
2469.0,-0.0019
2468.0,-0.0019
2467.0,-0.0019
2466.0,-0.0019
2465.0,-0.0019
2464.0,-0.0019
2463.0,-0.0019
2462.0,-0.0018
2461.0,-0.0018
2460.0,-0.0018
2459.0,-0.0019
2458.0,-0.0019
2457.0,-0.002
2456.0,-0.0019
2455.0,-0.0019
2454.0,-0.0018
2453.0,-0.0018
2452.0,-0.0018
2451.0,-0.0018
2450.0,-0.0018
2449.0,-0.0018
2448.0,-0.0019
2447.0,-0.0019
2446.0,-0.0019
2445.0,-0.0018
2444.0,-0.0018
2443.0,-0.0018
2442.0,-0.0018
2441.0,-0.0018
2440.0,-0.0019
2439.0,-0.0018
2438.0,-0.0018
2437.0,-0.0017
2436.0,-0.0016
2435.0,-0.0016
2434.0,-0.0016
2433.0,-0.0017
2432.0,-0.0017
2431.0,-0.0018
2430.0,-0.0018
2429.0,-0.0019
2428.0,-0.0019
2427.0,-0.0019
2426.0,-0.0019
2425.0,-0.0019
2424.0,-0.0019
2423.0,-0.0019
2422.0,-0.0019
2421.0,-0.0019
2420.0,-0.0019
2419.0,-0.0019
2418.0,-0.0019
2417.0,-0.0019
2416.0,-0.0019
2415.0,-0.0018
2414.0,-0.0018
2413.0,-0.0018
2412.0,-0.0018
2411.0,-0.0018
2410.0,-0.0018
2409.0,-0.0017
2408.0,-0.0017
2407.0,-0.0017
2406.0,-0.0017
2405.0,-0.0018
2404.0,-0.0018
2403.0,-0.0018
2402.0,-0.0018
2401.0,-0.0018
2400.0,-0.0018
2399.0,-0.0018
2398.0,-0.0019
2397.0,-0.0019
2396.0,-0.0019
2395.0,-0.0019
2394.0,-0.0019
2393.0,-0.0019
2392.0,-0.0019
2391.0,-0.0019
2390.0,-0.0018
2389.0,-0.0018
2388.0,-0.0018
2387.0,-0.0019
2386.0,-0.002
2385.0,-0.0021
2384.0,-0.0024
2383.0,-0.0027
2382.0,-0.0031
2381.0,-0.0036
2380.0,-0.004
2379.0,-0.0043
2378.0,-0.0044
2377.0,-0.0042
2376.0,-0.0038
2375.0,-0.0035
2374.0,-0.0034
2373.0,-0.0037
2372.0,-0.0042
2371.0,-0.0047
2370.0,-0.0051
2369.0,-0.0053
2368.0,-0.0053
2367.0,-0.0051
2366.0,-0.0043
2365.0,-0.0034
2364.0,-0.0032
2363.0,-0.0041
2362.0,-0.0051
2361.0,-0.0055
2360.0,-0.005
2359.0,-0.0046
2358.0,-0.0047
2357.0,-0.0055
2356.0,-0.0064
2355.0,-0.0069
2354.0,-0.0069
2353.0,-0.0068
2352.0,-0.0067
2351.0,-0.0065
2350.0,-0.0061
2349.0,-0.0058
2348.0,-0.0058
2347.0,-0.0059
2346.0,-0.0062
2345.0,-0.0063
2344.0,-0.006
2343.0,-0.0056
2342.0,-0.0055
2341.0,-0.0056
2340.0,-0.0059
2339.0,-0.006
2338.0,-0.0062
2337.0,-0.0064
2336.0,-0.0067
2335.0,-0.0071
2334.0,-0.0072
2333.0,-0.0072
2332.0,-0.007
2331.0,-0.0067
2330.0,-0.0064
2329.0,-0.0061
2328.0,-0.006
2327.0,-0.0058
2326.0,-0.0057
2325.0,-0.0054
2324.0,-0.0053
2323.0,-0.0052
2322.0,-0.0051
2321.0,-0.005
2320.0,-0.0047
2319.0,-0.0044
2318.0,-0.004
2317.0,-0.0037
2316.0,-0.0036
2315.0,-0.0038
2314.0,-0.004
2313.0,-0.0043
2312.0,-0.0044
2311.0,-0.0045
2310.0,-0.0045
2309.0,-0.0043
2308.0,-0.0041
2307.0,-0.0039
2306.0,-0.0038
2305.0,-0.0038
2304.0,-0.0037
2303.0,-0.0036
2302.0,-0.0035
2301.0,-0.0034
2300.0,-0.0032
2299.0,-0.0031
2298.0,-0.0031
2297.0,-0.0031
2296.0,-0.003
2295.0,-0.003
2294.0,-0.003
2293.0,-0.0029
2292.0,-0.0029
2291.0,-0.0028
2290.0,-0.0027
2289.0,-0.0026
2288.0,-0.0025
2287.0,-0.0024
2286.0,-0.0023
2285.0,-0.0023
2284.0,-0.0022
2283.0,-0.0023
2282.0,-0.0023
2281.0,-0.0024
2280.0,-0.0025
2279.0,-0.0025
2278.0,-0.0025
2277.0,-0.0025
2276.0,-0.0025
2275.0,-0.0025
2274.0,-0.0025
2273.0,-0.0024
2272.0,-0.0025
2271.0,-0.0025
2270.0,-0.0025
2269.0,-0.0026
2268.0,-0.0026
2267.0,-0.0026
2266.0,-0.0026
2265.0,-0.0026
2264.0,-0.0026
2263.0,-0.0026
2262.0,-0.0026
2261.0,-0.0026
2260.0,-0.0026
2259.0,-0.0025
2258.0,-0.0025
2257.0,-0.0025
2256.0,-0.0024
2255.0,-0.0024
2254.0,-0.0024
2253.0,-0.0023
2252.0,-0.0023
2251.0,-0.0023
2250.0,-0.0023
2249.0,-0.0024
2248.0,-0.0025
2247.0,-0.0025
2246.0,-0.0024
2245.0,-0.0024
2244.0,-0.0024
2243.0,-0.0024
2242.0,-0.0023
2241.0,-0.0023
2240.0,-0.0022
2239.0,-0.0022
2238.0,-0.0022
2237.0,-0.0022
2236.0,-0.0023
2235.0,-0.0023
2234.0,-0.0023
2233.0,-0.0023
2232.0,-0.0023
2231.0,-0.0022
2230.0,-0.0022
2229.0,-0.0023
2228.0,-0.0023
2227.0,-0.0024
2226.0,-0.0025
2225.0,-0.0025
2224.0,-0.0025
2223.0,-0.0025
2222.0,-0.0026
2221.0,-0.0026
2220.0,-0.0025
2219.0,-0.0025
2218.0,-0.0024
2217.0,-0.0024
2216.0,-0.0024
2215.0,-0.0024
2214.0,-0.0025
2213.0,-0.0025
2212.0,-0.0025
2211.0,-0.0025
2210.0,-0.0025
2209.0,-0.0024
2208.0,-0.0024
2207.0,-0.0025
2206.0,-0.0025
2205.0,-0.0025
2204.0,-0.0026
2203.0,-0.0026
2202.0,-0.0026
2201.0,-0.0025
2200.0,-0.0025
2199.0,-0.0025
2198.0,-0.0025
2197.0,-0.0025
2196.0,-0.0025
2195.0,-0.0025
2194.0,-0.0025
2193.0,-0.0025
2192.0,-0.0025
2191.0,-0.0025
2190.0,-0.0025
2189.0,-0.0025
2188.0,-0.0025
2187.0,-0.0025
2186.0,-0.0025
2185.0,-0.0025
2184.0,-0.0025
2183.0,-0.0025
2182.0,-0.0025
2181.0,-0.0026
2180.0,-0.0026
2179.0,-0.0026
2178.0,-0.0026
2177.0,-0.0026
2176.0,-0.0026
2175.0,-0.0026
2174.0,-0.0026
2173.0,-0.0026
2172.0,-0.0026
2171.0,-0.0026
2170.0,-0.0026
2169.0,-0.0025
2168.0,-0.0025
2167.0,-0.0025
2166.0,-0.0025
2165.0,-0.0025
2164.0,-0.0025
2163.0,-0.0025
2162.0,-0.0025
2161.0,-0.0025
2160.0,-0.0025
2159.0,-0.0026
2158.0,-0.0026
2157.0,-0.0027
2156.0,-0.0026
2155.0,-0.0026
2154.0,-0.0026
2153.0,-0.0026
2152.0,-0.0026
2151.0,-0.0026
2150.0,-0.0025
2149.0,-0.0026
2148.0,-0.0026
2147.0,-0.0026
2146.0,-0.0026
2145.0,-0.0026
2144.0,-0.0026
2143.0,-0.0026
2142.0,-0.0026
2141.0,-0.0027
2140.0,-0.0026
2139.0,-0.0026
2138.0,-0.0026
2137.0,-0.0026
2136.0,-0.0026
2135.0,-0.0026
2134.0,-0.0026
2133.0,-0.0026
2132.0,-0.0026
2131.0,-0.0026
2130.0,-0.0026
2129.0,-0.0026
2128.0,-0.0026
2127.0,-0.0026
2126.0,-0.0026
2125.0,-0.0026
2124.0,-0.0025
2123.0,-0.0025
2122.0,-0.0026
2121.0,-0.0025
2120.0,-0.0025
2119.0,-0.0025
2118.0,-0.0025
2117.0,-0.0025
2116.0,-0.0025
2115.0,-0.0025
2114.0,-0.0025
2113.0,-0.0025
2112.0,-0.0025
2111.0,-0.0025
2110.0,-0.0025
2109.0,-0.0025
2108.0,-0.0026
2107.0,-0.0026
2106.0,-0.0026
2105.0,-0.0026
2104.0,-0.0025
2103.0,-0.0025
2102.0,-0.0026
2101.0,-0.0026
2100.0,-0.0026
2099.0,-0.0026
2098.0,-0.0026
2097.0,-0.0026
2096.0,-0.0026
2095.0,-0.0026
2094.0,-0.0026
2093.0,-0.0026
2092.0,-0.0026
2091.0,-0.0027
2090.0,-0.0027
2089.0,-0.0027
2088.0,-0.0026
2087.0,-0.0026
2086.0,-0.0026
2085.0,-0.0026
2084.0,-0.0026
2083.0,-0.0026
2082.0,-0.0027
2081.0,-0.0027
2080.0,-0.0027
2079.0,-0.0027
2078.0,-0.0028
2077.0,-0.0028
2076.0,-0.0028
2075.0,-0.0028
2074.0,-0.0028
2073.0,-0.0027
2072.0,-0.0027
2071.0,-0.0027
2070.0,-0.0026
2069.0,-0.0026
2068.0,-0.0026
2067.0,-0.0026
2066.0,-0.0026
2065.0,-0.0026
2064.0,-0.0026
2063.0,-0.0027
2062.0,-0.0027
2061.0,-0.0027
2060.0,-0.0028
2059.0,-0.0028
2058.0,-0.0028
2057.0,-0.0029
2056.0,-0.0028
2055.0,-0.0028
2054.0,-0.0028
2053.0,-0.0029
2052.0,-0.0029
2051.0,-0.0029
2050.0,-0.0029
2049.0,-0.0029
2048.0,-0.0029
2047.0,-0.0028
2046.0,-0.0029
2045.0,-0.0029
2044.0,-0.0029
2043.0,-0.0029
2042.0,-0.003
2041.0,-0.003
2040.0,-0.003
2039.0,-0.003
2038.0,-0.003
2037.0,-0.003
2036.0,-0.0031
2035.0,-0.0031
2034.0,-0.0031
2033.0,-0.0031
2032.0,-0.0031
2031.0,-0.0031
2030.0,-0.0031
2029.0,-0.0032
2028.0,-0.0032
2027.0,-0.0031
2026.0,-0.0031
2025.0,-0.003
2024.0,-0.003
2023.0,-0.0031
2022.0,-0.0031
2021.0,-0.0031
2020.0,-0.0031
2019.0,-0.0031
2018.0,-0.003
2017.0,-0.003
2016.0,-0.003
2015.0,-0.0031
2014.0,-0.0031
2013.0,-0.003
2012.0,-0.003
2011.0,-0.003
2010.0,-0.003
2009.0,-0.003
2008.0,-0.003
2007.0,-0.003
2006.0,-0.003
2005.0,-0.0031
2004.0,-0.0031
2003.0,-0.0031
2002.0,-0.0031
2001.0,-0.0031
2000.0,-0.0031
1999.0,-0.0031
1998.0,-0.0032
1997.0,-0.0032
1996.0,-0.0032
1995.0,-0.0031
1994.0,-0.0031
1993.0,-0.0031
1992.0,-0.0031
1991.0,-0.0031
1990.0,-0.0031
1989.0,-0.0031
1988.0,-0.0032
1987.0,-0.0032
1986.0,-0.0032
1985.0,-0.0031
1984.0,-0.0031
1983.0,-0.0031
1982.0,-0.0031
1981.0,-0.0031
1980.0,-0.0031
1979.0,-0.0031
1978.0,-0.0031
1977.0,-0.003
1976.0,-0.003
1975.0,-0.003
1974.0,-0.0031
1973.0,-0.0031
1972.0,-0.0031
1971.0,-0.0031
1970.0,-0.0031
1969.0,-0.0031
1968.0,-0.003
1967.0,-0.003
1966.0,-0.003
1965.0,-0.0031
1964.0,-0.0031
1963.0,-0.0031
1962.0,-0.0031
1961.0,-0.0031
1960.0,-0.0031
1959.0,-0.0031
1958.0,-0.0031
1957.0,-0.0031
1956.0,-0.0031
1955.0,-0.0031
1954.0,-0.0031
1953.0,-0.0032
1952.0,-0.0032
1951.0,-0.0032
1950.0,-0.0032
1949.0,-0.0032
1948.0,-0.0032
1947.0,-0.0032
1946.0,-0.0032
1945.0,-0.0032
1944.0,-0.0032
1943.0,-0.0033
1942.0,-0.0033
1941.0,-0.0034
1940.0,-0.0034
1939.0,-0.0034
1938.0,-0.0034
1937.0,-0.0034
1936.0,-0.0034
1935.0,-0.0034
1934.0,-0.0034
1933.0,-0.0034
1932.0,-0.0034
1931.0,-0.0034
1930.0,-0.0034
1929.0,-0.0034
1928.0,-0.0033
1927.0,-0.0033
1926.0,-0.0033
1925.0,-0.0033
1924.0,-0.0033
1923.0,-0.0034
1922.0,-0.0034
1921.0,-0.0034
1920.0,-0.0035
1919.0,-0.0035
1918.0,-0.0034
1917.0,-0.0034
1916.0,-0.0034
1915.0,-0.0034
1914.0,-0.0034
1913.0,-0.0034
1912.0,-0.0034
1911.0,-0.0034
1910.0,-0.0033
1909.0,-0.0033
1908.0,-0.0033
1907.0,-0.0033
1906.0,-0.0033
1905.0,-0.0034
1904.0,-0.0034
1903.0,-0.0034
1902.0,-0.0034
1901.0,-0.0034
1900.0,-0.0034
1899.0,-0.0034
1898.0,-0.0034
1897.0,-0.0034
1896.0,-0.0034
1895.0,-0.0034
1894.0,-0.0035
1893.0,-0.0035
1892.0,-0.0035
1891.0,-0.0035
1890.0,-0.0035
1889.0,-0.0035
1888.0,-0.0035
1887.0,-0.0035
1886.0,-0.0034
1885.0,-0.0034
1884.0,-0.0034
1883.0,-0.0034
1882.0,-0.0035
1881.0,-0.0035
1880.0,-0.0034
1879.0,-0.0034
1878.0,-0.0034
1877.0,-0.0034
1876.0,-0.0034
1875.0,-0.0034
1874.0,-0.0035
1873.0,-0.0035
1872.0,-0.0034
1871.0,-0.0034
1870.0,-0.0034
1869.0,-0.0034
1868.0,-0.0034
1867.0,-0.0034
1866.0,-0.0034
1865.0,-0.0033
1864.0,-0.0033
1863.0,-0.0033
1862.0,-0.0033
1861.0,-0.0033
1860.0,-0.0033
1859.0,-0.0033
1858.0,-0.0033
1857.0,-0.0033
1856.0,-0.0033
1855.0,-0.0033
1854.0,-0.0033
1853.0,-0.0032
1852.0,-0.0032
1851.0,-0.0032
1850.0,-0.0032
1849.0,-0.0032
1848.0,-0.0032
1847.0,-0.0032
1846.0,-0.0032
1845.0,-0.0032
1844.0,-0.0031
1843.0,-0.0031
1842.0,-0.003
1841.0,-0.003
1840.0,-0.0029
1839.0,-0.0029
1838.0,-0.0029
1837.0,-0.0029
1836.0,-0.0028
1835.0,-0.0028
1834.0,-0.0028
1833.0,-0.0027
1832.0,-0.0026
1831.0,-0.0026
1830.0,-0.0026
1829.0,-0.0026
1828.0,-0.0025
1827.0,-0.0025
1826.0,-0.0025
1825.0,-0.0024
1824.0,-0.0024
1823.0,-0.0023
1822.0,-0.0023
1821.0,-0.0022
1820.0,-0.0022
1819.0,-0.0022
1818.0,-0.0022
1817.0,-0.0021
1816.0,-0.0021
1815.0,-0.002
1814.0,-0.0019
1813.0,-0.0019
1812.0,-0.0019
1811.0,-0.0019
1810.0,-0.0018
1809.0,-0.0018
1808.0,-0.0017
1807.0,-0.0016
1806.0,-0.0015
1805.0,-0.0014
1804.0,-0.0013
1803.0,-0.0013
1802.0,-0.0012
1801.0,-0.0011
1800.0,-0.001
1799.0,-0.0009
1798.0,-0.0008
1797.0,-0.0006
1796.0,-0.0004
1795.0,-0.0002
1794.0,-0.0
1793.0,0.0002
1792.0,0.0005
1791.0,0.0009
1790.0,0.0013
1789.0,0.0017
1788.0,0.0022
1787.0,0.0026
1786.0,0.0032
1785.0,0.0039
1784.0,0.0046
1783.0,0.0054
1782.0,0.0062
1781.0,0.0071
1780.0,0.0081
1779.0,0.0091
1778.0,0.0099
1777.0,0.0107
1776.0,0.0115
1775.0,0.0122
1774.0,0.013
1773.0,0.0142
1772.0,0.0158
1771.0,0.0172
1770.0,0.0184
1769.0,0.0199
1768.0,0.0216
1767.0,0.0235
1766.0,0.0252
1765.0,0.0269
1764.0,0.0287
1763.0,0.0309
1762.0,0.0333
1761.0,0.0352
1760.0,0.0364
1759.0,0.0369
1758.0,0.0372
1757.0,0.0373
1756.0,0.0374
1755.0,0.0374
1754.0,0.0372
1753.0,0.0371
1752.0,0.0371
1751.0,0.0372
1750.0,0.0373
1749.0,0.0372
1748.0,0.0368
1747.0,0.0361
1746.0,0.0353
1745.0,0.0343
1744.0,0.0332
1743.0,0.0321
1742.0,0.0309
1741.0,0.0296
1740.0,0.028
1739.0,0.0265
1738.0,0.0253
1737.0,0.0243
1736.0,0.0231
1735.0,0.0215
1734.0,0.0199
1733.0,0.0187
1732.0,0.0179
1731.0,0.017
1730.0,0.0162
1729.0,0.0154
1728.0,0.0147
1727.0,0.0141
1726.0,0.0136
1725.0,0.0131
1724.0,0.0126
1723.0,0.0121
1722.0,0.0117
1721.0,0.0114
1720.0,0.0109
1719.0,0.0105
1718.0,0.0101
1717.0,0.0098
1716.0,0.0095
1715.0,0.0093
1714.0,0.009
1713.0,0.0088
1712.0,0.0084
1711.0,0.008
1710.0,0.0077
1709.0,0.0074
1708.0,0.007
1707.0,0.0067
1706.0,0.0064
1705.0,0.0061
1704.0,0.0059
1703.0,0.0056
1702.0,0.0052
1701.0,0.0049
1700.0,0.0047
1699.0,0.0047
1698.0,0.0046
1697.0,0.0045
1696.0,0.0043
1695.0,0.0041
1694.0,0.004
1693.0,0.0039
1692.0,0.0037
1691.0,0.0036
1690.0,0.0034
1689.0,0.0033
1688.0,0.0031
1687.0,0.003
1686.0,0.0028
1685.0,0.0026
1684.0,0.0026
1683.0,0.0026
1682.0,0.0025
1681.0,0.0025
1680.0,0.0024
1679.0,0.0023
1678.0,0.0022
1677.0,0.0021
1676.0,0.002
1675.0,0.0019
1674.0,0.0019
1673.0,0.0018
1672.0,0.0017
1671.0,0.0017
1670.0,0.0017
1669.0,0.0017
1668.0,0.0016
1667.0,0.0016
1666.0,0.0015
1665.0,0.0014
1664.0,0.0013
1663.0,0.0012
1662.0,0.0011
1661.0,0.001
1660.0,0.001
1659.0,0.001
1658.0,0.0009
1657.0,0.0009
1656.0,0.0008
1655.0,0.0007
1654.0,0.0008
1653.0,0.0008
1652.0,0.0006
1651.0,0.0006
1650.0,0.0006
1649.0,0.0005
1648.0,0.0005
1647.0,0.0005
1646.0,0.0004
1645.0,0.0003
1644.0,0.0003
1643.0,0.0003
1642.0,0.0003
1641.0,0.0003
1640.0,0.0003
1639.0,0.0002
1638.0,0.0002
1637.0,0.0002
1636.0,0.0002
1635.0,0.0001
1634.0,0.0
1633.0,0.0
1632.0,0.0
1631.0,-0.0
1630.0,-0.0001
1629.0,-0.0002
1628.0,-0.0002
1627.0,-0.0002
1626.0,-0.0003
1625.0,-0.0003
1624.0,-0.0003
1623.0,-0.0003
1622.0,-0.0003
1621.0,-0.0003
1620.0,-0.0003
1619.0,-0.0004
1618.0,-0.0004
1617.0,-0.0005
1616.0,-0.0005
1615.0,-0.0005
1614.0,-0.0005
1613.0,-0.0006
1612.0,-0.0006
1611.0,-0.0006
1610.0,-0.0006
1609.0,-0.0006
1608.0,-0.0007
1607.0,-0.0008
1606.0,-0.0008
1605.0,-0.0009
1604.0,-0.001
1603.0,-0.0011
1602.0,-0.0011
1601.0,-0.0012
1600.0,-0.0012
1599.0,-0.0012
1598.0,-0.0013
1597.0,-0.0013
1596.0,-0.0013
1595.0,-0.0013
1594.0,-0.0013
1593.0,-0.0013
1592.0,-0.0014
1591.0,-0.0015
1590.0,-0.0015
1589.0,-0.0016
1588.0,-0.0016
1587.0,-0.0016
1586.0,-0.0016
1585.0,-0.0016
1584.0,-0.0016
1583.0,-0.0017
1582.0,-0.0017
1581.0,-0.0018
1580.0,-0.0018
1579.0,-0.0018
1578.0,-0.0018
1577.0,-0.0018
1576.0,-0.0018
1575.0,-0.0019
1574.0,-0.0019
1573.0,-0.0019
1572.0,-0.0019
1571.0,-0.0019
1570.0,-0.0019
1569.0,-0.0019
1568.0,-0.0019
1567.0,-0.002
1566.0,-0.002
1565.0,-0.002
1564.0,-0.0021
1563.0,-0.0021
1562.0,-0.0021
1561.0,-0.0021
1560.0,-0.0021
1559.0,-0.0021
1558.0,-0.0022
1557.0,-0.0022
1556.0,-0.0021
1555.0,-0.002
1554.0,-0.002
1553.0,-0.002
1552.0,-0.0021
1551.0,-0.0022
1550.0,-0.0023
1549.0,-0.0023
1548.0,-0.0024
1547.0,-0.0024
1546.0,-0.0024
1545.0,-0.0023
1544.0,-0.0021
1543.0,-0.0021
1542.0,-0.0021
1541.0,-0.0021
1540.0,-0.0022
1539.0,-0.0023
1538.0,-0.0023
1537.0,-0.0023
1536.0,-0.0023
1535.0,-0.0024
1534.0,-0.0024
1533.0,-0.0023
1532.0,-0.0023
1531.0,-0.0023
1530.0,-0.0023
1529.0,-0.0024
1528.0,-0.0024
1527.0,-0.0024
1526.0,-0.0024
1525.0,-0.0024
1524.0,-0.0023
1523.0,-0.0023
1522.0,-0.0024
1521.0,-0.0024
1520.0,-0.0024
1519.0,-0.0024
1518.0,-0.0024
1517.0,-0.0024
1516.0,-0.0025
1515.0,-0.0025
1514.0,-0.0025
1513.0,-0.0025
1512.0,-0.0025
1511.0,-0.0025
1510.0,-0.0025
1509.0,-0.0025
1508.0,-0.0025
1507.0,-0.0025
1506.0,-0.0025
1505.0,-0.0025
1504.0,-0.0024
1503.0,-0.0024
1502.0,-0.0025
1501.0,-0.0025
1500.0,-0.0026
1499.0,-0.0026
1498.0,-0.0026
1497.0,-0.0025
1496.0,-0.0025
1495.0,-0.0025
1494.0,-0.0025
1493.0,-0.0025
1492.0,-0.0026
1491.0,-0.0026
1490.0,-0.0026
1489.0,-0.0025
1488.0,-0.0025
1487.0,-0.0025
1486.0,-0.0024
1485.0,-0.0024
1484.0,-0.0024
1483.0,-0.0023
1482.0,-0.0023
1481.0,-0.0022
1480.0,-0.0022
1479.0,-0.0022
1478.0,-0.0021
1477.0,-0.002
1476.0,-0.0018
1475.0,-0.0016
1474.0,-0.0013
1473.0,-0.001
1472.0,-0.0005
1471.0,-0.0
1470.0,0.0004
1469.0,0.0009
1468.0,0.0015
1467.0,0.0022
1466.0,0.0031
1465.0,0.0044
1464.0,0.0057
1463.0,0.0068
1462.0,0.0077
1461.0,0.0086
1460.0,0.0095
1459.0,0.0104
1458.0,0.0117
1457.0,0.0129
1456.0,0.0135
1455.0,0.0136
1454.0,0.0137
1453.0,0.0136
1452.0,0.0135
1451.0,0.0133
1450.0,0.0131
1449.0,0.0127
1448.0,0.0122
1447.0,0.0117
1446.0,0.0111
1445.0,0.0105
1444.0,0.0096
1443.0,0.0087
1442.0,0.0076
1441.0,0.0066
1440.0,0.0056
1439.0,0.0047
1438.0,0.0038
1437.0,0.0028
1436.0,0.0019
1435.0,0.0014
1434.0,0.0011
1433.0,0.0008
1432.0,0.0004
1431.0,0.0001
1430.0,-0.0002
1429.0,-0.0004
1428.0,-0.0007
1427.0,-0.0008
1426.0,-0.0009
1425.0,-0.001
1424.0,-0.0011
1423.0,-0.0011
1422.0,-0.0012
1421.0,-0.0013
1420.0,-0.0015
1419.0,-0.0016
1418.0,-0.0016
1417.0,-0.0016
1416.0,-0.0016
1415.0,-0.0016
1414.0,-0.0016
1413.0,-0.0017
1412.0,-0.0017
1411.0,-0.0017
1410.0,-0.0017
1409.0,-0.0016
1408.0,-0.0015
1407.0,-0.0015
1406.0,-0.0014
1405.0,-0.0012
1404.0,-0.0011
1403.0,-0.001
1402.0,-0.0009
1401.0,-0.0007
1400.0,-0.0004
1399.0,-0.0
1398.0,0.0004
1397.0,0.0008
1396.0,0.0014
1395.0,0.0022
1394.0,0.0031
1393.0,0.004
1392.0,0.0048
1391.0,0.0057
1390.0,0.0067
1389.0,0.0077
1388.0,0.0089
1387.0,0.01
1386.0,0.0107
1385.0,0.0111
1384.0,0.0113
1383.0,0.0113
1382.0,0.0112
1381.0,0.0107
1380.0,0.0101
1379.0,0.0093
1378.0,0.0085
1377.0,0.0079
1376.0,0.0075
1375.0,0.0075
1374.0,0.008
1373.0,0.0086
1372.0,0.0094
1371.0,0.0101
1370.0,0.0107
1369.0,0.0112
1368.0,0.0116
1367.0,0.0118
1366.0,0.0119
1365.0,0.012
1364.0,0.0123
1363.0,0.0128
1362.0,0.0133
1361.0,0.0136
1360.0,0.0138
1359.0,0.0138
1358.0,0.0137
1357.0,0.0135
1356.0,0.0131
1355.0,0.0125
1354.0,0.0119
1353.0,0.0112
1352.0,0.0106
1351.0,0.0099
1350.0,0.0092
1349.0,0.0086
1348.0,0.008
1347.0,0.0074
1346.0,0.0068
1345.0,0.0063
1344.0,0.0059
1343.0,0.0056
1342.0,0.0052
1341.0,0.0049
1340.0,0.0045
1339.0,0.0042
1338.0,0.004
1337.0,0.0038
1336.0,0.0035
1335.0,0.0033
1334.0,0.0032
1333.0,0.003
1332.0,0.0029
1331.0,0.0028
1330.0,0.0027
1329.0,0.0026
1328.0,0.0026
1327.0,0.0025
1326.0,0.0025
1325.0,0.0025
1324.0,0.0024
1323.0,0.0024
1322.0,0.0024
1321.0,0.0024
1320.0,0.0024
1319.0,0.0025
1318.0,0.0025
1317.0,0.0025
1316.0,0.0025
1315.0,0.0026
1314.0,0.0026
1313.0,0.0027
1312.0,0.0028
1311.0,0.0029
1310.0,0.003
1309.0,0.0031
1308.0,0.0032
1307.0,0.0033
1306.0,0.0034
1305.0,0.0035
1304.0,0.0036
1303.0,0.0036
1302.0,0.0036
1301.0,0.0035
1300.0,0.0035
1299.0,0.0035
1298.0,0.0034
1297.0,0.0034
1296.0,0.0034
1295.0,0.0034
1294.0,0.0033
1293.0,0.0032
1292.0,0.003
1291.0,0.0028
1290.0,0.0026
1289.0,0.0025
1288.0,0.0025
1287.0,0.0025
1286.0,0.0028
1285.0,0.0031
1284.0,0.0035
1283.0,0.0039
1282.0,0.0043
1281.0,0.0047
1280.0,0.0051
1279.0,0.0056
1278.0,0.006
1277.0,0.0065
1276.0,0.0069
1275.0,0.0072
1274.0,0.0075
1273.0,0.0078
1272.0,0.008
1271.0,0.0082
1270.0,0.0083
1269.0,0.0083
1268.0,0.0084
1267.0,0.0084
1266.0,0.0084
1265.0,0.0083
1264.0,0.0082
1263.0,0.0081
1262.0,0.008
1261.0,0.0078
1260.0,0.0076
1259.0,0.0074
1258.0,0.0072
1257.0,0.0071
1256.0,0.007
1255.0,0.0069
1254.0,0.0068
1253.0,0.0068
1252.0,0.0067
1251.0,0.0066
1250.0,0.0066
1249.0,0.0066
1248.0,0.0066
1247.0,0.0066
1246.0,0.0067
1245.0,0.0069
1244.0,0.0071
1243.0,0.0072
1242.0,0.0074
1241.0,0.0075
1240.0,0.0077
1239.0,0.0078
1238.0,0.008
1237.0,0.0084
1236.0,0.0087
1235.0,0.0092
1234.0,0.0096
1233.0,0.0101
1232.0,0.0107
1231.0,0.0114
1230.0,0.0121
1229.0,0.0131
1228.0,0.0141
1227.0,0.0152
1226.0,0.0164
1225.0,0.0177
1224.0,0.0191
1223.0,0.0205
1222.0,0.022
1221.0,0.0235
1220.0,0.025
1219.0,0.0265
1218.0,0.028
1217.0,0.0296
1216.0,0.031
1215.0,0.0323
1214.0,0.0332
1213.0,0.0338
1212.0,0.0341
1211.0,0.0341
1210.0,0.0338
1209.0,0.0335
1208.0,0.0331
1207.0,0.0327
1206.0,0.0324
1205.0,0.0322
1204.0,0.0321
1203.0,0.0322
1202.0,0.0324
1201.0,0.0328
1200.0,0.0333
1199.0,0.034
1198.0,0.0348
1197.0,0.0358
1196.0,0.0368
1195.0,0.0379
1194.0,0.0391
1193.0,0.0406
1192.0,0.0423
1191.0,0.0441
1190.0,0.0461
1189.0,0.0482
1188.0,0.0505
1187.0,0.0528
1186.0,0.0551
1185.0,0.0575
1184.0,0.0599
1183.0,0.0622
1182.0,0.0641
1181.0,0.0655
1180.0,0.0662
1179.0,0.066
1178.0,0.0648
1177.0,0.0627
1176.0,0.0599
1175.0,0.0565
1174.0,0.0527
1173.0,0.0488
1172.0,0.0449
1171.0,0.0411
1170.0,0.0374
1169.0,0.034
1168.0,0.0309
1167.0,0.0281
1166.0,0.0256
1165.0,0.0235
1164.0,0.0216
1163.0,0.0199
1162.0,0.0185
1161.0,0.0172
1160.0,0.016
1159.0,0.0149
1158.0,0.014
1157.0,0.0132
1156.0,0.0126
1155.0,0.0122
1154.0,0.0119
1153.0,0.0117
1152.0,0.0118
1151.0,0.0121
1150.0,0.0125
1149.0,0.0132
1148.0,0.0142
1147.0,0.0155
1146.0,0.0171
1145.0,0.019
1144.0,0.0211
1143.0,0.0234
1142.0,0.0259
1141.0,0.0285
1140.0,0.0313
1139.0,0.034
1138.0,0.0367
1137.0,0.0393
1136.0,0.0418
1135.0,0.044
1134.0,0.0459
1133.0,0.0475
1132.0,0.0488
1131.0,0.0498
1130.0,0.0504
1129.0,0.0507
1128.0,0.0507
1127.0,0.0501
1126.0,0.0492
1125.0,0.0478
1124.0,0.0462
1123.0,0.0445
1122.0,0.0427
1121.0,0.0411
1120.0,0.0396
1119.0,0.0384
1118.0,0.0373
1117.0,0.0365
1116.0,0.0359
1115.0,0.0357
1114.0,0.0359
1113.0,0.0366
1112.0,0.0376
1111.0,0.0391
1110.0,0.0407
1109.0,0.0424
1108.0,0.0443
1107.0,0.0461
1106.0,0.0481
1105.0,0.0501
1104.0,0.0521
1103.0,0.0541
1102.0,0.056
1101.0,0.0579
1100.0,0.0598
1099.0,0.0618
1098.0,0.0636
1097.0,0.0655
1096.0,0.0673
1095.0,0.069
1094.0,0.0708
1093.0,0.0726
1092.0,0.0744
1091.0,0.0762
1090.0,0.0779
1089.0,0.0796
1088.0,0.0813
1087.0,0.0829
1086.0,0.0844
1085.0,0.0858
1084.0,0.087
1083.0,0.0879
1082.0,0.0885
1081.0,0.0889
1080.0,0.089
1079.0,0.0888
1078.0,0.0883
1077.0,0.0876
1076.0,0.0867
1075.0,0.0856
1074.0,0.0843
1073.0,0.0828
1072.0,0.0811
1071.0,0.0791
1070.0,0.077
1069.0,0.0748
1068.0,0.0725
1067.0,0.0701
1066.0,0.0677
1065.0,0.0654
1064.0,0.0632
1063.0,0.0612
1062.0,0.0594
1061.0,0.0579
1060.0,0.0567
1059.0,0.0559
1058.0,0.0554
1057.0,0.0551
1056.0,0.055
1055.0,0.0551
1054.0,0.0554
1053.0,0.0557
1052.0,0.0562
1051.0,0.0567
1050.0,0.0574
1049.0,0.0582
1048.0,0.0592
1047.0,0.0603
1046.0,0.0613
1045.0,0.0622
1044.0,0.0628
1043.0,0.0631
1042.0,0.0632
1041.0,0.063
1040.0,0.0627
1039.0,0.0622
1038.0,0.0613
1037.0,0.0602
1036.0,0.059
1035.0,0.0577
1034.0,0.0563
1033.0,0.055
1032.0,0.0538
1031.0,0.0527
1030.0,0.0516
1029.0,0.0507
1028.0,0.05
1027.0,0.0492
1026.0,0.0484
1025.0,0.0477
1024.0,0.0469
1023.0,0.0461
1022.0,0.0452
1021.0,0.0443
1020.0,0.0435
1019.0,0.0426
1018.0,0.0418
1017.0,0.0409
1016.0,0.04
1015.0,0.0392
1014.0,0.0383
1013.0,0.0375
1012.0,0.0367
1011.0,0.036
1010.0,0.0352
1009.0,0.0345
1008.0,0.0339
1007.0,0.0333
1006.0,0.0327
1005.0,0.0322
1004.0,0.0317
1003.0,0.0312
1002.0,0.0307
1001.0,0.0302
1000.0,0.0298
999.0,0.0294
998.0,0.029
997.0,0.0287
996.0,0.0283
995.0,0.0279
994.0,0.0276
993.0,0.0272
992.0,0.027
991.0,0.0267
990.0,0.0264
989.0,0.026
988.0,0.0256
987.0,0.0253
986.0,0.025
985.0,0.0247
984.0,0.0246
983.0,0.0244
982.0,0.0241
981.0,0.0238
980.0,0.0235
979.0,0.0232
978.0,0.023
977.0,0.0227
976.0,0.0225
975.0,0.0222
974.0,0.022
973.0,0.0218
972.0,0.0216
971.0,0.0213
970.0,0.0211
969.0,0.0209
968.0,0.0208
967.0,0.0206
966.0,0.0204
965.0,0.0203
964.0,0.0202
963.0,0.0202
962.0,0.0203
961.0,0.0205
960.0,0.0207
959.0,0.0209
958.0,0.0212
957.0,0.0214
956.0,0.0215
955.0,0.0215
954.0,0.0213
953.0,0.0211
952.0,0.0209
951.0,0.0207
950.0,0.0204
949.0,0.0202
948.0,0.02
947.0,0.0197
946.0,0.0195
945.0,0.0193
944.0,0.0191
943.0,0.019
942.0,0.0188
941.0,0.0186
940.0,0.0184
939.0,0.0183
938.0,0.0181
937.0,0.018
936.0,0.0179
935.0,0.0178
934.0,0.0177
933.0,0.0176
932.0,0.0176
931.0,0.0176
930.0,0.0176
929.0,0.0176
928.0,0.0177
927.0,0.0179
926.0,0.018
925.0,0.0181
924.0,0.0182
923.0,0.0182
922.0,0.0183
921.0,0.0184
920.0,0.0185
919.0,0.0185
918.0,0.0185
917.0,0.0184
916.0,0.0182
915.0,0.0181
914.0,0.0179
913.0,0.0178
912.0,0.0177
911.0,0.0176
910.0,0.0174
909.0,0.0172
908.0,0.0171
907.0,0.017
906.0,0.017
905.0,0.0169
904.0,0.0168
903.0,0.0166
902.0,0.0165
901.0,0.0165
900.0,0.0165
899.0,0.0165
898.0,0.0164
897.0,0.0163
896.0,0.0162
895.0,0.0161
894.0,0.016
893.0,0.0159
892.0,0.0158
891.0,0.0156
890.0,0.0154
889.0,0.0152
888.0,0.0151
887.0,0.015
886.0,0.0149
885.0,0.0147
884.0,0.0147
883.0,0.0148
882.0,0.0151
881.0,0.0158
880.0,0.0166
879.0,0.0176
878.0,0.0186
877.0,0.0198
876.0,0.0211
875.0,0.0225
874.0,0.0238
873.0,0.0252
872.0,0.0263
871.0,0.0269
870.0,0.0272
869.0,0.0271
868.0,0.0269
867.0,0.0267
866.0,0.0263
865.0,0.026
864.0,0.0256
863.0,0.0252
862.0,0.0246
861.0,0.0239
860.0,0.0231
859.0,0.0224
858.0,0.0216
857.0,0.0209
856.0,0.0201
855.0,0.0194
854.0,0.0188
853.0,0.0182
852.0,0.0179
851.0,0.0177
850.0,0.0175
849.0,0.0174
848.0,0.0173
847.0,0.0171
846.0,0.0169
845.0,0.0166
844.0,0.0163
843.0,0.016
842.0,0.0156
841.0,0.0152
840.0,0.0148
839.0,0.0145
838.0,0.0143
837.0,0.0141
836.0,0.014
835.0,0.0139
834.0,0.0138
833.0,0.0137
832.0,0.0135
831.0,0.0133
830.0,0.0131
829.0,0.0129
828.0,0.0129
827.0,0.0128
826.0,0.0126
825.0,0.0125
824.0,0.0123
823.0,0.0123
822.0,0.0123
821.0,0.0123
820.0,0.0123
819.0,0.0121
818.0,0.012
817.0,0.0118
816.0,0.0116
815.0,0.0115
814.0,0.0114
813.0,0.0113
812.0,0.0113
811.0,0.0113
810.0,0.0114
809.0,0.0115
808.0,0.0116
807.0,0.0116
806.0,0.0115
805.0,0.0113
804.0,0.0112
803.0,0.0111
802.0,0.0109
801.0,0.0108
800.0,0.0108
799.0,0.0107
798.0,0.0107
797.0,0.0106
796.0,0.0106
795.0,0.0105
794.0,0.0105
793.0,0.0106
792.0,0.0106
791.0,0.0107
790.0,0.0108
789.0,0.0109
788.0,0.011
787.0,0.0111
786.0,0.0112
785.0,0.0112
784.0,0.0114
783.0,0.0116
782.0,0.0118
781.0,0.012
780.0,0.0122
779.0,0.0122
778.0,0.0123
777.0,0.0124
776.0,0.0126
775.0,0.0128
774.0,0.0132
773.0,0.0135
772.0,0.0138
771.0,0.0141
770.0,0.0146
769.0,0.0153
768.0,0.016
767.0,0.0167
766.0,0.0174
765.0,0.0182
764.0,0.0191
763.0,0.0202
762.0,0.0212
761.0,0.0225
760.0,0.0239
759.0,0.0255
758.0,0.027
757.0,0.0284
756.0,0.0293
755.0,0.0297
754.0,0.0297
753.0,0.0292
752.0,0.0285
751.0,0.0277
750.0,0.0268
749.0,0.0262
748.0,0.0257
747.0,0.0253
746.0,0.025
745.0,0.0246
744.0,0.0243
743.0,0.024
742.0,0.0238
741.0,0.0237
740.0,0.0238
739.0,0.0238
738.0,0.0237
737.0,0.0235
736.0,0.0232
735.0,0.0227
734.0,0.0218
733.0,0.0207
732.0,0.0196
731.0,0.0186
730.0,0.0177
729.0,0.0171
728.0,0.0167
727.0,0.0163
726.0,0.016
725.0,0.0157
724.0,0.0156
723.0,0.0157
722.0,0.0162
721.0,0.017
720.0,0.018
719.0,0.0189
718.0,0.0196
717.0,0.0203
716.0,0.021
715.0,0.0218
714.0,0.0225
713.0,0.0232
712.0,0.0239
711.0,0.0245
710.0,0.0249
709.0,0.025
708.0,0.025
707.0,0.025
706.0,0.0251
705.0,0.0253
704.0,0.0256
703.0,0.026
702.0,0.0264
701.0,0.0266
700.0,0.0264
699.0,0.026
698.0,0.0254
697.0,0.025
696.0,0.0251
695.0,0.0256
694.0,0.0263
693.0,0.0266
692.0,0.0263
691.0,0.0257
690.0,0.0252
689.0,0.0252
688.0,0.0252
687.0,0.0246
686.0,0.0238
685.0,0.0232
684.0,0.0231
683.0,0.0235
682.0,0.0244
681.0,0.0253
680.0,0.0255
679.0,0.0249
678.0,0.024
677.0,0.0235
676.0,0.0233
675.0,0.023
674.0,0.0223
673.0,0.0217
672.0,0.0217
671.0,0.0223
670.0,0.0234
669.0,0.0241
668.0,0.0243
667.0,0.0245
666.0,0.0236
665.0,0.0222
664.0,0.0214
663.0,0.0214
662.0,0.0217
661.0,0.022
660.0,0.0221
659.0,0.0218
658.0,0.021
657.0,0.0203
656.0,0.0199
655.0,0.02
654.0,0.0203
653.0,0.0207
652.0,0.021
651.0,0.0211
650.0,0.0208
649.0,0.0202
648.0,0.0194
647.0,0.0188
646.0,0.0185
645.0,0.0187
644.0,0.019
643.0,0.0193
642.0,0.0194
641.0,0.0197
640.0,0.02
639.0,0.0202
638.0,0.0202
637.0,0.0201
636.0,0.02
635.0,0.0197
634.0,0.0192
633.0,0.0189
632.0,0.019
631.0,0.0191
630.0,0.0192
629.0,0.0193
628.0,0.0194
627.0,0.0196
626.0,0.0196
625.0,0.0195
624.0,0.0194
623.0,0.0193
622.0,0.0194
621.0,0.0197
620.0,0.0199
619.0,0.02
618.0,0.0199
617.0,0.0196
616.0,0.0192
615.0,0.0188
614.0,0.0186
613.0,0.0187
612.0,0.0188
611.0,0.0185
610.0,0.0178
609.0,0.0171
608.0,0.0171
607.0,0.0177
606.0,0.0187
605.0,0.0198
604.0,0.0205
603.0,0.0207
602.0,0.0205
601.0,0.0203
600.0,0.0198
