cm-1,A
4000.0,-0.0023
3999.0,-0.0023
3998.0,-0.0023
3997.0,-0.0022
3996.0,-0.0022
3995.0,-0.0022
3994.0,-0.0022
3993.0,-0.0022
3992.0,-0.0022
3991.0,-0.0022
3990.0,-0.0022
3989.0,-0.0023
3988.0,-0.0023
3987.0,-0.0023
3986.0,-0.0024
3985.0,-0.0024
3984.0,-0.0024
3983.0,-0.0024
3982.0,-0.0023
3981.0,-0.0023
3980.0,-0.0023
3979.0,-0.0023
3978.0,-0.0024
3977.0,-0.0025
3976.0,-0.0025
3975.0,-0.0025
3974.0,-0.0024
3973.0,-0.0023
3972.0,-0.0023
3971.0,-0.0023
3970.0,-0.0023
3969.0,-0.0023
3968.0,-0.0022
3967.0,-0.0022
3966.0,-0.0022
3965.0,-0.0022
3964.0,-0.0023
3963.0,-0.0023
3962.0,-0.0024
3961.0,-0.0024
3960.0,-0.0024
3959.0,-0.0025
3958.0,-0.0025
3957.0,-0.0025
3956.0,-0.0025
3955.0,-0.0025
3954.0,-0.0024
3953.0,-0.0023
3952.0,-0.0023
3951.0,-0.0023
3950.0,-0.0023
3949.0,-0.0024
3948.0,-0.0023
3947.0,-0.0023
3946.0,-0.0022
3945.0,-0.0022
3944.0,-0.0022
3943.0,-0.0022
3942.0,-0.0022
3941.0,-0.0023
3940.0,-0.0023
3939.0,-0.0023
3938.0,-0.0024
3937.0,-0.0025
3936.0,-0.0025
3935.0,-0.0026
3934.0,-0.0025
3933.0,-0.0025
3932.0,-0.0026
3931.0,-0.0026
3930.0,-0.0026
3929.0,-0.0026
3928.0,-0.0025
3927.0,-0.0025
3926.0,-0.0025
3925.0,-0.0025
3924.0,-0.0025
3923.0,-0.0025
3922.0,-0.0025
3921.0,-0.0026
3920.0,-0.0027
3919.0,-0.0028
3918.0,-0.0028
3917.0,-0.0028
3916.0,-0.0027
3915.0,-0.0026
3914.0,-0.0025
3913.0,-0.0025
3912.0,-0.0024
3911.0,-0.0024
3910.0,-0.0024
3909.0,-0.0025
3908.0,-0.0026
3907.0,-0.0028
3906.0,-0.003
3905.0,-0.0031
3904.0,-0.0032
3903.0,-0.0031
3902.0,-0.003
3901.0,-0.0028
3900.0,-0.0027
3899.0,-0.0025
3898.0,-0.0025
3897.0,-0.0025
3896.0,-0.0025
3895.0,-0.0025
3894.0,-0.0025
3893.0,-0.0025
3892.0,-0.0025
3891.0,-0.0026
3890.0,-0.0027
3889.0,-0.0028
3888.0,-0.0028
3887.0,-0.0028
3886.0,-0.0027
3885.0,-0.0025
3884.0,-0.0023
3883.0,-0.0023
3882.0,-0.0024
3881.0,-0.0025
3880.0,-0.0025
3879.0,-0.0025
3878.0,-0.0024
3877.0,-0.0023
3876.0,-0.0023
3875.0,-0.0024
3874.0,-0.0025
3873.0,-0.0026
3872.0,-0.0026
3871.0,-0.0026
3870.0,-0.0027
3869.0,-0.0028
3868.0,-0.0029
3867.0,-0.0029
3866.0,-0.0028
3865.0,-0.0027
3864.0,-0.0027
3863.0,-0.0027
3862.0,-0.0027
3861.0,-0.0028
3860.0,-0.0029
3859.0,-0.003
3858.0,-0.0031
3857.0,-0.0032
3856.0,-0.0034
3855.0,-0.0034
3854.0,-0.0032
3853.0,-0.003
3852.0,-0.0028
3851.0,-0.0026
3850.0,-0.0025
3849.0,-0.0025
3848.0,-0.0025
3847.0,-0.0025
3846.0,-0.0025
3845.0,-0.0026
3844.0,-0.0026
3843.0,-0.0026
3842.0,-0.0026
3841.0,-0.0025
3840.0,-0.0025
3839.0,-0.0025
3838.0,-0.0025
3837.0,-0.0025
3836.0,-0.0026
3835.0,-0.0026
3834.0,-0.0027
3833.0,-0.0027
3832.0,-0.0027
3831.0,-0.0026
3830.0,-0.0026
3829.0,-0.0025
3828.0,-0.0024
3827.0,-0.0023
3826.0,-0.0023
3825.0,-0.0023
3824.0,-0.0024
3823.0,-0.0025
3822.0,-0.0026
3821.0,-0.0027
3820.0,-0.0027
3819.0,-0.0026
3818.0,-0.0026
3817.0,-0.0025
3816.0,-0.0024
3815.0,-0.0024
3814.0,-0.0023
3813.0,-0.0023
3812.0,-0.0023
3811.0,-0.0024
3810.0,-0.0025
3809.0,-0.0025
3808.0,-0.0025
3807.0,-0.0024
3806.0,-0.0023
3805.0,-0.0022
3804.0,-0.002
3803.0,-0.0019
3802.0,-0.0019
3801.0,-0.0021
3800.0,-0.0023
3799.0,-0.0023
3798.0,-0.0023
3797.0,-0.0022
3796.0,-0.0022
3795.0,-0.0022
3794.0,-0.0023
3793.0,-0.0023
3792.0,-0.0023
3791.0,-0.0023
3790.0,-0.0023
3789.0,-0.0024
3788.0,-0.0024
3787.0,-0.0024
3786.0,-0.0024
3785.0,-0.0025
3784.0,-0.0024
3783.0,-0.0024
3782.0,-0.0024
3781.0,-0.0024
3780.0,-0.0025
3779.0,-0.0026
3778.0,-0.0027
3777.0,-0.0027
3776.0,-0.0026
3775.0,-0.0025
3774.0,-0.0025
3773.0,-0.0025
3772.0,-0.0026
3771.0,-0.0026
3770.0,-0.0025
3769.0,-0.0025
3768.0,-0.0024
3767.0,-0.0024
3766.0,-0.0023
3765.0,-0.0022
3764.0,-0.0021
3763.0,-0.0021
3762.0,-0.002
3761.0,-0.0021
3760.0,-0.0022
3759.0,-0.0022
3758.0,-0.0022
3757.0,-0.0023
3756.0,-0.0024
3755.0,-0.0025
3754.0,-0.0028
3753.0,-0.003
3752.0,-0.003
3751.0,-0.0029
3750.0,-0.0027
3749.0,-0.0027
3748.0,-0.0026
3747.0,-0.0026
3746.0,-0.0025
3745.0,-0.0025
3744.0,-0.0027
3743.0,-0.0028
3742.0,-0.0028
3741.0,-0.0027
3740.0,-0.0026
3739.0,-0.0026
3738.0,-0.0025
3737.0,-0.0025
3736.0,-0.0024
3735.0,-0.0024
3734.0,-0.0024
3733.0,-0.0024
3732.0,-0.0026
3731.0,-0.0027
3730.0,-0.0029
3729.0,-0.003
3728.0,-0.0031
3727.0,-0.0031
3726.0,-0.003
3725.0,-0.0029
3724.0,-0.0028
3723.0,-0.0027
3722.0,-0.0026
3721.0,-0.0026
3720.0,-0.0026
3719.0,-0.0025
3718.0,-0.0024
3717.0,-0.0023
3716.0,-0.0023
3715.0,-0.0023
3714.0,-0.0023
3713.0,-0.0025
3712.0,-0.0028
3711.0,-0.003
3710.0,-0.003
3709.0,-0.0029
3708.0,-0.0028
3707.0,-0.0027
3706.0,-0.0026
3705.0,-0.0025
3704.0,-0.0025
3703.0,-0.0024
3702.0,-0.0023
3701.0,-0.0022
3700.0,-0.0021
3699.0,-0.0021
3698.0,-0.0021
3697.0,-0.0021
3696.0,-0.0022
3695.0,-0.0022
3694.0,-0.0022
3693.0,-0.0021
3692.0,-0.002
3691.0,-0.0019
3690.0,-0.0019
3689.0,-0.002
3688.0,-0.0021
3687.0,-0.0021
3686.0,-0.0021
3685.0,-0.002
3684.0,-0.002
3683.0,-0.002
3682.0,-0.002
3681.0,-0.002
3680.0,-0.002
3679.0,-0.0019
3678.0,-0.0018
3677.0,-0.0017
3676.0,-0.0017
3675.0,-0.0018
3674.0,-0.0019
3673.0,-0.0019
3672.0,-0.002
3671.0,-0.002
3670.0,-0.002
3669.0,-0.0019
3668.0,-0.0019
3667.0,-0.0019
3666.0,-0.0019
3665.0,-0.0019
3664.0,-0.0019
3663.0,-0.0019
3662.0,-0.0019
3661.0,-0.0019
3660.0,-0.0019
3659.0,-0.0019
3658.0,-0.002
3657.0,-0.002
3656.0,-0.0021
3655.0,-0.0022
3654.0,-0.0021
3653.0,-0.002
3652.0,-0.002
3651.0,-0.002
3650.0,-0.002
3649.0,-0.002
3648.0,-0.002
3647.0,-0.0021
3646.0,-0.0022
3645.0,-0.0022
3644.0,-0.0022
3643.0,-0.0023
3642.0,-0.0023
3641.0,-0.0022
3640.0,-0.0022
3639.0,-0.0021
3638.0,-0.002
3637.0,-0.0019
3636.0,-0.0018
3635.0,-0.0019
3634.0,-0.002
3633.0,-0.0022
3632.0,-0.0023
3631.0,-0.0023
3630.0,-0.0021
3629.0,-0.0021
3628.0,-0.0022
3627.0,-0.0022
3626.0,-0.0022
3625.0,-0.0021
3624.0,-0.0019
3623.0,-0.0018
3622.0,-0.0017
3621.0,-0.0017
3620.0,-0.0017
3619.0,-0.0018
3618.0,-0.0019
3617.0,-0.002
3616.0,-0.002
3615.0,-0.002
3614.0,-0.0019
3613.0,-0.0019
3612.0,-0.0019
3611.0,-0.0019
3610.0,-0.0019
3609.0,-0.002
3608.0,-0.002
3607.0,-0.002
3606.0,-0.0019
3605.0,-0.0019
3604.0,-0.0018
3603.0,-0.0017
3602.0,-0.0016
3601.0,-0.0016
3600.0,-0.0017
3599.0,-0.0017
3598.0,-0.0017
3597.0,-0.0017
3596.0,-0.0017
3595.0,-0.0017
3594.0,-0.0017
3593.0,-0.0016
3592.0,-0.0015
3591.0,-0.0015
3590.0,-0.0014
3589.0,-0.0014
3588.0,-0.0013
3587.0,-0.0013
3586.0,-0.0013
3585.0,-0.0013
3584.0,-0.0013
3583.0,-0.0013
3582.0,-0.0013
3581.0,-0.0013
3580.0,-0.0014
3579.0,-0.0014
3578.0,-0.0014
3577.0,-0.0015
3576.0,-0.0015
3575.0,-0.0014
3574.0,-0.0014
3573.0,-0.0013
3572.0,-0.0013
3571.0,-0.0012
3570.0,-0.0013
3569.0,-0.0013
3568.0,-0.0013
3567.0,-0.0013
3566.0,-0.0012
3565.0,-0.0011
3564.0,-0.0011
3563.0,-0.0011
3562.0,-0.0011
3561.0,-0.0011
3560.0,-0.0011
3559.0,-0.0011
3558.0,-0.0011
3557.0,-0.0011
3556.0,-0.001
3555.0,-0.0009
3554.0,-0.0007
3553.0,-0.0006
3552.0,-0.0006
3551.0,-0.0007
3550.0,-0.0007
3549.0,-0.0007
3548.0,-0.0006
3547.0,-0.0005
3546.0,-0.0004
3545.0,-0.0004
3544.0,-0.0004
3543.0,-0.0006
3542.0,-0.0007
3541.0,-0.0009
3540.0,-0.001
3539.0,-0.001
3538.0,-0.0009
3537.0,-0.0007
3536.0,-0.0007
3535.0,-0.0007
3534.0,-0.0008
3533.0,-0.0008
3532.0,-0.0009
3531.0,-0.0009
3530.0,-0.0009
3529.0,-0.0009
3528.0,-0.0007
3527.0,-0.0006
3526.0,-0.0005
3525.0,-0.0005
3524.0,-0.0005
3523.0,-0.0006
3522.0,-0.0007
3521.0,-0.0008
3520.0,-0.0008
3519.0,-0.0008
3518.0,-0.0008
3517.0,-0.0008
3516.0,-0.0007
3515.0,-0.0005
3514.0,-0.0004
3513.0,-0.0003
3512.0,-0.0002
3511.0,-0.0002
3510.0,-0.0003
3509.0,-0.0004
3508.0,-0.0005
3507.0,-0.0005
3506.0,-0.0004
3505.0,-0.0004
3504.0,-0.0004
3503.0,-0.0005
3502.0,-0.0005
3501.0,-0.0004
3500.0,-0.0003
3499.0,-0.0002
3498.0,-0.0002
3497.0,-0.0001
3496.0,-0.0002
3495.0,-0.0003
3494.0,-0.0004
3493.0,-0.0005
3492.0,-0.0006
3491.0,-0.0005
3490.0,-0.0004
3489.0,-0.0003
3488.0,-0.0002
3487.0,-0.0002
3486.0,-0.0002
3485.0,-0.0002
3484.0,-0.0003
3483.0,-0.0004
3482.0,-0.0004
3481.0,-0.0004
3480.0,-0.0003
3479.0,-0.0003
3478.0,-0.0002
3477.0,-0.0003
3476.0,-0.0003
3475.0,-0.0003
3474.0,-0.0002
3473.0,-0.0001
3472.0,-0.0
3471.0,-0.0
3470.0,-0.0001
3469.0,-0.0001
3468.0,-0.0002
3467.0,-0.0002
3466.0,-0.0003
3465.0,-0.0003
3464.0,-0.0002
3463.0,-0.0001
3462.0,-0.0
3461.0,0.0
3460.0,0.0
3459.0,-0.0001
3458.0,-0.0001
3457.0,-0.0002
3456.0,-0.0001
3455.0,0.0
3454.0,0.0002
3453.0,0.0002
3452.0,0.0002
3451.0,0.0001
3450.0,-0.0
3449.0,-0.0001
3448.0,-0.0002
3447.0,-0.0003
3446.0,-0.0004
3445.0,-0.0003
3444.0,-0.0002
3443.0,-0.0001
3442.0,0.0
3441.0,0.0001
3440.0,0.0002
3439.0,0.0002
3438.0,0.0003
3437.0,0.0003
3436.0,0.0002
3435.0,0.0002
3434.0,0.0003
3433.0,0.0003
3432.0,0.0003
3431.0,0.0003
3430.0,0.0002
3429.0,0.0001
3428.0,0.0001
3427.0,0.0
3426.0,-0.0
3425.0,0.0
3424.0,0.0001
3423.0,0.0002
3422.0,0.0002
3421.0,0.0002
3420.0,0.0002
3419.0,0.0002
3418.0,0.0002
3417.0,0.0003
3416.0,0.0003
3415.0,0.0003
3414.0,0.0002
3413.0,0.0002
3412.0,0.0002
3411.0,0.0002
3410.0,0.0002
3409.0,0.0003
3408.0,0.0002
3407.0,0.0002
3406.0,0.0002
3405.0,0.0003
3404.0,0.0004
3403.0,0.0005
3402.0,0.0005
3401.0,0.0004
3400.0,0.0003
3399.0,0.0002
3398.0,0.0001
3397.0,0.0001
3396.0,-0.0
3395.0,-0.0
3394.0,-0.0
3393.0,0.0001
3392.0,0.0002
3391.0,0.0003
3390.0,0.0004
3389.0,0.0004
3388.0,0.0004
3387.0,0.0003
3386.0,0.0003
3385.0,0.0002
3384.0,0.0003
3383.0,0.0003
3382.0,0.0003
3381.0,0.0004
3380.0,0.0004
3379.0,0.0004
3378.0,0.0003
3377.0,0.0002
3376.0,0.0002
3375.0,0.0001
3374.0,0.0
3373.0,0.0001
3372.0,0.0001
3371.0,0.0003
3370.0,0.0004
3369.0,0.0004
3368.0,0.0005
3367.0,0.0005
3366.0,0.0005
3365.0,0.0005
3364.0,0.0004
3363.0,0.0004
3362.0,0.0004
3361.0,0.0005
3360.0,0.0004
3359.0,0.0004
3358.0,0.0004
3357.0,0.0004
3356.0,0.0004
3355.0,0.0004
3354.0,0.0004
3353.0,0.0004
3352.0,0.0003
3351.0,0.0003
3350.0,0.0003
3349.0,0.0004
3348.0,0.0004
3347.0,0.0003
3346.0,0.0003
3345.0,0.0002
3344.0,0.0003
3343.0,0.0003
3342.0,0.0004
3341.0,0.0003
3340.0,0.0001
3339.0,0.0
3338.0,0.0
3337.0,0.0001
3336.0,0.0001
3335.0,0.0001
3334.0,0.0001
3333.0,0.0001
3332.0,0.0001
3331.0,0.0002
3330.0,0.0002
3329.0,0.0002
3328.0,0.0002
3327.0,0.0002
3326.0,0.0002
3325.0,0.0002
3324.0,0.0003
3323.0,0.0004
3322.0,0.0004
3321.0,0.0003
3320.0,0.0002
3319.0,0.0001
3318.0,0.0001
3317.0,0.0
3316.0,0.0001
3315.0,0.0001
3314.0,0.0002
3313.0,0.0003
3312.0,0.0003
3311.0,0.0003
3310.0,0.0002
3309.0,0.0002
3308.0,0.0002
3307.0,0.0002
3306.0,0.0002
3305.0,0.0001
3304.0,0.0
3303.0,-0.0
3302.0,-0.0
3301.0,-0.0
3300.0,0.0
3299.0,-0.0
3298.0,-0.0001
3297.0,-0.0001
3296.0,-0.0001
3295.0,0.0
3294.0,0.0001
3293.0,0.0001
3292.0,0.0001
3291.0,0.0
3290.0,-0.0001
3289.0,-0.0002
3288.0,-0.0002
3287.0,-0.0002
3286.0,-0.0001
3285.0,-0.0001
3284.0,-0.0
3283.0,-0.0
3282.0,-0.0001
3281.0,-0.0001
3280.0,-0.0002
3279.0,-0.0002
3278.0,-0.0002
3277.0,-0.0002
3276.0,-0.0002
3275.0,-0.0003
3274.0,-0.0003
3273.0,-0.0004
3272.0,-0.0004
3271.0,-0.0004
3270.0,-0.0003
3269.0,-0.0003
3268.0,-0.0002
3267.0,-0.0003
3266.0,-0.0003
3265.0,-0.0003
3264.0,-0.0002
3263.0,-0.0002
3262.0,-0.0002
3261.0,-0.0002
3260.0,-0.0003
3259.0,-0.0004
3258.0,-0.0004
3257.0,-0.0003
3256.0,-0.0001
3255.0,-0.0
3254.0,0.0001
3253.0,0.0001
3252.0,0.0001
3251.0,-0.0
3250.0,-0.0001
3249.0,-0.0002
3248.0,-0.0002
3247.0,-0.0002
3246.0,-0.0002
3245.0,-0.0002
3244.0,-0.0001
3243.0,-0.0001
3242.0,-0.0
3241.0,-0.0
3240.0,-0.0
3239.0,-0.0001
3238.0,-0.0001
3237.0,-0.0001
3236.0,-0.0001
3235.0,-0.0
3234.0,0.0
3233.0,-0.0
3232.0,-0.0001
3231.0,-0.0002
3230.0,-0.0002
3229.0,-0.0003
3228.0,-0.0003
3227.0,-0.0003
3226.0,-0.0003
3225.0,-0.0002
3224.0,-0.0002
3223.0,-0.0002
3222.0,-0.0003
3221.0,-0.0003
3220.0,-0.0002
3219.0,-0.0002
3218.0,-0.0002
3217.0,-0.0003
3216.0,-0.0005
3215.0,-0.0006
3214.0,-0.0006
3213.0,-0.0005
3212.0,-0.0004
3211.0,-0.0004
3210.0,-0.0005
3209.0,-0.0005
3208.0,-0.0004
3207.0,-0.0004
3206.0,-0.0003
3205.0,-0.0003
3204.0,-0.0004
3203.0,-0.0005
3202.0,-0.0006
3201.0,-0.0007
3200.0,-0.0007
3199.0,-0.0007
3198.0,-0.0007
3197.0,-0.0007
3196.0,-0.0007
3195.0,-0.0007
3194.0,-0.0007
3193.0,-0.0008
3192.0,-0.0008
3191.0,-0.0009
3190.0,-0.001
3189.0,-0.001
3188.0,-0.0009
3187.0,-0.0008
3186.0,-0.0007
3185.0,-0.0006
3184.0,-0.0006
3183.0,-0.0006
3182.0,-0.0007
3181.0,-0.0007
3180.0,-0.0007
3179.0,-0.0008
3178.0,-0.001
3177.0,-0.0011
3176.0,-0.0011
3175.0,-0.0011
3174.0,-0.001
3173.0,-0.001
3172.0,-0.0011
3171.0,-0.0011
3170.0,-0.0011
3169.0,-0.001
3168.0,-0.0009
3167.0,-0.0008
3166.0,-0.0009
3165.0,-0.001
3164.0,-0.0011
3163.0,-0.0012
3162.0,-0.0013
3161.0,-0.0013
3160.0,-0.0013
3159.0,-0.0013
3158.0,-0.0013
3157.0,-0.0013
3156.0,-0.0012
3155.0,-0.0012
3154.0,-0.0011
3153.0,-0.001
3152.0,-0.001
3151.0,-0.0011
3150.0,-0.0012
3149.0,-0.0013
3148.0,-0.0013
3147.0,-0.0013
3146.0,-0.0013
3145.0,-0.0012
3144.0,-0.0013
3143.0,-0.0013
3142.0,-0.0013
3141.0,-0.0013
3140.0,-0.0012
3139.0,-0.0011
3138.0,-0.0011
3137.0,-0.0011
3136.0,-0.0011
3135.0,-0.0012
3134.0,-0.0012
3133.0,-0.0012
3132.0,-0.0012
3131.0,-0.0012
3130.0,-0.0012
3129.0,-0.0012
3128.0,-0.0011
3127.0,-0.0011
3126.0,-0.0011
3125.0,-0.0011
3124.0,-0.0012
3123.0,-0.0013
3122.0,-0.0014
3121.0,-0.0015
3120.0,-0.0016
3119.0,-0.0016
3118.0,-0.0015
3117.0,-0.0015
3116.0,-0.0014
3115.0,-0.0014
3114.0,-0.0014
3113.0,-0.0014
3112.0,-0.0014
3111.0,-0.0014
3110.0,-0.0013
3109.0,-0.0012
3108.0,-0.0012
3107.0,-0.0013
3106.0,-0.0014
3105.0,-0.0015
3104.0,-0.0016
3103.0,-0.0016
3102.0,-0.0015
3101.0,-0.0015
3100.0,-0.0014
3099.0,-0.0014
3098.0,-0.0014
3097.0,-0.0014
3096.0,-0.0014
3095.0,-0.0015
3094.0,-0.0016
3093.0,-0.0016
3092.0,-0.0016
3091.0,-0.0016
3090.0,-0.0016
3089.0,-0.0016
3088.0,-0.0016
3087.0,-0.0017
3086.0,-0.0018
3085.0,-0.0018
3084.0,-0.0018
3083.0,-0.0018
3082.0,-0.0018
3081.0,-0.0019
3080.0,-0.002
3079.0,-0.0021
3078.0,-0.0021
3077.0,-0.0021
3076.0,-0.0021
3075.0,-0.002
3074.0,-0.0019
3073.0,-0.0019
3072.0,-0.0018
3071.0,-0.0018
3070.0,-0.0018
3069.0,-0.0019
3068.0,-0.002
3067.0,-0.002
3066.0,-0.002
3065.0,-0.0021
3064.0,-0.0021
3063.0,-0.0021
3062.0,-0.0021
3061.0,-0.0021
3060.0,-0.0021
3059.0,-0.0021
3058.0,-0.002
3057.0,-0.002
3056.0,-0.002
3055.0,-0.002
3054.0,-0.002
3053.0,-0.0019
3052.0,-0.0019
3051.0,-0.0018
3050.0,-0.0019
3049.0,-0.0019
3048.0,-0.002
3047.0,-0.002
3046.0,-0.0021
3045.0,-0.002
3044.0,-0.002
3043.0,-0.0019
3042.0,-0.0019
3041.0,-0.0019
3040.0,-0.0019
3039.0,-0.0019
3038.0,-0.0019
3037.0,-0.0019
3036.0,-0.0019
3035.0,-0.0019
3034.0,-0.0019
3033.0,-0.0019
3032.0,-0.0018
3031.0,-0.0017
3030.0,-0.0017
3029.0,-0.0017
3028.0,-0.0017
3027.0,-0.0017
3026.0,-0.0017
3025.0,-0.0018
3024.0,-0.0018
3023.0,-0.0017
3022.0,-0.0017
3021.0,-0.0016
3020.0,-0.0016
3019.0,-0.0015
3018.0,-0.0015
3017.0,-0.0015
3016.0,-0.0015
3015.0,-0.0015
3014.0,-0.0015
3013.0,-0.0015
3012.0,-0.0014
3011.0,-0.0013
3010.0,-0.0012
3009.0,-0.0011
3008.0,-0.001
3007.0,-0.0009
3006.0,-0.0008
3005.0,-0.0007
3004.0,-0.0007
3003.0,-0.0006
3002.0,-0.0006
3001.0,-0.0007
3000.0,-0.0007
2999.0,-0.0008
2998.0,-0.0008
2997.0,-0.0008
2996.0,-0.0008
2995.0,-0.0007
2994.0,-0.0007
2993.0,-0.0006
2992.0,-0.0006
2991.0,-0.0004
2990.0,-0.0004
2989.0,-0.0004
2988.0,-0.0004
2987.0,-0.0004
2986.0,-0.0003
2985.0,-0.0003
2984.0,-0.0004
2983.0,-0.0004
2982.0,-0.0005
2981.0,-0.0005
2980.0,-0.0006
2979.0,-0.0006
2978.0,-0.0006
2977.0,-0.0005
2976.0,-0.0005
2975.0,-0.0004
2974.0,-0.0003
2973.0,-0.0002
2972.0,-0.0002
2971.0,-0.0002
2970.0,-0.0002
2969.0,-0.0003
2968.0,-0.0003
2967.0,-0.0003
2966.0,-0.0003
2965.0,-0.0002
2964.0,-0.0001
2963.0,0.0
2962.0,0.0
2961.0,0.0
2960.0,-0.0
2959.0,-0.0
2958.0,0.0
2957.0,0.0
2956.0,0.0
2955.0,-0.0
2954.0,-0.0001
2953.0,-0.0001
2952.0,-0.0002
2951.0,-0.0002
2950.0,-0.0002
2949.0,-0.0003
2948.0,-0.0003
2947.0,-0.0004
2946.0,-0.0004
2945.0,-0.0005
2944.0,-0.0005
2943.0,-0.0006
2942.0,-0.0006
2941.0,-0.0007
2940.0,-0.0007
2939.0,-0.0007
2938.0,-0.0007
2937.0,-0.0007
2936.0,-0.0007
2935.0,-0.0006
2934.0,-0.0006
2933.0,-0.0006
2932.0,-0.0006
2931.0,-0.0005
2930.0,-0.0005
2929.0,-0.0004
2928.0,-0.0004
2927.0,-0.0004
2926.0,-0.0004
2925.0,-0.0004
2924.0,-0.0004
2923.0,-0.0004
2922.0,-0.0003
2921.0,-0.0003
2920.0,-0.0002
2919.0,-0.0001
2918.0,-0.0001
2917.0,-0.0001
2916.0,-0.0002
2915.0,-0.0002
2914.0,-0.0002
2913.0,-0.0002
2912.0,-0.0002
2911.0,-0.0001
2910.0,-0.0002
2909.0,-0.0002
2908.0,-0.0002
2907.0,-0.0002
2906.0,-0.0002
2905.0,-0.0003
2904.0,-0.0003
2903.0,-0.0002
2902.0,-0.0002
2901.0,-0.0003
2900.0,-0.0003
2899.0,-0.0003
2898.0,-0.0004
2897.0,-0.0004
2896.0,-0.0004
2895.0,-0.0005
2894.0,-0.0005
2893.0,-0.0005
2892.0,-0.0005
2891.0,-0.0004
2890.0,-0.0004
2889.0,-0.0004
2888.0,-0.0005
2887.0,-0.0005
2886.0,-0.0006
2885.0,-0.0006
2884.0,-0.0006
2883.0,-0.0005
2882.0,-0.0005
2881.0,-0.0004
2880.0,-0.0004
2879.0,-0.0005
2878.0,-0.0006
2877.0,-0.0007
2876.0,-0.0008
2875.0,-0.0008
2874.0,-0.0008
2873.0,-0.0008
2872.0,-0.0007
2871.0,-0.0007
2870.0,-0.0007
2869.0,-0.0007
2868.0,-0.0008
2867.0,-0.0008
2866.0,-0.0008
2865.0,-0.0009
2864.0,-0.0011
2863.0,-0.0012
2862.0,-0.0012
2861.0,-0.0013
2860.0,-0.0013
2859.0,-0.0014
2858.0,-0.0014
2857.0,-0.0014
2856.0,-0.0014
2855.0,-0.0015
2854.0,-0.0015
2853.0,-0.0016
2852.0,-0.0017
2851.0,-0.0017
2850.0,-0.0017
2849.0,-0.0017
2848.0,-0.0017
2847.0,-0.0017
2846.0,-0.0017
2845.0,-0.0017
2844.0,-0.0017
2843.0,-0.0017
2842.0,-0.0017
2841.0,-0.0017
2840.0,-0.0016
2839.0,-0.0016
2838.0,-0.0015
2837.0,-0.0015
2836.0,-0.0014
2835.0,-0.0015
2834.0,-0.0015
2833.0,-0.0015
2832.0,-0.0016
2831.0,-0.0016
2830.0,-0.0017
2829.0,-0.0018
2828.0,-0.0018
2827.0,-0.0019
2826.0,-0.0019
2825.0,-0.0019
2824.0,-0.002
2823.0,-0.002
2822.0,-0.002
2821.0,-0.0021
2820.0,-0.0021
2819.0,-0.0021
2818.0,-0.0022
2817.0,-0.0022
2816.0,-0.0022
2815.0,-0.0021
2814.0,-0.002
2813.0,-0.002
2812.0,-0.0019
2811.0,-0.0019
2810.0,-0.0019
2809.0,-0.002
2808.0,-0.002
2807.0,-0.002
2806.0,-0.002
2805.0,-0.0021
2804.0,-0.0021
2803.0,-0.0022
2802.0,-0.0022
2801.0,-0.0022
2800.0,-0.0022
2799.0,-0.0022
2798.0,-0.0022
2797.0,-0.0022
2796.0,-0.0022
2795.0,-0.0022
2794.0,-0.0022
2793.0,-0.0023
2792.0,-0.0023
2791.0,-0.0023
2790.0,-0.0022
2789.0,-0.0022
2788.0,-0.0021
2787.0,-0.0021
2786.0,-0.0021
2785.0,-0.0021
2784.0,-0.0021
2783.0,-0.0021
2782.0,-0.0021
2781.0,-0.0022
2780.0,-0.0022
2779.0,-0.0022
2778.0,-0.0022
2777.0,-0.0022
2776.0,-0.0022
2775.0,-0.0022
2774.0,-0.0022
2773.0,-0.0022
2772.0,-0.0021
2771.0,-0.0021
2770.0,-0.0021
2769.0,-0.0022
2768.0,-0.0023
2767.0,-0.0023
2766.0,-0.0024
2765.0,-0.0023
2764.0,-0.0023
2763.0,-0.0022
2762.0,-0.0022
2761.0,-0.0022
2760.0,-0.0022
2759.0,-0.0022
2758.0,-0.0023
2757.0,-0.0023
2756.0,-0.0023
2755.0,-0.0022
2754.0,-0.0022
2753.0,-0.0022
2752.0,-0.0023
2751.0,-0.0023
2750.0,-0.0024
2749.0,-0.0023
2748.0,-0.0023
2747.0,-0.0022
2746.0,-0.0022
2745.0,-0.0023
2744.0,-0.0023
2743.0,-0.0023
2742.0,-0.0023
2741.0,-0.0023
2740.0,-0.0023
2739.0,-0.0023
2738.0,-0.0023
2737.0,-0.0024
2736.0,-0.0024
2735.0,-0.0024
2734.0,-0.0024
2733.0,-0.0024
2732.0,-0.0024
2731.0,-0.0024
2730.0,-0.0023
2729.0,-0.0023
2728.0,-0.0022
2727.0,-0.0021
2726.0,-0.0021
2725.0,-0.0021
2724.0,-0.0022
2723.0,-0.0022
2722.0,-0.0022
2721.0,-0.0023
2720.0,-0.0023
2719.0,-0.0023
2718.0,-0.0024
2717.0,-0.0024
2716.0,-0.0024
2715.0,-0.0024
2714.0,-0.0024
2713.0,-0.0024
2712.0,-0.0023
2711.0,-0.0023
2710.0,-0.0022
2709.0,-0.0022
2708.0,-0.0022
2707.0,-0.0023
2706.0,-0.0023
2705.0,-0.0023
2704.0,-0.0023
2703.0,-0.0023
2702.0,-0.0023
2701.0,-0.0023
2700.0,-0.0023
2699.0,-0.0023
2698.0,-0.0023
2697.0,-0.0023
2696.0,-0.0023
2695.0,-0.0024
2694.0,-0.0025
2693.0,-0.0025
2692.0,-0.0025
2691.0,-0.0024
2690.0,-0.0024
2689.0,-0.0023
2688.0,-0.0022
2687.0,-0.0022
2686.0,-0.0022
2685.0,-0.0023
2684.0,-0.0023
2683.0,-0.0023
2682.0,-0.0023
2681.0,-0.0022
2680.0,-0.0022
2679.0,-0.0023
2678.0,-0.0024
2677.0,-0.0025
2676.0,-0.0025
2675.0,-0.0025
2674.0,-0.0025
2673.0,-0.0025
2672.0,-0.0025
2671.0,-0.0024
2670.0,-0.0024
2669.0,-0.0023
2668.0,-0.0023
2667.0,-0.0023
2666.0,-0.0023
2665.0,-0.0023
2664.0,-0.0024
2663.0,-0.0023
2662.0,-0.0023
2661.0,-0.0023
2660.0,-0.0023
2659.0,-0.0023
2658.0,-0.0024
2657.0,-0.0024
2656.0,-0.0024
2655.0,-0.0024
2654.0,-0.0023
2653.0,-0.0023
2652.0,-0.0023
2651.0,-0.0023
2650.0,-0.0023
2649.0,-0.0023
2648.0,-0.0024
2647.0,-0.0024
2646.0,-0.0024
2645.0,-0.0025
2644.0,-0.0025
2643.0,-0.0025
2642.0,-0.0025
2641.0,-0.0025
2640.0,-0.0025
2639.0,-0.0025
2638.0,-0.0025
2637.0,-0.0024
2636.0,-0.0024
2635.0,-0.0023
2634.0,-0.0023
2633.0,-0.0023
2632.0,-0.0024
2631.0,-0.0024
2630.0,-0.0025
2629.0,-0.0025
2628.0,-0.0025
2627.0,-0.0025
2626.0,-0.0026
2625.0,-0.0026
2624.0,-0.0026
2623.0,-0.0026
2622.0,-0.0026
2621.0,-0.0025
2620.0,-0.0025
2619.0,-0.0024
2618.0,-0.0024
2617.0,-0.0024
2616.0,-0.0024
2615.0,-0.0024
2614.0,-0.0024
2613.0,-0.0024
2612.0,-0.0024
2611.0,-0.0025
2610.0,-0.0025
2609.0,-0.0025
2608.0,-0.0025
2607.0,-0.0025
2606.0,-0.0024
2605.0,-0.0024
2604.0,-0.0024
2603.0,-0.0024
2602.0,-0.0024
2601.0,-0.0024
2600.0,-0.0025
2599.0,-0.0025
2598.0,-0.0026
2597.0,-0.0025
2596.0,-0.0025
2595.0,-0.0024
2594.0,-0.0024
2593.0,-0.0024
2592.0,-0.0024
2591.0,-0.0025
2590.0,-0.0025
2589.0,-0.0024
2588.0,-0.0024
2587.0,-0.0024
2586.0,-0.0024
2585.0,-0.0024
2584.0,-0.0024
2583.0,-0.0024
2582.0,-0.0024
2581.0,-0.0024
2580.0,-0.0025
2579.0,-0.0025
2578.0,-0.0024
2577.0,-0.0024
2576.0,-0.0023
2575.0,-0.0024
2574.0,-0.0024
2573.0,-0.0025
2572.0,-0.0025
2571.0,-0.0026
2570.0,-0.0026
2569.0,-0.0025
2568.0,-0.0025
2567.0,-0.0024
2566.0,-0.0024
2565.0,-0.0024
2564.0,-0.0025
2563.0,-0.0025
2562.0,-0.0025
2561.0,-0.0025
2560.0,-0.0025
2559.0,-0.0025
2558.0,-0.0025
2557.0,-0.0025
2556.0,-0.0026
2555.0,-0.0026
2554.0,-0.0025
2553.0,-0.0025
2552.0,-0.0024
2551.0,-0.0023
2550.0,-0.0023
2549.0,-0.0023
2548.0,-0.0024
2547.0,-0.0024
2546.0,-0.0024
2545.0,-0.0024
2544.0,-0.0024
2543.0,-0.0023
2542.0,-0.0023
2541.0,-0.0023
2540.0,-0.0023
2539.0,-0.0023
2538.0,-0.0024
2537.0,-0.0024
2536.0,-0.0024
2535.0,-0.0025
2534.0,-0.0025
2533.0,-0.0026
2532.0,-0.0026
2531.0,-0.0025
2530.0,-0.0025
2529.0,-0.0024
2528.0,-0.0024
2527.0,-0.0024
2526.0,-0.0024
2525.0,-0.0025
2524.0,-0.0025
2523.0,-0.0025
2522.0,-0.0025
2521.0,-0.0024
2520.0,-0.0024
2519.0,-0.0024
2518.0,-0.0024
2517.0,-0.0025
2516.0,-0.0026
2515.0,-0.0026
2514.0,-0.0026
2513.0,-0.0026
2512.0,-0.0026
2511.0,-0.0026
2510.0,-0.0026
2509.0,-0.0026
2508.0,-0.0026
2507.0,-0.0025
2506.0,-0.0024
2505.0,-0.0024
2504.0,-0.0023
2503.0,-0.0024
2502.0,-0.0024
2501.0,-0.0025
2500.0,-0.0025
2499.0,-0.0025
2498.0,-0.0024
2497.0,-0.0024
2496.0,-0.0024
2495.0,-0.0024
2494.0,-0.0025
2493.0,-0.0025
2492.0,-0.0025
2491.0,-0.0025
2490.0,-0.0024
2489.0,-0.0023
2488.0,-0.0023
2487.0,-0.0023
2486.0,-0.0023
2485.0,-0.0024
2484.0,-0.0024
2483.0,-0.0024
2482.0,-0.0024
2481.0,-0.0024
2480.0,-0.0024
2479.0,-0.0025
2478.0,-0.0025
2477.0,-0.0025
2476.0,-0.0024
2475.0,-0.0024
2474.0,-0.0024
2473.0,-0.0025
2472.0,-0.0025
2471.0,-0.0025
2470.0,-0.0025
2469.0,-0.0025
2468.0,-0.0025
2467.0,-0.0026
2466.0,-0.0027
2465.0,-0.0027
2464.0,-0.0027
2463.0,-0.0026
2462.0,-0.0026
2461.0,-0.0025
2460.0,-0.0025
2459.0,-0.0025
2458.0,-0.0024
2457.0,-0.0024
2456.0,-0.0023
2455.0,-0.0024
2454.0,-0.0025
2453.0,-0.0025
2452.0,-0.0025
2451.0,-0.0024
2450.0,-0.0024
2449.0,-0.0024
2448.0,-0.0024
2447.0,-0.0024
2446.0,-0.0024
2445.0,-0.0024
2444.0,-0.0024
2443.0,-0.0023
2442.0,-0.0023
2441.0,-0.0023
2440.0,-0.0023
2439.0,-0.0024
2438.0,-0.0024
2437.0,-0.0024
2436.0,-0.0024
2435.0,-0.0024
2434.0,-0.0025
2433.0,-0.0025
2432.0,-0.0025
2431.0,-0.0025
2430.0,-0.0025
2429.0,-0.0025
2428.0,-0.0024
2427.0,-0.0024
2426.0,-0.0024
2425.0,-0.0025
2424.0,-0.0026
2423.0,-0.0027
2422.0,-0.0026
2421.0,-0.0026
2420.0,-0.0025
2419.0,-0.0025
2418.0,-0.0025
2417.0,-0.0024
2416.0,-0.0024
2415.0,-0.0024
2414.0,-0.0024
2413.0,-0.0024
2412.0,-0.0024
2411.0,-0.0024
2410.0,-0.0024
2409.0,-0.0024
2408.0,-0.0024
2407.0,-0.0023
2406.0,-0.0023
2405.0,-0.0023
2404.0,-0.0023
2403.0,-0.0023
2402.0,-0.0023
2401.0,-0.0024
2400.0,-0.0024
2399.0,-0.0025
2398.0,-0.0024
2397.0,-0.0024
2396.0,-0.0024
2395.0,-0.0024
2394.0,-0.0025
2393.0,-0.0025
2392.0,-0.0025
2391.0,-0.0025
2390.0,-0.0026
2389.0,-0.0025
2388.0,-0.0025
2387.0,-0.0025
2386.0,-0.0025
2385.0,-0.0025
2384.0,-0.0025
2383.0,-0.0026
2382.0,-0.0027
2381.0,-0.0027
2380.0,-0.0027
2379.0,-0.0027
2378.0,-0.0026
2377.0,-0.0025
2376.0,-0.0025
2375.0,-0.0025
2374.0,-0.0025
2373.0,-0.0027
2372.0,-0.0027
2371.0,-0.0028
2370.0,-0.0028
2369.0,-0.0028
2368.0,-0.0028
2367.0,-0.0026
2366.0,-0.0022
2365.0,-0.0018
2364.0,-0.0016
2363.0,-0.0016
2362.0,-0.0018
2361.0,-0.0023
2360.0,-0.0033
2359.0,-0.004
2358.0,-0.004
2357.0,-0.0035
2356.0,-0.003
2355.0,-0.0028
2354.0,-0.0028
2353.0,-0.0028
2352.0,-0.0027
2351.0,-0.0028
2350.0,-0.0028
2349.0,-0.0029
2348.0,-0.0029
2347.0,-0.0028
2346.0,-0.0026
2345.0,-0.0026
2344.0,-0.0028
2343.0,-0.0031
2342.0,-0.0031
2341.0,-0.0026
2340.0,-0.0023
2339.0,-0.0023
2338.0,-0.0028
2337.0,-0.0034
2336.0,-0.0038
2335.0,-0.0037
2334.0,-0.0033
2333.0,-0.0027
2332.0,-0.0023
2331.0,-0.0023
2330.0,-0.0026
2329.0,-0.003
2328.0,-0.0032
2327.0,-0.0031
2326.0,-0.0029
2325.0,-0.0028
2324.0,-0.0027
2323.0,-0.0027
2322.0,-0.0027
2321.0,-0.0028
2320.0,-0.0029
2319.0,-0.003
2318.0,-0.0031
2317.0,-0.0031
2316.0,-0.003
2315.0,-0.003
2314.0,-0.003
2313.0,-0.0032
2312.0,-0.0034
2311.0,-0.0035
2310.0,-0.0035
2309.0,-0.0035
2308.0,-0.0034
2307.0,-0.0033
2306.0,-0.0032
2305.0,-0.0031
2304.0,-0.0031
2303.0,-0.0031
2302.0,-0.0032
2301.0,-0.0032
2300.0,-0.0032
2299.0,-0.0032
2298.0,-0.0032
2297.0,-0.0033
2296.0,-0.0033
2295.0,-0.0033
2294.0,-0.0032
2293.0,-0.0031
2292.0,-0.003
2291.0,-0.0029
2290.0,-0.0029
2289.0,-0.0029
2288.0,-0.0029
2287.0,-0.0028
2286.0,-0.0027
2285.0,-0.0027
2284.0,-0.0027
2283.0,-0.0027
2282.0,-0.0028
2281.0,-0.0027
2280.0,-0.0027
2279.0,-0.0027
2278.0,-0.0028
2277.0,-0.0028
2276.0,-0.0028
2275.0,-0.0027
2274.0,-0.0026
2273.0,-0.0025
2272.0,-0.0025
2271.0,-0.0026
2270.0,-0.0026
2269.0,-0.0026
2268.0,-0.0026
2267.0,-0.0025
2266.0,-0.0026
2265.0,-0.0026
2264.0,-0.0026
2263.0,-0.0026
2262.0,-0.0026
2261.0,-0.0026
2260.0,-0.0026
2259.0,-0.0026
2258.0,-0.0026
2257.0,-0.0026
2256.0,-0.0026
2255.0,-0.0026
2254.0,-0.0026
2253.0,-0.0026
2252.0,-0.0025
2251.0,-0.0025
2250.0,-0.0026
2249.0,-0.0026
2248.0,-0.0026
2247.0,-0.0025
2246.0,-0.0025
2245.0,-0.0024
2244.0,-0.0024
2243.0,-0.0024
2242.0,-0.0024
2241.0,-0.0025
2240.0,-0.0025
2239.0,-0.0025
2238.0,-0.0024
2237.0,-0.0024
2236.0,-0.0024
2235.0,-0.0024
2234.0,-0.0025
2233.0,-0.0025
2232.0,-0.0025
2231.0,-0.0025
2230.0,-0.0025
2229.0,-0.0025
2228.0,-0.0024
2227.0,-0.0024
2226.0,-0.0024
2225.0,-0.0024
2224.0,-0.0024
2223.0,-0.0025
2222.0,-0.0024
2221.0,-0.0024
2220.0,-0.0024
2219.0,-0.0023
2218.0,-0.0023
2217.0,-0.0023
2216.0,-0.0024
2215.0,-0.0024
2214.0,-0.0024
2213.0,-0.0024
2212.0,-0.0024
2211.0,-0.0023
2210.0,-0.0023
2209.0,-0.0024
2208.0,-0.0024
2207.0,-0.0025
2206.0,-0.0026
2205.0,-0.0026
2204.0,-0.0026
2203.0,-0.0026
2202.0,-0.0025
2201.0,-0.0024
2200.0,-0.0024
2199.0,-0.0024
2198.0,-0.0024
2197.0,-0.0025
2196.0,-0.0025
2195.0,-0.0025
2194.0,-0.0025
2193.0,-0.0025
2192.0,-0.0025
2191.0,-0.0025
2190.0,-0.0026
2189.0,-0.0026
2188.0,-0.0025
2187.0,-0.0025
2186.0,-0.0024
2185.0,-0.0024
2184.0,-0.0024
2183.0,-0.0025
2182.0,-0.0025
2181.0,-0.0025
2180.0,-0.0025
2179.0,-0.0025
2178.0,-0.0025
2177.0,-0.0024
2176.0,-0.0024
2175.0,-0.0025
2174.0,-0.0025
2173.0,-0.0025
2172.0,-0.0025
2171.0,-0.0024
2170.0,-0.0024
2169.0,-0.0025
2168.0,-0.0025
2167.0,-0.0025
2166.0,-0.0025
2165.0,-0.0025
2164.0,-0.0026
2163.0,-0.0025
2162.0,-0.0025
2161.0,-0.0025
2160.0,-0.0025
2159.0,-0.0026
2158.0,-0.0026
2157.0,-0.0026
2156.0,-0.0026
2155.0,-0.0026
2154.0,-0.0026
2153.0,-0.0026
2152.0,-0.0025
2151.0,-0.0025
2150.0,-0.0025
2149.0,-0.0025
2148.0,-0.0026
2147.0,-0.0026
2146.0,-0.0026
2145.0,-0.0026
2144.0,-0.0025
2143.0,-0.0025
2142.0,-0.0025
2141.0,-0.0026
2140.0,-0.0026
2139.0,-0.0026
2138.0,-0.0026
2137.0,-0.0026
2136.0,-0.0025
2135.0,-0.0025
2134.0,-0.0025
2133.0,-0.0026
2132.0,-0.0026
2131.0,-0.0026
2130.0,-0.0025
2129.0,-0.0025
2128.0,-0.0025
2127.0,-0.0026
2126.0,-0.0026
2125.0,-0.0026
2124.0,-0.0026
2123.0,-0.0026
2122.0,-0.0025
2121.0,-0.0025
2120.0,-0.0026
2119.0,-0.0026
2118.0,-0.0026
2117.0,-0.0026
2116.0,-0.0026
2115.0,-0.0026
2114.0,-0.0026
2113.0,-0.0026
2112.0,-0.0026
2111.0,-0.0026
2110.0,-0.0026
2109.0,-0.0026
2108.0,-0.0026
2107.0,-0.0027
2106.0,-0.0027
2105.0,-0.0027
2104.0,-0.0027
2103.0,-0.0027
2102.0,-0.0026
2101.0,-0.0026
2100.0,-0.0025
2099.0,-0.0025
2098.0,-0.0026
2097.0,-0.0026
2096.0,-0.0026
2095.0,-0.0026
2094.0,-0.0026
2093.0,-0.0026
2092.0,-0.0027
2091.0,-0.0027
2090.0,-0.0027
2089.0,-0.0027
2088.0,-0.0027
2087.0,-0.0027
2086.0,-0.0027
2085.0,-0.0027
2084.0,-0.0028
2083.0,-0.0029
2082.0,-0.0029
2081.0,-0.003
2080.0,-0.0029
2079.0,-0.0028
2078.0,-0.0028
2077.0,-0.0027
2076.0,-0.0027
2075.0,-0.0028
2074.0,-0.0028
2073.0,-0.0028
2072.0,-0.0028
2071.0,-0.0028
2070.0,-0.0028
2069.0,-0.0028
2068.0,-0.0028
2067.0,-0.0028
2066.0,-0.0028
2065.0,-0.0027
2064.0,-0.0027
2063.0,-0.0027
2062.0,-0.0027
2061.0,-0.0027
2060.0,-0.0027
2059.0,-0.0028
2058.0,-0.0029
2057.0,-0.0029
2056.0,-0.003
2055.0,-0.0029
2054.0,-0.0029
2053.0,-0.0028
2052.0,-0.0028
2051.0,-0.0028
2050.0,-0.0028
2049.0,-0.0028
2048.0,-0.0028
2047.0,-0.0029
2046.0,-0.0029
2045.0,-0.0029
2044.0,-0.0029
2043.0,-0.0029
2042.0,-0.0029
2041.0,-0.0029
2040.0,-0.0029
2039.0,-0.0029
2038.0,-0.003
2037.0,-0.003
2036.0,-0.003
2035.0,-0.0029
2034.0,-0.0029
2033.0,-0.0029
2032.0,-0.0029
2031.0,-0.003
2030.0,-0.003
2029.0,-0.003
2028.0,-0.0029
2027.0,-0.0029
2026.0,-0.0029
2025.0,-0.0029
2024.0,-0.003
2023.0,-0.003
2022.0,-0.003
2021.0,-0.0029
2020.0,-0.0029
2019.0,-0.0028
2018.0,-0.0028
2017.0,-0.0028
2016.0,-0.0029
2015.0,-0.0029
2014.0,-0.0029
2013.0,-0.003
2012.0,-0.003
2011.0,-0.003
2010.0,-0.003
2009.0,-0.003
2008.0,-0.003
2007.0,-0.0029
2006.0,-0.0029
2005.0,-0.0029
2004.0,-0.0029
2003.0,-0.0029
2002.0,-0.0028
2001.0,-0.0028
2000.0,-0.0028
1999.0,-0.0029
1998.0,-0.0029
1997.0,-0.003
1996.0,-0.003
1995.0,-0.0031
1994.0,-0.003
1993.0,-0.003
1992.0,-0.003
1991.0,-0.0031
1990.0,-0.0031
1989.0,-0.003
1988.0,-0.003
1987.0,-0.0029
1986.0,-0.0029
1985.0,-0.0029
1984.0,-0.0029
1983.0,-0.0029
1982.0,-0.003
1981.0,-0.0031
1980.0,-0.0031
1979.0,-0.0031
1978.0,-0.0032
1977.0,-0.0031
1976.0,-0.0031
1975.0,-0.003
1974.0,-0.003
1973.0,-0.0029
1972.0,-0.0029
1971.0,-0.0029
1970.0,-0.003
1969.0,-0.003
1968.0,-0.003
1967.0,-0.0031
1966.0,-0.0031
1965.0,-0.0031
1964.0,-0.0031
1963.0,-0.0031
1962.0,-0.0031
1961.0,-0.0031
1960.0,-0.003
1959.0,-0.003
1958.0,-0.003
1957.0,-0.003
1956.0,-0.0029
1955.0,-0.003
1954.0,-0.003
1953.0,-0.003
1952.0,-0.003
1951.0,-0.003
1950.0,-0.003
1949.0,-0.003
1948.0,-0.003
1947.0,-0.003
1946.0,-0.0031
1945.0,-0.0031
1944.0,-0.0031
1943.0,-0.0031
1942.0,-0.0031
1941.0,-0.0031
1940.0,-0.0031
1939.0,-0.003
1938.0,-0.003
1937.0,-0.003
1936.0,-0.003
1935.0,-0.003
1934.0,-0.0031
1933.0,-0.0031
1932.0,-0.0031
1931.0,-0.0031
1930.0,-0.0031
1929.0,-0.0031
1928.0,-0.0031
1927.0,-0.0031
1926.0,-0.003
1925.0,-0.0029
1924.0,-0.0028
1923.0,-0.0029
1922.0,-0.0029
1921.0,-0.003
1920.0,-0.003
1919.0,-0.0031
1918.0,-0.0031
1917.0,-0.0031
1916.0,-0.0031
1915.0,-0.003
1914.0,-0.003
1913.0,-0.003
1912.0,-0.003
1911.0,-0.0031
1910.0,-0.0032
1909.0,-0.0031
1908.0,-0.0031
1907.0,-0.003
1906.0,-0.003
1905.0,-0.003
1904.0,-0.0031
1903.0,-0.0031
1902.0,-0.0032
1901.0,-0.0032
1900.0,-0.0031
1899.0,-0.0031
1898.0,-0.0031
1897.0,-0.0031
1896.0,-0.0032
1895.0,-0.0032
1894.0,-0.0032
1893.0,-0.0031
1892.0,-0.0031
1891.0,-0.003
1890.0,-0.003
1889.0,-0.003
1888.0,-0.0031
1887.0,-0.0031
1886.0,-0.0032
1885.0,-0.0032
1884.0,-0.0032
1883.0,-0.0032
1882.0,-0.0031
1881.0,-0.0031
1880.0,-0.0031
1879.0,-0.0031
1878.0,-0.0031
1877.0,-0.0031
1876.0,-0.0031
1875.0,-0.003
1874.0,-0.003
1873.0,-0.003
1872.0,-0.003
1871.0,-0.003
1870.0,-0.003
1869.0,-0.003
1868.0,-0.003
1867.0,-0.003
1866.0,-0.003
1865.0,-0.0031
1864.0,-0.0031
1863.0,-0.0031
1862.0,-0.0032
1861.0,-0.0031
1860.0,-0.0031
1859.0,-0.0031
1858.0,-0.0031
1857.0,-0.0031
1856.0,-0.0032
1855.0,-0.0032
1854.0,-0.0031
1853.0,-0.0031
1852.0,-0.0031
1851.0,-0.0031
1850.0,-0.0032
1849.0,-0.0032
1848.0,-0.0032
1847.0,-0.0032
1846.0,-0.0032
1845.0,-0.0031
1844.0,-0.0031
1843.0,-0.0031
1842.0,-0.0031
1841.0,-0.0031
1840.0,-0.0031
1839.0,-0.0031
1838.0,-0.003
1837.0,-0.0031
1836.0,-0.0031
1835.0,-0.0031
1834.0,-0.0031
1833.0,-0.0031
1832.0,-0.003
1831.0,-0.003
1830.0,-0.003
1829.0,-0.0031
1828.0,-0.0031
1827.0,-0.0031
1826.0,-0.0031
1825.0,-0.0031
1824.0,-0.0031
1823.0,-0.0031
1822.0,-0.0031
1821.0,-0.0031
1820.0,-0.0031
1819.0,-0.003
1818.0,-0.0031
1817.0,-0.0031
1816.0,-0.0031
1815.0,-0.003
1814.0,-0.003
1813.0,-0.003
1812.0,-0.003
1811.0,-0.003
1810.0,-0.003
1809.0,-0.0031
1808.0,-0.0031
1807.0,-0.0031
1806.0,-0.0031
1805.0,-0.0031
1804.0,-0.003
1803.0,-0.003
1802.0,-0.003
1801.0,-0.003
1800.0,-0.003
1799.0,-0.003
1798.0,-0.003
1797.0,-0.003
1796.0,-0.003
1795.0,-0.003
1794.0,-0.003
1793.0,-0.003
1792.0,-0.003
1791.0,-0.003
1790.0,-0.003
1789.0,-0.003
1788.0,-0.0031
1787.0,-0.0031
1786.0,-0.0031
1785.0,-0.0031
1784.0,-0.0031
1783.0,-0.0031
1782.0,-0.003
1781.0,-0.003
1780.0,-0.0031
1779.0,-0.0031
1778.0,-0.0031
1777.0,-0.0031
1776.0,-0.0031
1775.0,-0.0031
1774.0,-0.0032
1773.0,-0.0033
1772.0,-0.0033
1771.0,-0.0033
1770.0,-0.0032
1769.0,-0.0031
1768.0,-0.003
1767.0,-0.003
1766.0,-0.003
1765.0,-0.003
1764.0,-0.003
1763.0,-0.0031
1762.0,-0.0031
1761.0,-0.0031
1760.0,-0.003
1759.0,-0.003
1758.0,-0.0031
1757.0,-0.0031
1756.0,-0.0031
1755.0,-0.003
1754.0,-0.003
1753.0,-0.0029
1752.0,-0.003
1751.0,-0.003
1750.0,-0.0031
1749.0,-0.0031
1748.0,-0.0031
1747.0,-0.003
1746.0,-0.003
1745.0,-0.0029
1744.0,-0.0029
1743.0,-0.0029
1742.0,-0.003
1741.0,-0.003
1740.0,-0.003
1739.0,-0.003
1738.0,-0.003
1737.0,-0.0031
1736.0,-0.0031
1735.0,-0.0032
1734.0,-0.0032
1733.0,-0.0032
1732.0,-0.0032
1731.0,-0.0032
1730.0,-0.0031
1729.0,-0.0031
1728.0,-0.003
1727.0,-0.0029
1726.0,-0.0029
1725.0,-0.0028
1724.0,-0.0028
1723.0,-0.0028
1722.0,-0.0027
1721.0,-0.0027
1720.0,-0.0027
1719.0,-0.0027
1718.0,-0.0028
1717.0,-0.0029
1716.0,-0.0028
1715.0,-0.0028
1714.0,-0.0028
1713.0,-0.0029
1712.0,-0.0029
1711.0,-0.0028
1710.0,-0.0028
1709.0,-0.0027
1708.0,-0.0027
1707.0,-0.0027
1706.0,-0.0028
1705.0,-0.0027
1704.0,-0.0027
1703.0,-0.0026
1702.0,-0.0027
1701.0,-0.0027
1700.0,-0.0028
1699.0,-0.0028
1698.0,-0.0028
1697.0,-0.0028
1696.0,-0.0027
1695.0,-0.0026
1694.0,-0.0025
1693.0,-0.0025
1692.0,-0.0025
1691.0,-0.0024
1690.0,-0.0024
1689.0,-0.0024
1688.0,-0.0023
1687.0,-0.0023
1686.0,-0.0023
1685.0,-0.0023
1684.0,-0.0022
1683.0,-0.0022
1682.0,-0.0021
1681.0,-0.0021
1680.0,-0.002
1679.0,-0.002
1678.0,-0.002
1677.0,-0.002
1676.0,-0.0021
1675.0,-0.0021
1674.0,-0.0021
1673.0,-0.0021
1672.0,-0.0021
1671.0,-0.0021
1670.0,-0.002
1669.0,-0.0019
1668.0,-0.0018
1667.0,-0.0017
1666.0,-0.0017
1665.0,-0.0017
1664.0,-0.0017
1663.0,-0.0017
1662.0,-0.0017
1661.0,-0.0016
1660.0,-0.0015
1659.0,-0.0015
1658.0,-0.0016
1657.0,-0.0016
1656.0,-0.0016
1655.0,-0.0017
1654.0,-0.0016
1653.0,-0.0014
1652.0,-0.0013
1651.0,-0.0013
1650.0,-0.0014
1649.0,-0.0013
1648.0,-0.0013
1647.0,-0.0012
1646.0,-0.0012
1645.0,-0.0011
1644.0,-0.0011
1643.0,-0.0011
1642.0,-0.0011
1641.0,-0.0012
1640.0,-0.0013
1639.0,-0.0013
1638.0,-0.0013
1637.0,-0.0012
1636.0,-0.0012
1635.0,-0.0011
1634.0,-0.0011
1633.0,-0.001
1632.0,-0.0009
1631.0,-0.0008
1630.0,-0.0007
1629.0,-0.0007
1628.0,-0.0006
1627.0,-0.0006
1626.0,-0.0007
1625.0,-0.0008
1624.0,-0.0009
1623.0,-0.0009
1622.0,-0.0008
1621.0,-0.0008
1620.0,-0.0008
1619.0,-0.0008
1618.0,-0.0009
1617.0,-0.001
1616.0,-0.001
1615.0,-0.001
1614.0,-0.001
1613.0,-0.001
1612.0,-0.0011
1611.0,-0.0012
1610.0,-0.0012
1609.0,-0.0013
1608.0,-0.0014
1607.0,-0.0014
1606.0,-0.0015
1605.0,-0.0015
1604.0,-0.0016
1603.0,-0.0016
1602.0,-0.0017
1601.0,-0.0017
1600.0,-0.0018
1599.0,-0.0018
1598.0,-0.0018
1597.0,-0.0018
1596.0,-0.0019
1595.0,-0.0019
1594.0,-0.0019
1593.0,-0.0019
1592.0,-0.0019
1591.0,-0.0019
1590.0,-0.0019
1589.0,-0.0019
1588.0,-0.002
1587.0,-0.0021
1586.0,-0.0021
1585.0,-0.0022
1584.0,-0.0022
1583.0,-0.0022
1582.0,-0.0022
1581.0,-0.0022
1580.0,-0.0022
1579.0,-0.0022
1578.0,-0.0022
1577.0,-0.0022
1576.0,-0.0022
1575.0,-0.0023
1574.0,-0.0023
1573.0,-0.0023
1572.0,-0.0024
1571.0,-0.0024
1570.0,-0.0023
1569.0,-0.0024
1568.0,-0.0024
1567.0,-0.0024
1566.0,-0.0025
1565.0,-0.0025
1564.0,-0.0024
1563.0,-0.0024
1562.0,-0.0024
1561.0,-0.0023
1560.0,-0.0022
1559.0,-0.0022
1558.0,-0.0025
1557.0,-0.0027
1556.0,-0.0028
1555.0,-0.0028
1554.0,-0.0028
1553.0,-0.0028
1552.0,-0.0027
1551.0,-0.0026
1550.0,-0.0026
1549.0,-0.0026
1548.0,-0.0026
1547.0,-0.0026
1546.0,-0.0027
1545.0,-0.0028
1544.0,-0.0029
1543.0,-0.003
1542.0,-0.0031
1541.0,-0.003
1540.0,-0.0028
1539.0,-0.0027
1538.0,-0.0027
1537.0,-0.0027
1536.0,-0.0027
1535.0,-0.0027
1534.0,-0.0027
1533.0,-0.0027
1532.0,-0.0027
1531.0,-0.0027
1530.0,-0.0026
1529.0,-0.0026
1528.0,-0.0026
1527.0,-0.0026
1526.0,-0.0026
1525.0,-0.0026
1524.0,-0.0026
1523.0,-0.0026
1522.0,-0.0027
1521.0,-0.0027
1520.0,-0.0027
1519.0,-0.0026
1518.0,-0.0026
1517.0,-0.0025
1516.0,-0.0026
1515.0,-0.0026
1514.0,-0.0026
1513.0,-0.0026
1512.0,-0.0026
1511.0,-0.0026
1510.0,-0.0025
1509.0,-0.0025
1508.0,-0.0025
1507.0,-0.0024
1506.0,-0.0024
1505.0,-0.0025
1504.0,-0.0025
1503.0,-0.0025
1502.0,-0.0026
1501.0,-0.0026
1500.0,-0.0025
1499.0,-0.0025
1498.0,-0.0025
1497.0,-0.0024
1496.0,-0.0024
1495.0,-0.0024
1494.0,-0.0024
1493.0,-0.0024
1492.0,-0.0023
1491.0,-0.0023
1490.0,-0.0023
1489.0,-0.0023
1488.0,-0.0023
1487.0,-0.0023
1486.0,-0.0024
1485.0,-0.0024
1484.0,-0.0024
1483.0,-0.0024
1482.0,-0.0023
1481.0,-0.0023
1480.0,-0.0022
1479.0,-0.0022
1478.0,-0.0021
1477.0,-0.0021
1476.0,-0.0021
1475.0,-0.0021
1474.0,-0.0022
1473.0,-0.0022
1472.0,-0.0021
1471.0,-0.002
1470.0,-0.0019
1469.0,-0.0018
1468.0,-0.0018
1467.0,-0.0018
1466.0,-0.0018
1465.0,-0.0018
1464.0,-0.0016
1463.0,-0.0016
1462.0,-0.0015
1461.0,-0.0014
1460.0,-0.0014
1459.0,-0.0014
1458.0,-0.0014
1457.0,-0.0014
1456.0,-0.0013
1455.0,-0.0013
1454.0,-0.0012
1453.0,-0.0012
1452.0,-0.0012
1451.0,-0.0012
1450.0,-0.0012
1449.0,-0.0013
1448.0,-0.0013
1447.0,-0.0013
1446.0,-0.0014
1445.0,-0.0014
1444.0,-0.0015
1443.0,-0.0016
1442.0,-0.0016
1441.0,-0.0017
1440.0,-0.0017
1439.0,-0.0016
1438.0,-0.0016
1437.0,-0.0016
1436.0,-0.0016
1435.0,-0.0017
1434.0,-0.0017
1433.0,-0.0018
1432.0,-0.0017
1431.0,-0.0017
1430.0,-0.0017
1429.0,-0.0017
1428.0,-0.0017
1427.0,-0.0017
1426.0,-0.0017
1425.0,-0.0017
1424.0,-0.0017
1423.0,-0.0017
1422.0,-0.0016
1421.0,-0.0016
1420.0,-0.0017
1419.0,-0.0017
1418.0,-0.0017
1417.0,-0.0016
1416.0,-0.0016
1415.0,-0.0015
1414.0,-0.0015
1413.0,-0.0014
1412.0,-0.0014
1411.0,-0.0014
1410.0,-0.0014
1409.0,-0.0014
1408.0,-0.0013
1407.0,-0.0013
1406.0,-0.0013
1405.0,-0.0013
1404.0,-0.0013
1403.0,-0.0014
1402.0,-0.0014
1401.0,-0.0014
1400.0,-0.0015
1399.0,-0.0015
1398.0,-0.0015
1397.0,-0.0015
1396.0,-0.0014
1395.0,-0.0013
1394.0,-0.0012
1393.0,-0.0013
1392.0,-0.0014
1391.0,-0.0015
1390.0,-0.0016
1389.0,-0.0017
1388.0,-0.0018
1387.0,-0.0017
1386.0,-0.0017
1385.0,-0.0016
1384.0,-0.0015
1383.0,-0.0014
1382.0,-0.0013
1381.0,-0.0011
1380.0,-0.0009
1379.0,-0.0007
1378.0,-0.0005
1377.0,-0.0003
1376.0,-0.0002
1375.0,-0.0002
1374.0,-0.0003
1373.0,-0.0005
1372.0,-0.0007
1371.0,-0.0008
1370.0,-0.001
1369.0,-0.0012
1368.0,-0.0014
1367.0,-0.0015
1366.0,-0.0016
1365.0,-0.0017
1364.0,-0.0017
1363.0,-0.0018
1362.0,-0.0018
1361.0,-0.0018
1360.0,-0.0018
1359.0,-0.0017
1358.0,-0.0017
1357.0,-0.0017
1356.0,-0.0017
1355.0,-0.0018
1354.0,-0.0018
1353.0,-0.0019
1352.0,-0.0019
1351.0,-0.0019
1350.0,-0.0019
1349.0,-0.0019
1348.0,-0.002
1347.0,-0.002
1346.0,-0.002
1345.0,-0.002
1344.0,-0.002
1343.0,-0.002
1342.0,-0.002
1341.0,-0.0021
1340.0,-0.0021
1339.0,-0.0022
1338.0,-0.0022
1337.0,-0.0022
1336.0,-0.0021
1335.0,-0.0021
1334.0,-0.002
1333.0,-0.002
1332.0,-0.002
1331.0,-0.002
1330.0,-0.002
1329.0,-0.002
1328.0,-0.002
1327.0,-0.002
1326.0,-0.002
1325.0,-0.002
1324.0,-0.0021
1323.0,-0.0021
1322.0,-0.0021
1321.0,-0.0021
1320.0,-0.0021
1319.0,-0.0022
1318.0,-0.0022
1317.0,-0.0022
1316.0,-0.0021
1315.0,-0.0021
1314.0,-0.002
1313.0,-0.002
1312.0,-0.002
1311.0,-0.002
1310.0,-0.002
1309.0,-0.002
1308.0,-0.002
1307.0,-0.002
1306.0,-0.0019
1305.0,-0.0019
1304.0,-0.0019
1303.0,-0.0019
1302.0,-0.002
1301.0,-0.002
1300.0,-0.002
1299.0,-0.002
1298.0,-0.002
1297.0,-0.002
1296.0,-0.002
1295.0,-0.002
1294.0,-0.0019
1293.0,-0.0018
1292.0,-0.0018
1291.0,-0.0017
1290.0,-0.0017
1289.0,-0.0018
1288.0,-0.0018
1287.0,-0.0019
1286.0,-0.0019
1285.0,-0.0018
1284.0,-0.0018
1283.0,-0.0018
1282.0,-0.0018
1281.0,-0.0018
1280.0,-0.0018
1279.0,-0.0018
1278.0,-0.0017
1277.0,-0.0017
1276.0,-0.0017
1275.0,-0.0018
1274.0,-0.0018
1273.0,-0.0017
1272.0,-0.0016
1271.0,-0.0016
1270.0,-0.0015
1269.0,-0.0015
1268.0,-0.0014
1267.0,-0.0014
1266.0,-0.0014
1265.0,-0.0013
1264.0,-0.0013
1263.0,-0.0012
1262.0,-0.0012
1261.0,-0.0011
1260.0,-0.0011
1259.0,-0.001
1258.0,-0.001
1257.0,-0.001
1256.0,-0.001
1255.0,-0.001
1254.0,-0.0009
1253.0,-0.0008
1252.0,-0.0008
1251.0,-0.0007
1250.0,-0.0007
1249.0,-0.0007
1248.0,-0.0007
1247.0,-0.0007
1246.0,-0.0007
1245.0,-0.0007
1244.0,-0.0006
1243.0,-0.0005
1242.0,-0.0004
1241.0,-0.0004
1240.0,-0.0004
1239.0,-0.0004
1238.0,-0.0004
1237.0,-0.0003
1236.0,-0.0003
1235.0,-0.0002
1234.0,-0.0001
1233.0,-0.0
1232.0,0.0001
1231.0,0.0002
1230.0,0.0003
1229.0,0.0004
1228.0,0.0006
1227.0,0.0007
1226.0,0.0008
1225.0,0.0009
1224.0,0.001
1223.0,0.0011
1222.0,0.0012
1221.0,0.0013
1220.0,0.0014
1219.0,0.0016
1218.0,0.0017
1217.0,0.0018
1216.0,0.002
1215.0,0.0021
1214.0,0.0022
1213.0,0.0023
1212.0,0.0024
1211.0,0.0025
1210.0,0.0027
1209.0,0.0028
1208.0,0.003
1207.0,0.0031
1206.0,0.0033
1205.0,0.0035
1204.0,0.0037
1203.0,0.0039
1202.0,0.004
1201.0,0.0042
1200.0,0.0044
1199.0,0.0045
1198.0,0.0047
1197.0,0.0049
1196.0,0.0052
1195.0,0.0054
1194.0,0.0057
1193.0,0.0059
1192.0,0.0061
1191.0,0.0064
1190.0,0.0066
1189.0,0.0068
1188.0,0.0071
1187.0,0.0073
1186.0,0.0076
1185.0,0.0078
1184.0,0.0081
1183.0,0.0083
1182.0,0.0085
1181.0,0.0088
1180.0,0.0091
1179.0,0.0095
1178.0,0.0098
1177.0,0.0101
1176.0,0.0104
1175.0,0.0107
1174.0,0.011
1173.0,0.0112
1172.0,0.0115
1171.0,0.0117
1170.0,0.012
1169.0,0.0123
1168.0,0.0126
1167.0,0.0129
1166.0,0.013
1165.0,0.0132
1164.0,0.0134
1163.0,0.0136
1162.0,0.0138
1161.0,0.014
1160.0,0.0142
1159.0,0.0143
1158.0,0.0144
1157.0,0.0145
1156.0,0.0147
1155.0,0.0149
1154.0,0.0151
1153.0,0.0152
1152.0,0.0153
1151.0,0.0154
1150.0,0.0155
1149.0,0.0156
1148.0,0.0157
1147.0,0.0158
1146.0,0.0159
1145.0,0.016
1144.0,0.0161
1143.0,0.0161
1142.0,0.0161
1141.0,0.0162
1140.0,0.0163
1139.0,0.0165
1138.0,0.0166
1137.0,0.0167
1136.0,0.0166
1135.0,0.0166
1134.0,0.0165
1133.0,0.0164
1132.0,0.0164
1131.0,0.0164
1130.0,0.0164
1129.0,0.0164
1128.0,0.0165
1127.0,0.0165
1126.0,0.0165
1125.0,0.0166
1124.0,0.0166
1123.0,0.0165
1122.0,0.0165
1121.0,0.0164
1120.0,0.0163
1119.0,0.0164
1118.0,0.0164
1117.0,0.0165
1116.0,0.0167
1115.0,0.0168
1114.0,0.0169
1113.0,0.017
1112.0,0.017
1111.0,0.0171
1110.0,0.0172
1109.0,0.0173
1108.0,0.0174
1107.0,0.0176
1106.0,0.0178
1105.0,0.0179
1104.0,0.0181
1103.0,0.0182
1102.0,0.0183
1101.0,0.0184
1100.0,0.0185
1099.0,0.0187
1098.0,0.0188
1097.0,0.0189
1096.0,0.019
1095.0,0.0191
1094.0,0.0192
1093.0,0.0193
1092.0,0.0193
1091.0,0.0193
1090.0,0.0194
1089.0,0.0194
1088.0,0.0195
1087.0,0.0195
1086.0,0.0195
1085.0,0.0195
1084.0,0.0196
1083.0,0.0196
1082.0,0.0196
1081.0,0.0194
1080.0,0.0192
1079.0,0.0191
1078.0,0.0189
1077.0,0.0187
1076.0,0.0184
1075.0,0.0181
1074.0,0.0176
1073.0,0.0172
1072.0,0.0168
1071.0,0.0164
1070.0,0.016
1069.0,0.0157
1068.0,0.0155
1067.0,0.0152
1066.0,0.0147
1065.0,0.014
1064.0,0.0133
1063.0,0.0126
1062.0,0.012
1061.0,0.0114
1060.0,0.0109
1059.0,0.0104
1058.0,0.0099
1057.0,0.0095
1056.0,0.009
1055.0,0.0085
1054.0,0.008
1053.0,0.0075
1052.0,0.0071
1051.0,0.0067
1050.0,0.0064
1049.0,0.0061
1048.0,0.0058
1047.0,0.0055
1046.0,0.0051
1045.0,0.0048
1044.0,0.0046
1043.0,0.0043
1042.0,0.004
1041.0,0.0037
1040.0,0.0035
1039.0,0.0032
1038.0,0.003
1037.0,0.0028
1036.0,0.0026
1035.0,0.0024
1034.0,0.0023
1033.0,0.0021
1032.0,0.002
1031.0,0.0018
1030.0,0.0017
1029.0,0.0017
1028.0,0.0016
1027.0,0.0015
1026.0,0.0014
1025.0,0.0012
1024.0,0.0012
1023.0,0.0011
1022.0,0.0011
1021.0,0.0011
1020.0,0.0011
1019.0,0.0011
1018.0,0.0011
1017.0,0.0011
1016.0,0.0012
1015.0,0.0013
1014.0,0.0015
1013.0,0.0016
1012.0,0.0017
1011.0,0.0018
1010.0,0.0019
1009.0,0.002
1008.0,0.0021
1007.0,0.0022
1006.0,0.0022
1005.0,0.0023
1004.0,0.0023
1003.0,0.0023
1002.0,0.0024
1001.0,0.0024
1000.0,0.0024
999.0,0.0023
998.0,0.0022
997.0,0.0021
996.0,0.002
995.0,0.0018
994.0,0.0017
993.0,0.0015
992.0,0.0013
991.0,0.0011
990.0,0.0009
989.0,0.0007
988.0,0.0005
987.0,0.0003
986.0,0.0002
985.0,0.0001
984.0,0.0
983.0,0.0
982.0,0.0
981.0,0.0
980.0,0.0001
979.0,0.0001
978.0,0.0001
977.0,0.0002
976.0,0.0003
975.0,0.0005
974.0,0.0005
973.0,0.0005
972.0,0.0006
971.0,0.0006
970.0,0.0006
969.0,0.0005
968.0,0.0004
967.0,0.0004
966.0,0.0003
965.0,0.0002
964.0,0.0002
963.0,0.0002
962.0,0.0003
961.0,0.0004
960.0,0.0005
959.0,0.0005
958.0,0.0004
957.0,0.0003
956.0,0.0003
955.0,0.0003
954.0,0.0003
953.0,0.0003
952.0,0.0003
951.0,0.0003
950.0,0.0004
949.0,0.0004
948.0,0.0004
947.0,0.0004
946.0,0.0004
945.0,0.0004
944.0,0.0004
943.0,0.0005
942.0,0.0005
941.0,0.0004
940.0,0.0003
939.0,0.0003
938.0,0.0003
937.0,0.0004
936.0,0.0005
935.0,0.0006
934.0,0.0006
933.0,0.0005
932.0,0.0005
931.0,0.0006
930.0,0.0007
929.0,0.0008
928.0,0.0008
927.0,0.0008
926.0,0.0008
925.0,0.0007
924.0,0.0007
923.0,0.0008
922.0,0.0008
921.0,0.0009
920.0,0.0009
919.0,0.0009
918.0,0.0008
917.0,0.0008
916.0,0.001
915.0,0.0012
914.0,0.0013
913.0,0.0014
912.0,0.0013
911.0,0.0012
910.0,0.0012
909.0,0.0012
908.0,0.0014
907.0,0.0016
906.0,0.0017
905.0,0.0018
904.0,0.0019
903.0,0.002
902.0,0.0021
901.0,0.0022
900.0,0.0023
899.0,0.0023
898.0,0.0022
897.0,0.0022
896.0,0.0022
895.0,0.0023
894.0,0.0025
893.0,0.0026
892.0,0.0027
891.0,0.0026
890.0,0.0026
889.0,0.0027
888.0,0.0028
887.0,0.0028
886.0,0.0029
885.0,0.0029
884.0,0.0029
883.0,0.0029
882.0,0.0029
881.0,0.0029
880.0,0.0029
879.0,0.003
878.0,0.0031
877.0,0.0031
876.0,0.003
875.0,0.0029
874.0,0.0028
873.0,0.0029
872.0,0.0029
871.0,0.003
870.0,0.003
869.0,0.0031
868.0,0.0033
867.0,0.0034
866.0,0.0034
865.0,0.0032
864.0,0.0032
863.0,0.0032
862.0,0.0033
861.0,0.0035
860.0,0.0036
859.0,0.0036
858.0,0.0035
857.0,0.0033
856.0,0.0032
855.0,0.0032
854.0,0.0032
853.0,0.0033
852.0,0.0034
851.0,0.0036
850.0,0.0038
849.0,0.0039
848.0,0.0039
847.0,0.0039
846.0,0.0039
845.0,0.004
844.0,0.0043
843.0,0.0046
842.0,0.0048
841.0,0.005
840.0,0.005
839.0,0.005
838.0,0.0049
837.0,0.0048
836.0,0.0047
835.0,0.0046
834.0,0.0046
833.0,0.0047
832.0,0.0049
831.0,0.005
830.0,0.0051
829.0,0.0051
828.0,0.0051
827.0,0.0051
826.0,0.0052
825.0,0.0053
824.0,0.0053
823.0,0.0052
822.0,0.005
821.0,0.005
820.0,0.0051
819.0,0.0053
818.0,0.0054
817.0,0.0056
816.0,0.0056
815.0,0.0058
814.0,0.0059
813.0,0.006
812.0,0.0061
811.0,0.0063
810.0,0.0064
809.0,0.0065
808.0,0.0066
807.0,0.0066
806.0,0.0066
805.0,0.0065
804.0,0.0064
803.0,0.0063
802.0,0.0063
801.0,0.0062
800.0,0.0062
799.0,0.0062
798.0,0.0063
797.0,0.0065
796.0,0.0067
795.0,0.0069
794.0,0.007
793.0,0.007
792.0,0.007
791.0,0.007
790.0,0.0071
789.0,0.0071
788.0,0.007
787.0,0.007
786.0,0.007
785.0,0.0071
784.0,0.0072
783.0,0.0072
782.0,0.0072
781.0,0.0072
780.0,0.0073
779.0,0.0073
778.0,0.0074
777.0,0.0074
776.0,0.0075
775.0,0.0076
774.0,0.0077
773.0,0.0078
772.0,0.0079
771.0,0.0079
770.0,0.0079
769.0,0.0081
768.0,0.0083
767.0,0.0085
766.0,0.0086
765.0,0.0085
764.0,0.0084
763.0,0.0084
762.0,0.0084
761.0,0.0085
760.0,0.0086
759.0,0.0086
758.0,0.0085
757.0,0.0085
756.0,0.0085
755.0,0.0084
754.0,0.0084
753.0,0.0084
752.0,0.0085
751.0,0.0087
750.0,0.0088
749.0,0.0088
748.0,0.0089
747.0,0.0089
746.0,0.0089
745.0,0.0088
744.0,0.0087
743.0,0.0087
742.0,0.0089
741.0,0.0093
740.0,0.0095
739.0,0.0097
738.0,0.0097
737.0,0.0097
736.0,0.0097
735.0,0.0097
734.0,0.0096
733.0,0.0096
732.0,0.0095
731.0,0.0096
730.0,0.0098
729.0,0.0101
728.0,0.0103
727.0,0.0103
726.0,0.0104
725.0,0.0105
724.0,0.0107
723.0,0.0108
722.0,0.0108
721.0,0.0111
720.0,0.0115
719.0,0.0119
718.0,0.012
717.0,0.0118
716.0,0.0115
715.0,0.0112
714.0,0.0109
713.0,0.0106
712.0,0.0105
711.0,0.0106
710.0,0.0109
709.0,0.0111
708.0,0.0113
707.0,0.0115
706.0,0.0115
705.0,0.0114
704.0,0.0111
703.0,0.0109
702.0,0.0109
701.0,0.0111
700.0,0.0114
699.0,0.0116
698.0,0.0117
697.0,0.0115
696.0,0.0114
695.0,0.0114
694.0,0.0116
693.0,0.0118
692.0,0.0122
691.0,0.0125
690.0,0.0128
689.0,0.013
688.0,0.0128
687.0,0.0124
686.0,0.012
685.0,0.0118
684.0,0.0124
683.0,0.0135
682.0,0.015
681.0,0.0159
680.0,0.0162
679.0,0.016
678.0,0.0157
677.0,0.0155
676.0,0.0151
675.0,0.0146
674.0,0.0145
673.0,0.0148
672.0,0.0156
671.0,0.0165
670.0,0.0174
669.0,0.0182
668.0,0.0193
667.0,0.0198
666.0,0.0194
665.0,0.0189
664.0,0.0187
663.0,0.0189
662.0,0.0191
661.0,0.0194
660.0,0.0197
659.0,0.0201
658.0,0.0206
657.0,0.0212
656.0,0.0218
655.0,0.0222
654.0,0.0225
653.0,0.0228
652.0,0.0232
651.0,0.0232
650.0,0.0228
649.0,0.0225
648.0,0.0223
647.0,0.022
646.0,0.0216
645.0,0.0213
644.0,0.0213
643.0,0.0211
642.0,0.0209
641.0,0.0206
640.0,0.0206
639.0,0.0206
638.0,0.0202
637.0,0.0196
636.0,0.0194
635.0,0.0198
634.0,0.0209
633.0,0.0221
632.0,0.0227
631.0,0.0224
630.0,0.0214
629.0,0.0203
628.0,0.0195
627.0,0.0188
626.0,0.0182
625.0,0.0176
624.0,0.0176
623.0,0.0183
622.0,0.0196
621.0,0.021
620.0,0.0223
619.0,0.0229
618.0,0.0225
617.0,0.0214
616.0,0.0206
615.0,0.0203
614.0,0.0202
613.0,0.0201
612.0,0.0199
611.0,0.0199
610.0,0.0202
609.0,0.0208
608.0,0.0219
607.0,0.0235
606.0,0.0251
605.0,0.0262
604.0,0.0266
603.0,0.0267
602.0,0.0274
601.0,0.0292
600.0,0.0315
