cm-1,A
4000.0,-0.0003
3999.0,-0.0004
3998.0,-0.0005
3997.0,-0.0005
3996.0,-0.0005
3995.0,-0.0004
3994.0,-0.0003
3993.0,-0.0003
3992.0,-0.0002
3991.0,-0.0003
3990.0,-0.0003
3989.0,-0.0003
3988.0,-0.0003
3987.0,-0.0003
3986.0,-0.0002
3985.0,-0.0002
3984.0,-0.0002
3983.0,-0.0002
3982.0,-0.0002
3981.0,-0.0002
3980.0,-0.0002
3979.0,-0.0002
3978.0,-0.0002
3977.0,-0.0002
3976.0,-0.0003
3975.0,-0.0003
3974.0,-0.0003
3973.0,-0.0003
3972.0,-0.0003
3971.0,-0.0002
3970.0,-0.0002
3969.0,-0.0002
3968.0,-0.0002
3967.0,-0.0002
3966.0,-0.0003
3965.0,-0.0003
3964.0,-0.0004
3963.0,-0.0003
3962.0,-0.0003
3961.0,-0.0002
3960.0,-0.0001
3959.0,-0.0001
3958.0,-0.0002
3957.0,-0.0003
3956.0,-0.0004
3955.0,-0.0004
3954.0,-0.0004
3953.0,-0.0003
3952.0,-0.0002
3951.0,-0.0002
3950.0,-0.0002
3949.0,-0.0003
3948.0,-0.0003
3947.0,-0.0004
3946.0,-0.0004
3945.0,-0.0003
3944.0,-0.0002
3943.0,-0.0001
3942.0,-0.0001
3941.0,-0.0001
3940.0,-0.0001
3939.0,-0.0002
3938.0,-0.0003
3937.0,-0.0003
3936.0,-0.0004
3935.0,-0.0003
3934.0,-0.0003
3933.0,-0.0003
3932.0,-0.0003
3931.0,-0.0003
3930.0,-0.0003
3929.0,-0.0002
3928.0,-0.0002
3927.0,-0.0001
3926.0,-0.0002
3925.0,-0.0002
3924.0,-0.0002
3923.0,-0.0002
3922.0,-0.0001
3921.0,-0.0001
3920.0,-0.0001
3919.0,-0.0001
3918.0,-0.0001
3917.0,-0.0002
3916.0,-0.0002
3915.0,-0.0002
3914.0,-0.0002
3913.0,-0.0002
3912.0,-0.0002
3911.0,-0.0003
3910.0,-0.0003
3909.0,-0.0003
3908.0,-0.0002
3907.0,-0.0002
3906.0,-0.0002
3905.0,-0.0003
3904.0,-0.0004
3903.0,-0.0005
3902.0,-0.0004
3901.0,-0.0003
3900.0,-0.0002
3899.0,-0.0001
3898.0,-0.0002
3897.0,-0.0003
3896.0,-0.0005
3895.0,-0.0006
3894.0,-0.0006
3893.0,-0.0005
3892.0,-0.0004
3891.0,-0.0003
3890.0,-0.0002
3889.0,-0.0002
3888.0,-0.0001
3887.0,-0.0001
3886.0,-0.0002
3885.0,-0.0002
3884.0,-0.0002
3883.0,0.0001
3882.0,0.0003
3881.0,0.0004
3880.0,0.0003
3879.0,0.0001
3878.0,0.0
3877.0,0.0
3876.0,0.0001
3875.0,0.0001
3874.0,-0.0001
3873.0,-0.0002
3872.0,-0.0002
3871.0,-0.0001
3870.0,-0.0001
3869.0,-0.0002
3868.0,-0.0002
3867.0,-0.0002
3866.0,-0.0001
3865.0,-0.0001
3864.0,-0.0
3863.0,0.0001
3862.0,0.0001
3861.0,0.0001
3860.0,0.0001
3859.0,-0.0001
3858.0,-0.0003
3857.0,-0.0004
3856.0,-0.0005
3855.0,-0.0004
3854.0,-0.0004
3853.0,-0.0005
3852.0,-0.0005
3851.0,-0.0004
3850.0,-0.0003
3849.0,-0.0002
3848.0,-0.0002
3847.0,-0.0002
3846.0,-0.0001
3845.0,-0.0
3844.0,0.0
3843.0,0.0
3842.0,0.0001
3841.0,0.0001
3840.0,0.0001
3839.0,0.0001
3838.0,0.0001
3837.0,0.0001
3836.0,0.0
3835.0,0.0
3834.0,0.0001
3833.0,0.0001
3832.0,0.0001
3831.0,0.0001
3830.0,0.0001
3829.0,0.0001
3828.0,0.0002
3827.0,0.0001
3826.0,-0.0
3825.0,-0.0001
3824.0,-0.0001
3823.0,0.0001
3822.0,0.0001
3821.0,0.0
3820.0,-0.0001
3819.0,-0.0002
3818.0,-0.0002
3817.0,-0.0002
3816.0,-0.0002
3815.0,-0.0002
3814.0,-0.0002
3813.0,-0.0002
3812.0,-0.0002
3811.0,-0.0002
3810.0,-0.0002
3809.0,-0.0002
3808.0,-0.0001
3807.0,-0.0001
3806.0,-0.0
3805.0,0.0001
3804.0,0.0003
3803.0,0.0004
3802.0,0.0004
3801.0,0.0004
3800.0,0.0003
3799.0,0.0003
3798.0,0.0003
3797.0,0.0002
3796.0,0.0002
3795.0,0.0001
3794.0,0.0001
3793.0,0.0
3792.0,-0.0
3791.0,-0.0001
3790.0,-0.0003
3789.0,-0.0003
3788.0,-0.0003
3787.0,-0.0002
3786.0,-0.0001
3785.0,0.0
3784.0,0.0001
3783.0,0.0002
3782.0,0.0003
3781.0,0.0004
3780.0,0.0003
3779.0,0.0002
3778.0,0.0001
3777.0,0.0
3776.0,-0.0
3775.0,-0.0001
3774.0,-0.0001
3773.0,-0.0001
3772.0,-0.0001
3771.0,-0.0001
3770.0,-0.0001
3769.0,-0.0001
3768.0,-0.0
3767.0,0.0001
3766.0,0.0001
3765.0,0.0001
3764.0,0.0001
3763.0,0.0001
3762.0,0.0002
3761.0,0.0002
3760.0,0.0002
3759.0,0.0002
3758.0,0.0001
3757.0,-0.0
3756.0,-0.0002
3755.0,-0.0003
3754.0,-0.0004
3753.0,-0.0005
3752.0,-0.0008
3751.0,-0.001
3750.0,-0.001
3749.0,-0.0011
3748.0,-0.001
3747.0,-0.0009
3746.0,-0.0007
3745.0,-0.0006
3744.0,-0.0007
3743.0,-0.0008
3742.0,-0.0009
3741.0,-0.0009
3740.0,-0.001
3739.0,-0.0011
3738.0,-0.0012
3737.0,-0.0014
3736.0,-0.0016
3735.0,-0.0016
3734.0,-0.0015
3733.0,-0.0015
3732.0,-0.0016
3731.0,-0.0017
3730.0,-0.0018
3729.0,-0.0019
3728.0,-0.0018
3727.0,-0.0018
3726.0,-0.0016
3725.0,-0.0014
3724.0,-0.0013
3723.0,-0.0012
3722.0,-0.0011
3721.0,-0.0011
3720.0,-0.001
3719.0,-0.0009
3718.0,-0.0008
3717.0,-0.0007
3716.0,-0.0006
3715.0,-0.0005
3714.0,-0.0005
3713.0,-0.0008
3712.0,-0.0011
3711.0,-0.0013
3710.0,-0.0013
3709.0,-0.0013
3708.0,-0.0013
3707.0,-0.0013
3706.0,-0.0013
3705.0,-0.0013
3704.0,-0.0011
3703.0,-0.0009
3702.0,-0.0007
3701.0,-0.0008
3700.0,-0.0009
3699.0,-0.001
3698.0,-0.001
3697.0,-0.001
3696.0,-0.001
3695.0,-0.001
3694.0,-0.0009
3693.0,-0.0009
3692.0,-0.0008
3691.0,-0.0006
3690.0,-0.0004
3689.0,-0.0003
3688.0,-0.0004
3687.0,-0.0005
3686.0,-0.0006
3685.0,-0.0006
3684.0,-0.0006
3683.0,-0.0005
3682.0,-0.0004
3681.0,-0.0004
3680.0,-0.0004
3679.0,-0.0004
3678.0,-0.0004
3677.0,-0.0002
3676.0,0.0
3675.0,0.0001
3674.0,0.0001
3673.0,-0.0
3672.0,-0.0001
3671.0,-0.0002
3670.0,-0.0001
3669.0,-0.0
3668.0,0.0
3667.0,0.0
3666.0,-0.0
3665.0,-0.0001
3664.0,-0.0001
3663.0,-0.0001
3662.0,-0.0001
3661.0,-0.0001
3660.0,-0.0001
3659.0,-0.0001
3658.0,-0.0001
3657.0,-0.0
3656.0,0.0
3655.0,0.0001
3654.0,0.0001
3653.0,0.0002
3652.0,0.0002
3651.0,0.0001
3650.0,0.0001
3649.0,0.0004
3648.0,0.0008
3647.0,0.0008
3646.0,0.0006
3645.0,0.0005
3644.0,0.0003
3643.0,0.0002
3642.0,0.0001
3641.0,0.0
3640.0,-0.0001
3639.0,-0.0002
3638.0,-0.0003
3637.0,-0.0004
3636.0,-0.0004
3635.0,-0.0004
3634.0,-0.0004
3633.0,-0.0005
3632.0,-0.0005
3631.0,-0.0006
3630.0,-0.0007
3629.0,-0.0007
3628.0,-0.0007
3627.0,-0.0006
3626.0,-0.0005
3625.0,-0.0004
3624.0,-0.0002
3623.0,-0.0001
3622.0,0.0001
3621.0,0.0003
3620.0,0.0005
3619.0,0.0006
3618.0,0.0007
3617.0,0.0007
3616.0,0.0008
3615.0,0.0009
3614.0,0.0009
3613.0,0.0007
3612.0,0.0005
3611.0,0.0003
3610.0,0.0002
3609.0,0.0002
3608.0,0.0003
3607.0,0.0004
3606.0,0.0004
3605.0,0.0005
3604.0,0.0005
3603.0,0.0005
3602.0,0.0004
3601.0,0.0003
3600.0,0.0003
3599.0,0.0003
3598.0,0.0003
3597.0,0.0003
3596.0,0.0003
3595.0,0.0003
3594.0,0.0003
3593.0,0.0005
3592.0,0.0006
3591.0,0.0007
3590.0,0.0008
3589.0,0.0009
3588.0,0.001
3587.0,0.0011
3586.0,0.0013
3585.0,0.0013
3584.0,0.0014
3583.0,0.0013
3582.0,0.0013
3581.0,0.0013
3580.0,0.0014
3579.0,0.0014
3578.0,0.0014
3577.0,0.0013
3576.0,0.0013
3575.0,0.0013
3574.0,0.0015
3573.0,0.0017
3572.0,0.0018
3571.0,0.0019
3570.0,0.002
3569.0,0.002
3568.0,0.002
3567.0,0.0021
3566.0,0.0022
3565.0,0.0022
3564.0,0.0021
3563.0,0.0021
3562.0,0.0022
3561.0,0.0022
3560.0,0.0023
3559.0,0.0023
3558.0,0.0023
3557.0,0.0023
3556.0,0.0023
3555.0,0.0024
3554.0,0.0025
3553.0,0.0027
3552.0,0.0028
3551.0,0.0027
3550.0,0.0026
3549.0,0.0026
3548.0,0.0026
3547.0,0.0027
3546.0,0.0028
3545.0,0.0029
3544.0,0.0029
3543.0,0.0029
3542.0,0.0029
3541.0,0.0029
3540.0,0.0029
3539.0,0.003
3538.0,0.0031
3537.0,0.0031
3536.0,0.003
3535.0,0.003
3534.0,0.003
3533.0,0.0031
3532.0,0.0033
3531.0,0.0034
3530.0,0.0035
3529.0,0.0035
3528.0,0.0036
3527.0,0.0036
3526.0,0.0035
3525.0,0.0035
3524.0,0.0034
3523.0,0.0034
3522.0,0.0034
3521.0,0.0035
3520.0,0.0035
3519.0,0.0035
3518.0,0.0035
3517.0,0.0035
3516.0,0.0035
3515.0,0.0035
3514.0,0.0036
3513.0,0.0036
3512.0,0.0036
3511.0,0.0036
3510.0,0.0036
3509.0,0.0036
3508.0,0.0037
3507.0,0.0037
3506.0,0.0037
3505.0,0.0037
3504.0,0.0036
3503.0,0.0036
3502.0,0.0035
3501.0,0.0035
3500.0,0.0034
3499.0,0.0034
3498.0,0.0033
3497.0,0.0033
3496.0,0.0034
3495.0,0.0034
3494.0,0.0035
3493.0,0.0035
3492.0,0.0036
3491.0,0.0037
3490.0,0.0037
3489.0,0.0037
3488.0,0.0037
3487.0,0.0037
3486.0,0.0037
3485.0,0.0037
3484.0,0.0037
3483.0,0.0036
3482.0,0.0036
3481.0,0.0036
3480.0,0.0036
3479.0,0.0037
3478.0,0.0037
3477.0,0.0037
3476.0,0.0037
3475.0,0.0037
3474.0,0.0037
3473.0,0.0037
3472.0,0.0037
3471.0,0.0037
3470.0,0.0037
3469.0,0.0037
3468.0,0.0037
3467.0,0.0037
3466.0,0.0038
3465.0,0.0038
3464.0,0.0038
3463.0,0.0038
3462.0,0.0038
3461.0,0.0039
3460.0,0.0039
3459.0,0.0039
3458.0,0.0039
3457.0,0.0039
3456.0,0.0038
3455.0,0.0037
3454.0,0.0037
3453.0,0.0036
3452.0,0.0036
3451.0,0.0037
3450.0,0.0038
3449.0,0.0039
3448.0,0.004
3447.0,0.0041
3446.0,0.0041
3445.0,0.0041
3444.0,0.0041
3443.0,0.0041
3442.0,0.004
3441.0,0.0039
3440.0,0.0039
3439.0,0.0039
3438.0,0.004
3437.0,0.0041
3436.0,0.0042
3435.0,0.0043
3434.0,0.0043
3433.0,0.0043
3432.0,0.0044
3431.0,0.0045
3430.0,0.0045
3429.0,0.0045
3428.0,0.0045
3427.0,0.0045
3426.0,0.0046
3425.0,0.0046
3424.0,0.0046
3423.0,0.0047
3422.0,0.0047
3421.0,0.0048
3420.0,0.0048
3419.0,0.0049
3418.0,0.0051
3417.0,0.0052
3416.0,0.0053
3415.0,0.0053
3414.0,0.0053
3413.0,0.0054
3412.0,0.0054
3411.0,0.0053
3410.0,0.0053
3409.0,0.0053
3408.0,0.0053
3407.0,0.0053
3406.0,0.0054
3405.0,0.0054
3404.0,0.0054
3403.0,0.0053
3402.0,0.0053
3401.0,0.0052
3400.0,0.0052
3399.0,0.0053
3398.0,0.0053
3397.0,0.0054
3396.0,0.0054
3395.0,0.0054
3394.0,0.0054
3393.0,0.0054
3392.0,0.0054
3391.0,0.0054
3390.0,0.0054
3389.0,0.0053
3388.0,0.0053
3387.0,0.0053
3386.0,0.0053
3385.0,0.0053
3384.0,0.0052
3383.0,0.0051
3382.0,0.005
3381.0,0.005
3380.0,0.0049
3379.0,0.0049
3378.0,0.0048
3377.0,0.0048
3376.0,0.0048
3375.0,0.0049
3374.0,0.0048
3373.0,0.0048
3372.0,0.0046
3371.0,0.0046
3370.0,0.0046
3369.0,0.0046
3368.0,0.0047
3367.0,0.0047
3366.0,0.0048
3365.0,0.0048
3364.0,0.0048
3363.0,0.0048
3362.0,0.0048
3361.0,0.0048
3360.0,0.0048
3359.0,0.0047
3358.0,0.0047
3357.0,0.0046
3356.0,0.0045
3355.0,0.0044
3354.0,0.0044
3353.0,0.0043
3352.0,0.0042
3351.0,0.0042
3350.0,0.0042
3349.0,0.0043
3348.0,0.0044
3347.0,0.0044
3346.0,0.0045
3345.0,0.0045
3344.0,0.0045
3343.0,0.0043
3342.0,0.0042
3341.0,0.0041
3340.0,0.0041
3339.0,0.0041
3338.0,0.0042
3337.0,0.0043
3336.0,0.0043
3335.0,0.0043
3334.0,0.0044
3333.0,0.0044
3332.0,0.0045
3331.0,0.0045
3330.0,0.0045
3329.0,0.0045
3328.0,0.0044
3327.0,0.0043
3326.0,0.0043
3325.0,0.0043
3324.0,0.0043
3323.0,0.0043
3322.0,0.0043
3321.0,0.0043
3320.0,0.0043
3319.0,0.0044
3318.0,0.0045
3317.0,0.0044
3316.0,0.0043
3315.0,0.0042
3314.0,0.0042
3313.0,0.0042
3312.0,0.0042
3311.0,0.0042
3310.0,0.0042
3309.0,0.0041
3308.0,0.0041
3307.0,0.0041
3306.0,0.0041
3305.0,0.0041
3304.0,0.0042
3303.0,0.0043
3302.0,0.0043
3301.0,0.0042
3300.0,0.0042
3299.0,0.0041
3298.0,0.0041
3297.0,0.0041
3296.0,0.004
3295.0,0.0038
3294.0,0.0038
3293.0,0.0039
3292.0,0.0041
3291.0,0.0042
3290.0,0.0043
3289.0,0.0043
3288.0,0.0042
3287.0,0.004
3286.0,0.0038
3285.0,0.0038
3284.0,0.0038
3283.0,0.0039
3282.0,0.004
3281.0,0.0041
3280.0,0.0041
3279.0,0.0042
3278.0,0.0042
3277.0,0.0042
3276.0,0.0041
3275.0,0.0041
3274.0,0.0042
3273.0,0.0041
3272.0,0.0041
3271.0,0.0039
3270.0,0.0039
3269.0,0.0038
3268.0,0.0039
3267.0,0.0039
3266.0,0.0039
3265.0,0.0038
3264.0,0.0038
3263.0,0.0037
3262.0,0.0036
3261.0,0.0036
3260.0,0.0036
3259.0,0.0037
3258.0,0.0037
3257.0,0.0037
3256.0,0.0037
3255.0,0.0037
3254.0,0.0037
3253.0,0.0037
3252.0,0.0038
3251.0,0.0038
3250.0,0.0039
3249.0,0.0039
3248.0,0.0039
3247.0,0.0038
3246.0,0.0038
3245.0,0.0038
3244.0,0.0039
3243.0,0.004
3242.0,0.0041
3241.0,0.0041
3240.0,0.0041
3239.0,0.0041
3238.0,0.004
3237.0,0.004
3236.0,0.0039
3235.0,0.0038
3234.0,0.0037
3233.0,0.0036
3232.0,0.0036
3231.0,0.0036
3230.0,0.0037
3229.0,0.0038
3228.0,0.0039
3227.0,0.0039
3226.0,0.0039
3225.0,0.0039
3224.0,0.0039
3223.0,0.0038
3222.0,0.0037
3221.0,0.0037
3220.0,0.0036
3219.0,0.0037
3218.0,0.0038
3217.0,0.0038
3216.0,0.0039
3215.0,0.0039
3214.0,0.0039
3213.0,0.0038
3212.0,0.0038
3211.0,0.0038
3210.0,0.0039
3209.0,0.0039
3208.0,0.0039
3207.0,0.0039
3206.0,0.0038
3205.0,0.0037
3204.0,0.0036
3203.0,0.0035
3202.0,0.0035
3201.0,0.0035
3200.0,0.0035
3199.0,0.0034
3198.0,0.0034
3197.0,0.0034
3196.0,0.0034
3195.0,0.0034
3194.0,0.0035
3193.0,0.0036
3192.0,0.0037
3191.0,0.0038
3190.0,0.0038
3189.0,0.0038
3188.0,0.0037
3187.0,0.0037
3186.0,0.0037
3185.0,0.0037
3184.0,0.0036
3183.0,0.0036
3182.0,0.0035
3181.0,0.0034
3180.0,0.0035
3179.0,0.0036
3178.0,0.0036
3177.0,0.0035
3176.0,0.0034
3175.0,0.0033
3174.0,0.0033
3173.0,0.0033
3172.0,0.0033
3171.0,0.0034
3170.0,0.0034
3169.0,0.0035
3168.0,0.0035
3167.0,0.0034
3166.0,0.0033
3165.0,0.0032
3164.0,0.0031
3163.0,0.0031
3162.0,0.0032
3161.0,0.0033
3160.0,0.0034
3159.0,0.0034
3158.0,0.0034
3157.0,0.0033
3156.0,0.0033
3155.0,0.0033
3154.0,0.0032
3153.0,0.0032
3152.0,0.0032
3151.0,0.0032
3150.0,0.0033
3149.0,0.0033
3148.0,0.0032
3147.0,0.0032
3146.0,0.0031
3145.0,0.0031
3144.0,0.0031
3143.0,0.0032
3142.0,0.0032
3141.0,0.0032
3140.0,0.0032
3139.0,0.0032
3138.0,0.0033
3137.0,0.0034
3136.0,0.0034
3135.0,0.0034
3134.0,0.0034
3133.0,0.0033
3132.0,0.0032
3131.0,0.0031
3130.0,0.0031
3129.0,0.0032
3128.0,0.0033
3127.0,0.0033
3126.0,0.0033
3125.0,0.0033
3124.0,0.0032
3123.0,0.0032
3122.0,0.0032
3121.0,0.0032
3120.0,0.0032
3119.0,0.0032
3118.0,0.0032
3117.0,0.0032
3116.0,0.0032
3115.0,0.0032
3114.0,0.0032
3113.0,0.0032
3112.0,0.0031
3111.0,0.0032
3110.0,0.0032
3109.0,0.0032
3108.0,0.0033
3107.0,0.0033
3106.0,0.0033
3105.0,0.0033
3104.0,0.0033
3103.0,0.0032
3102.0,0.0031
3101.0,0.0031
3100.0,0.0031
3099.0,0.0032
3098.0,0.0033
3097.0,0.0034
3096.0,0.0034
3095.0,0.0034
3094.0,0.0033
3093.0,0.0032
3092.0,0.0032
3091.0,0.0032
3090.0,0.0032
3089.0,0.0032
3088.0,0.0032
3087.0,0.0032
3086.0,0.0033
3085.0,0.0034
3084.0,0.0034
3083.0,0.0033
3082.0,0.0033
3081.0,0.0032
3080.0,0.0032
3079.0,0.0032
3078.0,0.0031
3077.0,0.0031
3076.0,0.003
3075.0,0.003
3074.0,0.003
3073.0,0.003
3072.0,0.003
3071.0,0.0031
3070.0,0.0032
3069.0,0.0032
3068.0,0.0032
3067.0,0.0032
3066.0,0.0032
3065.0,0.0032
3064.0,0.0031
3063.0,0.0031
3062.0,0.0031
3061.0,0.003
3060.0,0.003
3059.0,0.003
3058.0,0.003
3057.0,0.0031
3056.0,0.0031
3055.0,0.0031
3054.0,0.0031
3053.0,0.0031
3052.0,0.0032
3051.0,0.0032
3050.0,0.0033
3049.0,0.0032
3048.0,0.0032
3047.0,0.0031
3046.0,0.003
3045.0,0.003
3044.0,0.0031
3043.0,0.0031
3042.0,0.0031
3041.0,0.003
3040.0,0.0029
3039.0,0.0028
3038.0,0.0028
3037.0,0.0028
3036.0,0.0028
3035.0,0.0029
3034.0,0.0029
3033.0,0.0029
3032.0,0.0029
3031.0,0.0029
3030.0,0.0028
3029.0,0.0028
3028.0,0.0028
3027.0,0.0028
3026.0,0.0028
3025.0,0.0028
3024.0,0.0028
3023.0,0.0029
3022.0,0.003
3021.0,0.003
3020.0,0.003
3019.0,0.003
3018.0,0.003
3017.0,0.003
3016.0,0.003
3015.0,0.0029
3014.0,0.0029
3013.0,0.0029
3012.0,0.0029
3011.0,0.0029
3010.0,0.0029
3009.0,0.0029
3008.0,0.0029
3007.0,0.0029
3006.0,0.0029
3005.0,0.0029
3004.0,0.0029
3003.0,0.0029
3002.0,0.0029
3001.0,0.003
3000.0,0.003
2999.0,0.0031
2998.0,0.0031
2997.0,0.0031
2996.0,0.003
2995.0,0.0029
2994.0,0.003
2993.0,0.003
2992.0,0.0031
2991.0,0.0032
2990.0,0.0033
2989.0,0.0033
2988.0,0.0033
2987.0,0.0032
2986.0,0.0032
2985.0,0.0031
2984.0,0.0031
2983.0,0.0031
2982.0,0.0031
2981.0,0.0032
2980.0,0.0033
2979.0,0.0033
2978.0,0.0034
2977.0,0.0035
2976.0,0.0036
2975.0,0.0037
2974.0,0.0038
2973.0,0.0039
2972.0,0.0039
2971.0,0.0038
2970.0,0.0038
2969.0,0.0037
2968.0,0.0037
2967.0,0.0038
2966.0,0.0039
2965.0,0.004
2964.0,0.0041
2963.0,0.0041
2962.0,0.004
2961.0,0.004
2960.0,0.004
2959.0,0.0041
2958.0,0.0041
2957.0,0.0041
2956.0,0.0041
2955.0,0.004
2954.0,0.004
2953.0,0.004
2952.0,0.004
2951.0,0.0039
2950.0,0.0039
2949.0,0.0038
2948.0,0.0038
2947.0,0.0038
2946.0,0.0038
2945.0,0.0038
2944.0,0.0038
2943.0,0.0038
2942.0,0.0038
2941.0,0.0038
2940.0,0.0037
2939.0,0.0037
2938.0,0.0036
2937.0,0.0036
2936.0,0.0035
2935.0,0.0036
2934.0,0.0036
2933.0,0.0037
2932.0,0.0037
2931.0,0.0037
2930.0,0.0036
2929.0,0.0036
2928.0,0.0035
2927.0,0.0035
2926.0,0.0035
2925.0,0.0035
2924.0,0.0036
2923.0,0.0036
2922.0,0.0036
2921.0,0.0035
2920.0,0.0035
2919.0,0.0035
2918.0,0.0035
2917.0,0.0036
2916.0,0.0036
2915.0,0.0037
2914.0,0.0037
2913.0,0.0037
2912.0,0.0036
2911.0,0.0037
2910.0,0.0037
2909.0,0.0038
2908.0,0.0039
2907.0,0.0039
2906.0,0.0039
2905.0,0.0039
2904.0,0.0039
2903.0,0.0038
2902.0,0.0038
2901.0,0.0037
2900.0,0.0037
2899.0,0.0037
2898.0,0.0037
2897.0,0.0037
2896.0,0.0036
2895.0,0.0036
2894.0,0.0035
2893.0,0.0035
2892.0,0.0035
2891.0,0.0036
2890.0,0.0037
2889.0,0.0037
2888.0,0.0037
2887.0,0.0037
2886.0,0.0037
2885.0,0.0037
2884.0,0.0037
2883.0,0.0037
2882.0,0.0036
2881.0,0.0036
2880.0,0.0036
2879.0,0.0036
2878.0,0.0036
2877.0,0.0036
2876.0,0.0036
2875.0,0.0036
2874.0,0.0036
2873.0,0.0036
2872.0,0.0036
2871.0,0.0036
2870.0,0.0036
2869.0,0.0036
2868.0,0.0036
2867.0,0.0036
2866.0,0.0037
2865.0,0.0037
2864.0,0.0037
2863.0,0.0037
2862.0,0.0037
2861.0,0.0037
2860.0,0.0037
2859.0,0.0037
2858.0,0.0037
2857.0,0.0037
2856.0,0.0036
2855.0,0.0036
2854.0,0.0037
2853.0,0.0037
2852.0,0.0037
2851.0,0.0037
2850.0,0.0037
2849.0,0.0036
2848.0,0.0036
2847.0,0.0036
2846.0,0.0037
2845.0,0.0038
2844.0,0.0038
2843.0,0.0038
2842.0,0.0037
2841.0,0.0037
2840.0,0.0036
2839.0,0.0035
2838.0,0.0035
2837.0,0.0034
2836.0,0.0034
2835.0,0.0035
2834.0,0.0035
2833.0,0.0036
2832.0,0.0035
2831.0,0.0034
2830.0,0.0034
2829.0,0.0034
2828.0,0.0034
2827.0,0.0035
2826.0,0.0035
2825.0,0.0036
2824.0,0.0037
2823.0,0.0037
2822.0,0.0037
2821.0,0.0036
2820.0,0.0035
2819.0,0.0034
2818.0,0.0034
2817.0,0.0035
2816.0,0.0035
2815.0,0.0035
2814.0,0.0034
2813.0,0.0033
2812.0,0.0033
2811.0,0.0033
2810.0,0.0033
2809.0,0.0034
2808.0,0.0035
2807.0,0.0035
2806.0,0.0036
2805.0,0.0036
2804.0,0.0036
2803.0,0.0036
2802.0,0.0035
2801.0,0.0035
2800.0,0.0034
2799.0,0.0034
2798.0,0.0033
2797.0,0.0034
2796.0,0.0034
2795.0,0.0034
2794.0,0.0034
2793.0,0.0034
2792.0,0.0034
2791.0,0.0034
2790.0,0.0034
2789.0,0.0034
2788.0,0.0034
2787.0,0.0035
2786.0,0.0035
2785.0,0.0035
2784.0,0.0035
2783.0,0.0035
2782.0,0.0035
2781.0,0.0035
2780.0,0.0035
2779.0,0.0035
2778.0,0.0035
2777.0,0.0035
2776.0,0.0034
2775.0,0.0035
2774.0,0.0035
2773.0,0.0035
2772.0,0.0035
2771.0,0.0034
2770.0,0.0034
2769.0,0.0035
2768.0,0.0035
2767.0,0.0035
2766.0,0.0035
2765.0,0.0035
2764.0,0.0035
2763.0,0.0035
2762.0,0.0035
2761.0,0.0035
2760.0,0.0035
2759.0,0.0035
2758.0,0.0035
2757.0,0.0035
2756.0,0.0035
2755.0,0.0035
2754.0,0.0036
2753.0,0.0036
2752.0,0.0036
2751.0,0.0035
2750.0,0.0035
2749.0,0.0034
2748.0,0.0033
2747.0,0.0033
2746.0,0.0033
2745.0,0.0034
2744.0,0.0035
2743.0,0.0035
2742.0,0.0035
2741.0,0.0035
2740.0,0.0035
2739.0,0.0034
2738.0,0.0034
2737.0,0.0034
2736.0,0.0034
2735.0,0.0035
2734.0,0.0035
2733.0,0.0035
2732.0,0.0035
2731.0,0.0035
2730.0,0.0034
2729.0,0.0034
2728.0,0.0034
2727.0,0.0035
2726.0,0.0035
2725.0,0.0035
2724.0,0.0035
2723.0,0.0035
2722.0,0.0034
2721.0,0.0034
2720.0,0.0034
2719.0,0.0034
2718.0,0.0034
2717.0,0.0034
2716.0,0.0034
2715.0,0.0035
2714.0,0.0035
2713.0,0.0035
2712.0,0.0035
2711.0,0.0035
2710.0,0.0035
2709.0,0.0035
2708.0,0.0035
2707.0,0.0035
2706.0,0.0036
2705.0,0.0036
2704.0,0.0035
2703.0,0.0034
2702.0,0.0034
2701.0,0.0034
2700.0,0.0034
2699.0,0.0035
2698.0,0.0035
2697.0,0.0035
2696.0,0.0035
2695.0,0.0035
2694.0,0.0035
2693.0,0.0035
2692.0,0.0035
2691.0,0.0035
2690.0,0.0035
2689.0,0.0035
2688.0,0.0035
2687.0,0.0036
2686.0,0.0036
2685.0,0.0036
2684.0,0.0036
2683.0,0.0036
2682.0,0.0036
2681.0,0.0037
2680.0,0.0037
2679.0,0.0037
2678.0,0.0037
2677.0,0.0037
2676.0,0.0037
2675.0,0.0036
2674.0,0.0036
2673.0,0.0036
2672.0,0.0036
2671.0,0.0036
2670.0,0.0036
2669.0,0.0036
2668.0,0.0035
2667.0,0.0034
2666.0,0.0034
2665.0,0.0034
2664.0,0.0035
2663.0,0.0036
2662.0,0.0037
2661.0,0.0037
2660.0,0.0036
2659.0,0.0035
2658.0,0.0035
2657.0,0.0035
2656.0,0.0036
2655.0,0.0036
2654.0,0.0036
2653.0,0.0036
2652.0,0.0035
2651.0,0.0035
2650.0,0.0035
2649.0,0.0035
2648.0,0.0035
2647.0,0.0035
2646.0,0.0035
2645.0,0.0035
2644.0,0.0035
2643.0,0.0035
2642.0,0.0035
2641.0,0.0034
2640.0,0.0034
2639.0,0.0034
2638.0,0.0034
2637.0,0.0035
2636.0,0.0035
2635.0,0.0035
2634.0,0.0035
2633.0,0.0035
2632.0,0.0035
2631.0,0.0035
2630.0,0.0035
2629.0,0.0036
2628.0,0.0036
2627.0,0.0037
2626.0,0.0036
2625.0,0.0036
2624.0,0.0036
2623.0,0.0036
2622.0,0.0036
2621.0,0.0036
2620.0,0.0036
2619.0,0.0036
2618.0,0.0036
2617.0,0.0036
2616.0,0.0036
2615.0,0.0035
2614.0,0.0035
2613.0,0.0035
2612.0,0.0035
2611.0,0.0036
2610.0,0.0037
2609.0,0.0037
2608.0,0.0037
2607.0,0.0036
2606.0,0.0036
2605.0,0.0036
2604.0,0.0036
2603.0,0.0035
2602.0,0.0035
2601.0,0.0035
2600.0,0.0035
2599.0,0.0035
2598.0,0.0035
2597.0,0.0035
2596.0,0.0035
2595.0,0.0035
2594.0,0.0035
2593.0,0.0035
2592.0,0.0036
2591.0,0.0036
2590.0,0.0037
2589.0,0.0036
2588.0,0.0036
2587.0,0.0036
2586.0,0.0036
2585.0,0.0036
2584.0,0.0036
2583.0,0.0036
2582.0,0.0036
2581.0,0.0036
2580.0,0.0035
2579.0,0.0035
2578.0,0.0036
2577.0,0.0036
2576.0,0.0036
2575.0,0.0036
2574.0,0.0036
2573.0,0.0036
2572.0,0.0036
2571.0,0.0036
2570.0,0.0037
2569.0,0.0037
2568.0,0.0037
2567.0,0.0036
2566.0,0.0036
2565.0,0.0036
2564.0,0.0036
2563.0,0.0036
2562.0,0.0037
2561.0,0.0037
2560.0,0.0037
2559.0,0.0036
2558.0,0.0036
2557.0,0.0036
2556.0,0.0036
2555.0,0.0036
2554.0,0.0037
2553.0,0.0037
2552.0,0.0037
2551.0,0.0036
2550.0,0.0036
2549.0,0.0036
2548.0,0.0035
2547.0,0.0036
2546.0,0.0036
2545.0,0.0037
2544.0,0.0037
2543.0,0.0037
2542.0,0.0037
2541.0,0.0036
2540.0,0.0036
2539.0,0.0036
2538.0,0.0037
2537.0,0.0037
2536.0,0.0037
2535.0,0.0037
2534.0,0.0037
2533.0,0.0036
2532.0,0.0035
2531.0,0.0035
2530.0,0.0035
2529.0,0.0035
2528.0,0.0035
2527.0,0.0036
2526.0,0.0036
2525.0,0.0037
2524.0,0.0037
2523.0,0.0037
2522.0,0.0037
2521.0,0.0037
2520.0,0.0036
2519.0,0.0036
2518.0,0.0036
2517.0,0.0036
2516.0,0.0036
2515.0,0.0036
2514.0,0.0036
2513.0,0.0036
2512.0,0.0036
2511.0,0.0037
2510.0,0.0037
2509.0,0.0037
2508.0,0.0037
2507.0,0.0037
2506.0,0.0036
2505.0,0.0036
2504.0,0.0037
2503.0,0.0037
2502.0,0.0037
2501.0,0.0037
2500.0,0.0037
2499.0,0.0037
2498.0,0.0036
2497.0,0.0036
2496.0,0.0037
2495.0,0.0037
2494.0,0.0037
2493.0,0.0036
2492.0,0.0036
2491.0,0.0037
2490.0,0.0037
2489.0,0.0037
2488.0,0.0037
2487.0,0.0037
2486.0,0.0036
2485.0,0.0036
2484.0,0.0036
2483.0,0.0036
2482.0,0.0036
2481.0,0.0037
2480.0,0.0037
2479.0,0.0037
2478.0,0.0037
2477.0,0.0036
2476.0,0.0036
2475.0,0.0036
2474.0,0.0036
2473.0,0.0036
2472.0,0.0036
2471.0,0.0035
2470.0,0.0035
2469.0,0.0035
2468.0,0.0035
2467.0,0.0035
2466.0,0.0035
2465.0,0.0035
2464.0,0.0035
2463.0,0.0035
2462.0,0.0035
2461.0,0.0035
2460.0,0.0035
2459.0,0.0035
2458.0,0.0034
2457.0,0.0035
2456.0,0.0035
2455.0,0.0035
2454.0,0.0035
2453.0,0.0035
2452.0,0.0035
2451.0,0.0035
2450.0,0.0035
2449.0,0.0035
2448.0,0.0034
2447.0,0.0034
2446.0,0.0034
2445.0,0.0035
2444.0,0.0035
2443.0,0.0035
2442.0,0.0035
2441.0,0.0035
2440.0,0.0035
2439.0,0.0035
2438.0,0.0035
2437.0,0.0035
2436.0,0.0035
2435.0,0.0034
2434.0,0.0034
2433.0,0.0034
2432.0,0.0034
2431.0,0.0034
2430.0,0.0035
2429.0,0.0035
2428.0,0.0035
2427.0,0.0035
2426.0,0.0035
2425.0,0.0035
2424.0,0.0035
2423.0,0.0035
2422.0,0.0034
2421.0,0.0034
2420.0,0.0034
2419.0,0.0035
2418.0,0.0035
2417.0,0.0036
2416.0,0.0036
2415.0,0.0036
2414.0,0.0036
2413.0,0.0035
2412.0,0.0035
2411.0,0.0036
2410.0,0.0036
2409.0,0.0036
2408.0,0.0036
2407.0,0.0036
2406.0,0.0035
2405.0,0.0036
2404.0,0.0036
2403.0,0.0036
2402.0,0.0036
2401.0,0.0036
2400.0,0.0036
2399.0,0.0035
2398.0,0.0035
2397.0,0.0035
2396.0,0.0035
2395.0,0.0035
2394.0,0.0036
2393.0,0.0036
2392.0,0.0036
2391.0,0.0036
2390.0,0.0034
2389.0,0.0032
2388.0,0.0029
2387.0,0.0025
2386.0,0.0021
2385.0,0.0016
2384.0,0.0012
2383.0,0.0008
2382.0,0.0005
2381.0,0.0004
2380.0,0.0004
2379.0,0.0005
2378.0,0.0007
2377.0,0.0009
2376.0,0.0011
2375.0,0.001
2374.0,0.0007
2373.0,0.0003
2372.0,0.0
2371.0,-0.0001
2370.0,-0.0001
2369.0,-0.0002
2368.0,-0.0002
2367.0,0.0003
2366.0,0.0013
2365.0,0.0021
2364.0,0.0018
2363.0,0.0004
2362.0,-0.0009
2361.0,-0.0014
2360.0,-0.0014
2359.0,-0.0016
2358.0,-0.0016
2357.0,-0.0014
2356.0,-0.0013
2355.0,-0.0017
2354.0,-0.002
2353.0,-0.0018
2352.0,-0.0015
2351.0,-0.0013
2350.0,-0.0013
2349.0,-0.0013
2348.0,-0.0012
2347.0,-0.0013
2346.0,-0.0021
2345.0,-0.0034
2344.0,-0.0049
2343.0,-0.006
2342.0,-0.0058
2341.0,-0.0043
2340.0,-0.0028
2339.0,-0.002
2338.0,-0.0019
2337.0,-0.0022
2336.0,-0.003
2335.0,-0.004
2334.0,-0.0045
2333.0,-0.0043
2332.0,-0.0035
2331.0,-0.0028
2330.0,-0.0028
2329.0,-0.0032
2328.0,-0.0035
2327.0,-0.0035
2326.0,-0.003
2325.0,-0.0022
2324.0,-0.0014
2323.0,-0.0008
2322.0,-0.0006
2321.0,-0.0007
2320.0,-0.001
2319.0,-0.0013
2318.0,-0.0014
2317.0,-0.0015
2316.0,-0.0016
2315.0,-0.0018
2314.0,-0.0021
2313.0,-0.0026
2312.0,-0.003
2311.0,-0.0033
2310.0,-0.0034
2309.0,-0.0031
2308.0,-0.0027
2307.0,-0.0022
2306.0,-0.0018
2305.0,-0.0016
2304.0,-0.0016
2303.0,-0.0015
2302.0,-0.0014
2301.0,-0.0012
2300.0,-0.001
2299.0,-0.0008
2298.0,-0.0006
2297.0,-0.0005
2296.0,-0.0003
2295.0,-0.0
2294.0,0.0003
2293.0,0.0006
2292.0,0.0009
2291.0,0.0012
2290.0,0.0014
2289.0,0.0017
2288.0,0.002
2287.0,0.0023
2286.0,0.0024
2285.0,0.0026
2284.0,0.0026
2283.0,0.0027
2282.0,0.0027
2281.0,0.0027
2280.0,0.0027
2279.0,0.0027
2278.0,0.0027
2277.0,0.0027
2276.0,0.0027
2275.0,0.0027
2274.0,0.0027
2273.0,0.0027
2272.0,0.0027
2271.0,0.0027
2270.0,0.0028
2269.0,0.0028
2268.0,0.0029
2267.0,0.0029
2266.0,0.0029
2265.0,0.0029
2264.0,0.0028
2263.0,0.0028
2262.0,0.0028
2261.0,0.0029
2260.0,0.003
2259.0,0.0031
2258.0,0.0031
2257.0,0.0031
2256.0,0.0031
2255.0,0.0031
2254.0,0.0032
2253.0,0.0032
2252.0,0.0032
2251.0,0.0032
2250.0,0.0032
2249.0,0.0033
2248.0,0.0034
2247.0,0.0035
2246.0,0.0035
2245.0,0.0035
2244.0,0.0035
2243.0,0.0035
2242.0,0.0035
2241.0,0.0035
2240.0,0.0035
2239.0,0.0034
2238.0,0.0034
2237.0,0.0034
2236.0,0.0035
2235.0,0.0035
2234.0,0.0036
2233.0,0.0036
2232.0,0.0036
2231.0,0.0036
2230.0,0.0036
2229.0,0.0036
2228.0,0.0037
2227.0,0.0037
2226.0,0.0037
2225.0,0.0037
2224.0,0.0037
2223.0,0.0037
2222.0,0.0037
2221.0,0.0036
2220.0,0.0035
2219.0,0.0035
2218.0,0.0035
2217.0,0.0035
2216.0,0.0035
2215.0,0.0035
2214.0,0.0035
2213.0,0.0035
2212.0,0.0035
2211.0,0.0035
2210.0,0.0036
2209.0,0.0036
2208.0,0.0036
2207.0,0.0036
2206.0,0.0036
2205.0,0.0037
2204.0,0.0037
2203.0,0.0036
2202.0,0.0036
2201.0,0.0035
2200.0,0.0035
2199.0,0.0035
2198.0,0.0036
2197.0,0.0036
2196.0,0.0035
2195.0,0.0035
2194.0,0.0035
2193.0,0.0035
2192.0,0.0035
2191.0,0.0035
2190.0,0.0035
2189.0,0.0035
2188.0,0.0036
2187.0,0.0036
2186.0,0.0035
2185.0,0.0035
2184.0,0.0034
2183.0,0.0034
2182.0,0.0034
2181.0,0.0034
2180.0,0.0034
2179.0,0.0034
2178.0,0.0034
2177.0,0.0034
2176.0,0.0033
2175.0,0.0033
2174.0,0.0033
2173.0,0.0033
2172.0,0.0033
2171.0,0.0032
2170.0,0.0032
2169.0,0.0033
2168.0,0.0033
2167.0,0.0034
2166.0,0.0034
2165.0,0.0034
2164.0,0.0034
2163.0,0.0034
2162.0,0.0033
2161.0,0.0033
2160.0,0.0032
2159.0,0.0032
2158.0,0.0032
2157.0,0.0032
2156.0,0.0032
2155.0,0.0032
2154.0,0.0033
2153.0,0.0033
2152.0,0.0033
2151.0,0.0033
2150.0,0.0032
2149.0,0.0032
2148.0,0.0032
2147.0,0.0032
2146.0,0.0033
2145.0,0.0033
2144.0,0.0033
2143.0,0.0033
2142.0,0.0033
2141.0,0.0033
2140.0,0.0033
2139.0,0.0033
2138.0,0.0032
2137.0,0.0032
2136.0,0.0032
2135.0,0.0032
2134.0,0.0032
2133.0,0.0032
2132.0,0.0032
2131.0,0.0033
2130.0,0.0033
2129.0,0.0033
2128.0,0.0033
2127.0,0.0033
2126.0,0.0033
2125.0,0.0033
2124.0,0.0032
2123.0,0.0032
2122.0,0.0032
2121.0,0.0032
2120.0,0.0032
2119.0,0.0033
2118.0,0.0033
2117.0,0.0033
2116.0,0.0034
2115.0,0.0034
2114.0,0.0035
2113.0,0.0034
2112.0,0.0034
2111.0,0.0034
2110.0,0.0033
2109.0,0.0033
2108.0,0.0033
2107.0,0.0033
2106.0,0.0034
2105.0,0.0034
2104.0,0.0034
2103.0,0.0034
2102.0,0.0034
2101.0,0.0034
2100.0,0.0033
2099.0,0.0032
2098.0,0.0032
2097.0,0.0032
2096.0,0.0032
2095.0,0.0032
2094.0,0.0032
2093.0,0.0032
2092.0,0.0032
2091.0,0.0033
2090.0,0.0032
2089.0,0.0032
2088.0,0.0032
2087.0,0.0032
2086.0,0.0032
2085.0,0.0032
2084.0,0.0031
2083.0,0.0031
2082.0,0.0031
2081.0,0.0031
2080.0,0.0031
2079.0,0.0031
2078.0,0.0031
2077.0,0.0031
2076.0,0.0031
2075.0,0.0031
2074.0,0.0031
2073.0,0.0031
2072.0,0.0031
2071.0,0.0031
2070.0,0.0031
2069.0,0.0031
2068.0,0.003
2067.0,0.003
2066.0,0.003
2065.0,0.0029
2064.0,0.0029
2063.0,0.0029
2062.0,0.0029
2061.0,0.0029
2060.0,0.0029
2059.0,0.0028
2058.0,0.0028
2057.0,0.0028
2056.0,0.0028
2055.0,0.0028
2054.0,0.0028
2053.0,0.0028
2052.0,0.0028
2051.0,0.0028
2050.0,0.0028
2049.0,0.0027
2048.0,0.0027
2047.0,0.0027
2046.0,0.0027
2045.0,0.0027
2044.0,0.0027
2043.0,0.0028
2042.0,0.0028
2041.0,0.0027
2040.0,0.0027
2039.0,0.0026
2038.0,0.0026
2037.0,0.0026
2036.0,0.0025
2035.0,0.0024
2034.0,0.0024
2033.0,0.0024
2032.0,0.0025
2031.0,0.0025
2030.0,0.0025
2029.0,0.0025
2028.0,0.0024
2027.0,0.0025
2026.0,0.0025
2025.0,0.0025
2024.0,0.0025
2023.0,0.0025
2022.0,0.0025
2021.0,0.0024
2020.0,0.0024
2019.0,0.0024
2018.0,0.0024
2017.0,0.0024
2016.0,0.0024
2015.0,0.0024
2014.0,0.0024
2013.0,0.0024
2012.0,0.0024
2011.0,0.0024
2010.0,0.0024
2009.0,0.0024
2008.0,0.0024
2007.0,0.0024
2006.0,0.0024
2005.0,0.0024
2004.0,0.0024
2003.0,0.0023
2002.0,0.0023
2001.0,0.0023
2000.0,0.0023
1999.0,0.0024
1998.0,0.0024
1997.0,0.0024
1996.0,0.0023
1995.0,0.0023
1994.0,0.0022
1993.0,0.0022
1992.0,0.0022
1991.0,0.0023
1990.0,0.0023
1989.0,0.0024
1988.0,0.0024
1987.0,0.0024
1986.0,0.0023
1985.0,0.0023
1984.0,0.0023
1983.0,0.0023
1982.0,0.0023
1981.0,0.0023
1980.0,0.0023
1979.0,0.0023
1978.0,0.0022
1977.0,0.0022
1976.0,0.0022
1975.0,0.0022
1974.0,0.0023
1973.0,0.0023
1972.0,0.0023
1971.0,0.0023
1970.0,0.0023
1969.0,0.0023
1968.0,0.0023
1967.0,0.0023
1966.0,0.0024
1965.0,0.0024
1964.0,0.0024
1963.0,0.0024
1962.0,0.0025
1961.0,0.0025
1960.0,0.0026
1959.0,0.0026
1958.0,0.0025
1957.0,0.0025
1956.0,0.0025
1955.0,0.0025
1954.0,0.0025
1953.0,0.0025
1952.0,0.0025
1951.0,0.0025
1950.0,0.0025
1949.0,0.0025
1948.0,0.0025
1947.0,0.0025
1946.0,0.0025
1945.0,0.0025
1944.0,0.0025
1943.0,0.0025
1942.0,0.0024
1941.0,0.0023
1940.0,0.0023
1939.0,0.0023
1938.0,0.0023
1937.0,0.0022
1936.0,0.0022
1935.0,0.0022
1934.0,0.0021
1933.0,0.0021
1932.0,0.002
1931.0,0.002
1930.0,0.002
1929.0,0.0019
1928.0,0.0019
1927.0,0.0018
1926.0,0.0018
1925.0,0.0018
1924.0,0.0018
1923.0,0.0018
1922.0,0.0018
1921.0,0.0017
1920.0,0.0016
1919.0,0.0015
1918.0,0.0014
1917.0,0.0014
1916.0,0.0014
1915.0,0.0014
1914.0,0.0015
1913.0,0.0015
1912.0,0.0015
1911.0,0.0014
1910.0,0.0013
1909.0,0.0013
1908.0,0.0013
1907.0,0.0013
1906.0,0.0013
1905.0,0.0012
1904.0,0.0012
1903.0,0.0011
1902.0,0.0011
1901.0,0.001
1900.0,0.001
1899.0,0.001
1898.0,0.001
1897.0,0.001
1896.0,0.0009
1895.0,0.0009
1894.0,0.0009
1893.0,0.0009
1892.0,0.0009
1891.0,0.0009
1890.0,0.0009
1889.0,0.0009
1888.0,0.0008
1887.0,0.0008
1886.0,0.0007
1885.0,0.0007
1884.0,0.0006
1883.0,0.0006
1882.0,0.0006
1881.0,0.0005
1880.0,0.0005
1879.0,0.0004
1878.0,0.0004
1877.0,0.0004
1876.0,0.0004
1875.0,0.0003
1874.0,0.0003
1873.0,0.0003
1872.0,0.0003
1871.0,0.0003
1870.0,0.0003
1869.0,0.0002
1868.0,0.0002
1867.0,0.0002
1866.0,0.0002
1865.0,0.0001
1864.0,0.0
1863.0,-0.0
1862.0,-0.0001
1861.0,-0.0001
1860.0,-0.0002
1859.0,-0.0002
1858.0,-0.0002
1857.0,-0.0002
1856.0,-0.0001
1855.0,-0.0001
1854.0,-0.0001
1853.0,-0.0001
1852.0,-0.0001
1851.0,-0.0001
1850.0,-0.0001
1849.0,-0.0002
1848.0,-0.0002
1847.0,-0.0003
1846.0,-0.0004
1845.0,-0.0005
1844.0,-0.0006
1843.0,-0.0006
1842.0,-0.0004
1841.0,-0.0003
1840.0,-0.0003
1839.0,-0.0003
1838.0,-0.0003
1837.0,-0.0004
1836.0,-0.0004
1835.0,-0.0004
1834.0,-0.0004
1833.0,-0.0004
1832.0,-0.0004
1831.0,-0.0004
1830.0,-0.0004
1829.0,-0.0004
1828.0,-0.0003
1827.0,-0.0003
1826.0,-0.0004
1825.0,-0.0005
1824.0,-0.0006
1823.0,-0.0006
1822.0,-0.0007
1821.0,-0.0007
1820.0,-0.0007
1819.0,-0.0007
1818.0,-0.0008
1817.0,-0.0008
1816.0,-0.0009
1815.0,-0.0009
1814.0,-0.0009
1813.0,-0.0009
1812.0,-0.0009
1811.0,-0.001
1810.0,-0.0011
1809.0,-0.0012
1808.0,-0.0013
1807.0,-0.0014
1806.0,-0.0014
1805.0,-0.0014
1804.0,-0.0014
1803.0,-0.0015
1802.0,-0.0015
1801.0,-0.0016
1800.0,-0.0017
1799.0,-0.0018
1798.0,-0.002
1797.0,-0.0022
1796.0,-0.0023
1795.0,-0.0023
1794.0,-0.0023
1793.0,-0.0024
1792.0,-0.0025
1791.0,-0.0024
1790.0,-0.0024
1789.0,-0.0024
1788.0,-0.0025
1787.0,-0.0026
1786.0,-0.0027
1785.0,-0.0028
1784.0,-0.0028
1783.0,-0.0028
1782.0,-0.0028
1781.0,-0.0028
1780.0,-0.0029
1779.0,-0.0029
1778.0,-0.003
1777.0,-0.0031
1776.0,-0.0032
1775.0,-0.0032
1774.0,-0.0033
1773.0,-0.0035
1772.0,-0.0036
1771.0,-0.0035
1770.0,-0.0036
1769.0,-0.0037
1768.0,-0.0037
1767.0,-0.0037
1766.0,-0.0036
1765.0,-0.0035
1764.0,-0.0035
1763.0,-0.0035
1762.0,-0.0034
1761.0,-0.0034
1760.0,-0.0034
1759.0,-0.0032
1758.0,-0.0031
1757.0,-0.003
1756.0,-0.0027
1755.0,-0.0024
1754.0,-0.0021
1753.0,-0.0018
1752.0,-0.0014
1751.0,-0.0007
1750.0,0.0001
1749.0,0.001
1748.0,0.0021
1747.0,0.0033
1746.0,0.0046
1745.0,0.0062
1744.0,0.008
1743.0,0.01
1742.0,0.0121
1741.0,0.0144
1740.0,0.0171
1739.0,0.02
1738.0,0.0224
1737.0,0.0243
1736.0,0.0261
1735.0,0.0291
1734.0,0.0332
1733.0,0.037
1732.0,0.0398
1731.0,0.0425
1730.0,0.0453
1729.0,0.0481
1728.0,0.0506
1727.0,0.0529
1726.0,0.0551
1725.0,0.0574
1724.0,0.0597
1723.0,0.0619
1722.0,0.064
1721.0,0.0658
1720.0,0.0674
1719.0,0.0691
1718.0,0.0711
1717.0,0.0731
1716.0,0.0747
1715.0,0.0759
1714.0,0.0767
1713.0,0.0768
1712.0,0.076
1711.0,0.0746
1710.0,0.0726
1709.0,0.0703
1708.0,0.0676
1707.0,0.0643
1706.0,0.0604
1705.0,0.057
1704.0,0.0545
1703.0,0.0526
1702.0,0.0504
1701.0,0.0471
1700.0,0.0437
1699.0,0.0417
1698.0,0.0404
1697.0,0.039
1696.0,0.0373
1695.0,0.0359
1694.0,0.0351
1693.0,0.0344
1692.0,0.0337
1691.0,0.0329
1690.0,0.0321
1689.0,0.0315
1688.0,0.0311
1687.0,0.0308
1686.0,0.0304
1685.0,0.0298
1684.0,0.0293
1683.0,0.0289
1682.0,0.0285
1681.0,0.028
1680.0,0.0275
1679.0,0.027
1678.0,0.0264
1677.0,0.0259
1676.0,0.0253
1675.0,0.0247
1674.0,0.0242
1673.0,0.0239
1672.0,0.0236
1671.0,0.023
1670.0,0.0224
1669.0,0.0219
1668.0,0.0215
1667.0,0.0212
1666.0,0.0208
1665.0,0.0204
1664.0,0.0198
1663.0,0.0193
1662.0,0.0188
1661.0,0.0185
1660.0,0.0182
1659.0,0.0179
1658.0,0.0177
1657.0,0.0174
1656.0,0.0172
1655.0,0.0169
1654.0,0.0164
1653.0,0.0162
1652.0,0.0161
1651.0,0.0161
1650.0,0.016
1649.0,0.0158
1648.0,0.0153
1647.0,0.0148
1646.0,0.0146
1645.0,0.0145
1644.0,0.0143
1643.0,0.0142
1642.0,0.014
1641.0,0.014
1640.0,0.0139
1639.0,0.0139
1638.0,0.0137
1637.0,0.0134
1636.0,0.0133
1635.0,0.0133
1634.0,0.0133
1633.0,0.0132
1632.0,0.0131
1631.0,0.0131
1630.0,0.013
1629.0,0.0131
1628.0,0.0132
1627.0,0.0133
1626.0,0.0133
1625.0,0.0134
1624.0,0.0134
1623.0,0.0135
1622.0,0.0136
1621.0,0.0137
1620.0,0.0137
1619.0,0.0136
1618.0,0.0135
1617.0,0.0134
1616.0,0.0135
1615.0,0.0134
1614.0,0.0132
1613.0,0.013
1612.0,0.0127
1611.0,0.0124
1610.0,0.0122
1609.0,0.012
1608.0,0.0118
1607.0,0.0115
1606.0,0.0113
1605.0,0.011
1604.0,0.0107
1603.0,0.0104
1602.0,0.0102
1601.0,0.01
1600.0,0.0098
1599.0,0.0096
1598.0,0.0094
1597.0,0.0092
1596.0,0.0091
1595.0,0.0089
1594.0,0.0088
1593.0,0.0087
1592.0,0.0086
1591.0,0.0085
1590.0,0.0084
1589.0,0.0084
1588.0,0.0083
1587.0,0.0083
1586.0,0.0083
1585.0,0.0083
1584.0,0.0085
1583.0,0.0088
1582.0,0.0091
1581.0,0.0096
1580.0,0.0099
1579.0,0.0102
1578.0,0.0102
1577.0,0.0101
1576.0,0.01
1575.0,0.0099
1574.0,0.0098
1573.0,0.0096
1572.0,0.0094
1571.0,0.0092
1570.0,0.0088
1569.0,0.0085
1568.0,0.0083
1567.0,0.0081
1566.0,0.0079
1565.0,0.0078
1564.0,0.0076
1563.0,0.0075
1562.0,0.0074
1561.0,0.0074
1560.0,0.0072
1559.0,0.007
1558.0,0.0069
1557.0,0.0067
1556.0,0.0064
1555.0,0.0062
1554.0,0.0062
1553.0,0.0062
1552.0,0.0063
1551.0,0.0063
1550.0,0.0062
1549.0,0.0061
1548.0,0.0059
1547.0,0.0058
1546.0,0.0056
1545.0,0.0054
1544.0,0.0052
1543.0,0.0051
1542.0,0.0049
1541.0,0.0049
1540.0,0.0051
1539.0,0.0053
1538.0,0.0051
1537.0,0.005
1536.0,0.005
1535.0,0.005
1534.0,0.005
1533.0,0.005
1532.0,0.005
1531.0,0.005
1530.0,0.005
1529.0,0.0049
1528.0,0.0049
1527.0,0.0048
1526.0,0.0047
1525.0,0.0046
1524.0,0.0046
1523.0,0.0045
1522.0,0.0044
1521.0,0.0044
1520.0,0.0044
1519.0,0.0043
1518.0,0.0041
1517.0,0.0038
1516.0,0.0037
1515.0,0.0035
1514.0,0.0034
1513.0,0.0034
1512.0,0.0036
1511.0,0.0039
1510.0,0.0045
1509.0,0.0052
1508.0,0.0067
1507.0,0.0094
1506.0,0.0113
1505.0,0.0115
1504.0,0.011
1503.0,0.0102
1502.0,0.0092
1501.0,0.0082
1500.0,0.0071
1499.0,0.0062
1498.0,0.0053
1497.0,0.0046
1496.0,0.0042
1495.0,0.0039
1494.0,0.0036
1493.0,0.0035
1492.0,0.0033
1491.0,0.0031
1490.0,0.003
1489.0,0.0031
1488.0,0.0033
1487.0,0.0034
1486.0,0.0034
1485.0,0.0036
1484.0,0.0038
1483.0,0.0041
1482.0,0.0044
1481.0,0.0047
1480.0,0.005
1479.0,0.0053
1478.0,0.0056
1477.0,0.0059
1476.0,0.0062
1475.0,0.0063
1474.0,0.0063
1473.0,0.0064
1472.0,0.0067
1471.0,0.0067
1470.0,0.0066
1469.0,0.0065
1468.0,0.0065
1467.0,0.0064
1466.0,0.0064
1465.0,0.0064
1464.0,0.0066
1463.0,0.0068
1462.0,0.007
1461.0,0.0072
1460.0,0.0074
1459.0,0.0074
1458.0,0.0072
1457.0,0.0074
1456.0,0.0078
1455.0,0.008
1454.0,0.0081
1453.0,0.008
1452.0,0.0079
1451.0,0.0077
1450.0,0.0075
1449.0,0.0073
1448.0,0.0071
1447.0,0.007
1446.0,0.0068
1445.0,0.0067
1444.0,0.0065
1443.0,0.0063
1442.0,0.0062
1441.0,0.0061
1440.0,0.006
1439.0,0.0058
1438.0,0.0054
1437.0,0.005
1436.0,0.0046
1435.0,0.0044
1434.0,0.0041
1433.0,0.0038
1432.0,0.0033
1431.0,0.0029
1430.0,0.0024
1429.0,0.002
1428.0,0.0017
1427.0,0.0015
1426.0,0.0013
1425.0,0.0012
1424.0,0.0011
1423.0,0.0011
1422.0,0.0011
1421.0,0.0012
1420.0,0.0017
1419.0,0.0026
1418.0,0.0039
1417.0,0.0054
1416.0,0.0071
1415.0,0.0093
1414.0,0.0119
1413.0,0.0149
1412.0,0.0182
1411.0,0.0213
1410.0,0.0238
1409.0,0.0254
1408.0,0.026
1407.0,0.0256
1406.0,0.0241
1405.0,0.0221
1404.0,0.0199
1403.0,0.018
1402.0,0.0164
1401.0,0.0149
1400.0,0.0134
1399.0,0.012
1398.0,0.0109
1397.0,0.01
1396.0,0.0091
1395.0,0.0083
1394.0,0.0076
1393.0,0.0071
1392.0,0.0067
1391.0,0.0064
1390.0,0.0062
1389.0,0.0059
1388.0,0.0057
1387.0,0.0057
1386.0,0.0057
1385.0,0.0057
1384.0,0.0057
1383.0,0.0057
1382.0,0.0057
1381.0,0.0058
1380.0,0.0058
1379.0,0.006
1378.0,0.0061
1377.0,0.0063
1376.0,0.0064
1375.0,0.0066
1374.0,0.0068
1373.0,0.007
1372.0,0.007
1371.0,0.0069
1370.0,0.0067
1369.0,0.0064
1368.0,0.0061
1367.0,0.0057
1366.0,0.0052
1365.0,0.0048
1364.0,0.0042
1363.0,0.0036
1362.0,0.003
1361.0,0.0026
1360.0,0.0023
1359.0,0.0021
1358.0,0.002
1357.0,0.002
1356.0,0.0021
1355.0,0.0023
1354.0,0.0026
1353.0,0.003
1352.0,0.0036
1351.0,0.0043
1350.0,0.0052
1349.0,0.0063
1348.0,0.0078
1347.0,0.0097
1346.0,0.0118
1345.0,0.0144
1344.0,0.0172
1343.0,0.0201
1342.0,0.023
1341.0,0.0259
1340.0,0.0284
1339.0,0.0301
1338.0,0.0306
1337.0,0.03
1336.0,0.0283
1335.0,0.0259
1334.0,0.0228
1333.0,0.0195
1332.0,0.0162
1331.0,0.0131
1330.0,0.0105
1329.0,0.0085
1328.0,0.007
1327.0,0.0058
1326.0,0.0051
1325.0,0.0046
1324.0,0.0043
1323.0,0.0042
1322.0,0.0043
1321.0,0.0044
1320.0,0.0046
1319.0,0.0049
1318.0,0.0052
1317.0,0.0055
1316.0,0.0059
1315.0,0.0063
1314.0,0.0068
1313.0,0.0073
1312.0,0.0079
1311.0,0.0086
1310.0,0.0092
1309.0,0.0099
1308.0,0.0106
1307.0,0.0114
1306.0,0.0121
1305.0,0.0128
1304.0,0.0135
1303.0,0.0143
1302.0,0.0152
1301.0,0.0163
1300.0,0.0175
1299.0,0.0189
1298.0,0.0203
1297.0,0.0218
1296.0,0.0234
1295.0,0.025
1294.0,0.0266
1293.0,0.0281
1292.0,0.0296
1291.0,0.031
1290.0,0.0324
1289.0,0.0337
1288.0,0.0351
1287.0,0.0363
1286.0,0.0375
1285.0,0.0387
1284.0,0.0398
1283.0,0.0408
1282.0,0.0418
1281.0,0.0429
1280.0,0.044
1279.0,0.0452
1278.0,0.0465
1277.0,0.048
1276.0,0.0496
1275.0,0.0514
1274.0,0.0535
1273.0,0.0558
1272.0,0.0583
1271.0,0.061
1270.0,0.0638
1269.0,0.0665
1268.0,0.0692
1267.0,0.0718
1266.0,0.0741
1265.0,0.0763
1264.0,0.0782
1263.0,0.0799
1262.0,0.0812
1261.0,0.0823
1260.0,0.0831
1259.0,0.0837
1258.0,0.0841
1257.0,0.0845
1256.0,0.0851
1255.0,0.0859
1254.0,0.0869
1253.0,0.088
1252.0,0.0895
1251.0,0.0911
1250.0,0.093
1249.0,0.095
1248.0,0.0972
1247.0,0.0993
1246.0,0.1015
1245.0,0.1038
1244.0,0.1061
1243.0,0.1083
1242.0,0.1103
1241.0,0.112
1240.0,0.1135
1239.0,0.1144
1238.0,0.1149
1237.0,0.115
1236.0,0.1146
1235.0,0.1139
1234.0,0.1127
1233.0,0.1113
1232.0,0.1097
1231.0,0.1079
1230.0,0.1059
1229.0,0.1038
1228.0,0.1018
1227.0,0.0996
1226.0,0.0973
1225.0,0.095
1224.0,0.0928
1223.0,0.0905
1222.0,0.0881
1221.0,0.0858
1220.0,0.0836
1219.0,0.0813
1218.0,0.079
1217.0,0.0767
1216.0,0.0745
1215.0,0.0724
1214.0,0.0704
1213.0,0.0685
1212.0,0.0667
1211.0,0.065
1210.0,0.0633
1209.0,0.0616
1208.0,0.0601
1207.0,0.0587
1206.0,0.0572
1205.0,0.0559
1204.0,0.0545
1203.0,0.0532
1202.0,0.0519
1201.0,0.0506
1200.0,0.0495
1199.0,0.0483
1198.0,0.0471
1197.0,0.046
1196.0,0.045
1195.0,0.0439
1194.0,0.0429
1193.0,0.0418
1192.0,0.0408
1191.0,0.0398
1190.0,0.0389
1189.0,0.038
1188.0,0.0372
1187.0,0.0365
1186.0,0.0359
1185.0,0.0353
1184.0,0.0349
1183.0,0.0345
1182.0,0.0342
1181.0,0.0341
1180.0,0.0341
1179.0,0.0342
1178.0,0.0344
1177.0,0.0345
1176.0,0.0345
1175.0,0.0345
1174.0,0.0344
1173.0,0.0342
1172.0,0.0338
1171.0,0.0332
1170.0,0.0325
1169.0,0.0317
1168.0,0.0309
1167.0,0.0301
1166.0,0.0293
1165.0,0.0287
1164.0,0.0282
1163.0,0.0278
1162.0,0.0275
1161.0,0.0272
1160.0,0.027
1159.0,0.0269
1158.0,0.0268
1157.0,0.0267
1156.0,0.0267
1155.0,0.0268
1154.0,0.0269
1153.0,0.0272
1152.0,0.0275
1151.0,0.0279
1150.0,0.0285
1149.0,0.0292
1148.0,0.0299
1147.0,0.0307
1146.0,0.0316
1145.0,0.0325
1144.0,0.0336
1143.0,0.0348
1142.0,0.0361
1141.0,0.0375
1140.0,0.039
1139.0,0.0406
1138.0,0.0424
1137.0,0.0443
1136.0,0.0463
1135.0,0.0486
1134.0,0.051
1133.0,0.0537
1132.0,0.0566
1131.0,0.0596
1130.0,0.0627
1129.0,0.066
1128.0,0.0692
1127.0,0.0724
1126.0,0.0755
1125.0,0.0787
1124.0,0.0818
1123.0,0.0847
1122.0,0.0873
1121.0,0.0898
1120.0,0.0919
1119.0,0.0937
1118.0,0.095
1117.0,0.0958
1116.0,0.096
1115.0,0.0958
1114.0,0.0953
1113.0,0.0948
1112.0,0.0948
1111.0,0.0954
1110.0,0.0966
1109.0,0.0985
1108.0,0.101
1107.0,0.1041
1106.0,0.1073
1105.0,0.1107
1104.0,0.114
1103.0,0.1172
1102.0,0.1201
1101.0,0.1228
1100.0,0.1253
1099.0,0.1275
1098.0,0.1293
1097.0,0.1308
1096.0,0.1321
1095.0,0.1329
1094.0,0.1333
1093.0,0.1332
1092.0,0.1329
1091.0,0.1323
1090.0,0.1314
1089.0,0.1305
1088.0,0.1295
1087.0,0.1284
1086.0,0.1272
1085.0,0.1261
1084.0,0.1248
1083.0,0.1234
1082.0,0.1219
1081.0,0.1201
1080.0,0.1181
1079.0,0.1158
1078.0,0.1133
1077.0,0.1107
1076.0,0.1081
1075.0,0.1053
1074.0,0.1024
1073.0,0.0996
1072.0,0.097
1071.0,0.0944
1070.0,0.0919
1069.0,0.0895
1068.0,0.0872
1067.0,0.085
1066.0,0.083
1065.0,0.0811
1064.0,0.0794
1063.0,0.0777
1062.0,0.0761
1061.0,0.0745
1060.0,0.073
1059.0,0.0716
1058.0,0.0703
1057.0,0.0692
1056.0,0.0683
1055.0,0.0675
1054.0,0.0667
1053.0,0.0661
1052.0,0.0655
1051.0,0.065
1050.0,0.0647
1049.0,0.0644
1048.0,0.0642
1047.0,0.064
1046.0,0.0638
1045.0,0.0635
1044.0,0.0633
1043.0,0.0629
1042.0,0.0624
1041.0,0.0617
1040.0,0.061
1039.0,0.0602
1038.0,0.0593
1037.0,0.0584
1036.0,0.0573
1035.0,0.0561
1034.0,0.0547
1033.0,0.0533
1032.0,0.052
1031.0,0.0507
1030.0,0.0494
1029.0,0.0484
1028.0,0.0479
1027.0,0.0482
1026.0,0.0497
1025.0,0.0528
1024.0,0.0574
1023.0,0.063
1022.0,0.0695
1021.0,0.0765
1020.0,0.084
1019.0,0.0913
1018.0,0.0977
1017.0,0.1021
1016.0,0.104
1015.0,0.1032
1014.0,0.1002
1013.0,0.0959
1012.0,0.0912
1011.0,0.0865
1010.0,0.0823
1009.0,0.0787
1008.0,0.0758
1007.0,0.0733
1006.0,0.0712
1005.0,0.0693
1004.0,0.0677
1003.0,0.0663
1002.0,0.0649
1001.0,0.0636
1000.0,0.0625
999.0,0.0615
998.0,0.0605
997.0,0.0595
996.0,0.0586
995.0,0.0578
994.0,0.057
993.0,0.0563
992.0,0.0558
991.0,0.0552
990.0,0.0547
989.0,0.0543
988.0,0.0541
987.0,0.0539
986.0,0.0537
985.0,0.0535
984.0,0.0534
983.0,0.0534
982.0,0.0538
981.0,0.0542
980.0,0.0547
979.0,0.0553
978.0,0.0561
977.0,0.0571
976.0,0.0581
975.0,0.0591
974.0,0.0598
973.0,0.0604
972.0,0.061
971.0,0.0615
970.0,0.0617
969.0,0.0618
968.0,0.0616
967.0,0.0611
966.0,0.0605
965.0,0.0598
964.0,0.059
963.0,0.0583
962.0,0.0575
961.0,0.0568
960.0,0.0561
959.0,0.0554
958.0,0.0548
957.0,0.0541
956.0,0.0535
955.0,0.0528
954.0,0.0521
953.0,0.0513
952.0,0.0507
951.0,0.0503
950.0,0.0499
949.0,0.0494
948.0,0.0488
947.0,0.0482
946.0,0.0476
945.0,0.0473
944.0,0.0471
943.0,0.047
942.0,0.0469
941.0,0.0466
940.0,0.0464
939.0,0.0462
938.0,0.0459
937.0,0.0456
936.0,0.0452
935.0,0.0449
934.0,0.0447
933.0,0.0445
932.0,0.0444
931.0,0.0443
930.0,0.044
929.0,0.0437
928.0,0.0434
927.0,0.043
926.0,0.0425
925.0,0.042
924.0,0.0415
923.0,0.041
922.0,0.0408
921.0,0.0406
920.0,0.0405
919.0,0.0401
918.0,0.0394
917.0,0.0387
916.0,0.0382
915.0,0.038
914.0,0.0382
913.0,0.0389
912.0,0.04
911.0,0.0409
910.0,0.0413
909.0,0.0411
908.0,0.0407
907.0,0.0407
906.0,0.0413
905.0,0.0422
904.0,0.0429
903.0,0.0431
902.0,0.0428
901.0,0.0424
900.0,0.0421
899.0,0.0418
898.0,0.0415
897.0,0.0413
896.0,0.0414
895.0,0.0414
894.0,0.0412
893.0,0.0407
892.0,0.04
891.0,0.0396
890.0,0.0396
889.0,0.0398
888.0,0.0399
887.0,0.0398
886.0,0.0399
885.0,0.0406
884.0,0.042
883.0,0.0437
882.0,0.0457
881.0,0.0479
880.0,0.0507
879.0,0.054
878.0,0.0574
877.0,0.0608
876.0,0.0643
875.0,0.068
874.0,0.0716
873.0,0.0742
872.0,0.0747
871.0,0.0729
870.0,0.0695
869.0,0.0657
868.0,0.0623
867.0,0.0596
866.0,0.0575
865.0,0.0559
864.0,0.0547
863.0,0.0538
862.0,0.0531
861.0,0.0526
860.0,0.0522
859.0,0.052
858.0,0.0519
857.0,0.052
856.0,0.0521
855.0,0.0524
854.0,0.0528
853.0,0.0532
852.0,0.0537
851.0,0.0542
850.0,0.0549
849.0,0.0556
848.0,0.0563
847.0,0.0567
846.0,0.0568
845.0,0.0568
844.0,0.0566
843.0,0.0564
842.0,0.056
841.0,0.0555
840.0,0.0548
839.0,0.0541
838.0,0.0533
837.0,0.0526
836.0,0.052
835.0,0.0515
834.0,0.0508
833.0,0.0501
832.0,0.0493
831.0,0.0486
830.0,0.048
829.0,0.0475
828.0,0.0472
827.0,0.0468
826.0,0.0462
825.0,0.0455
824.0,0.0451
823.0,0.0448
822.0,0.0445
821.0,0.0442
820.0,0.0437
819.0,0.0432
818.0,0.0429
817.0,0.0427
816.0,0.0427
815.0,0.0426
814.0,0.0424
813.0,0.0422
812.0,0.0422
811.0,0.0421
810.0,0.0418
809.0,0.0415
808.0,0.0413
807.0,0.0411
806.0,0.0409
805.0,0.0407
804.0,0.0406
803.0,0.0403
802.0,0.0399
801.0,0.0394
800.0,0.039
799.0,0.039
798.0,0.0394
797.0,0.0404
796.0,0.0416
795.0,0.0429
794.0,0.044
793.0,0.0447
792.0,0.0449
791.0,0.0444
790.0,0.0436
789.0,0.0426
788.0,0.0418
787.0,0.041
786.0,0.0402
785.0,0.0394
784.0,0.0386
783.0,0.0379
782.0,0.0373
781.0,0.037
780.0,0.0367
779.0,0.0362
778.0,0.0354
777.0,0.0347
776.0,0.0341
775.0,0.0336
774.0,0.0332
773.0,0.0329
772.0,0.0324
771.0,0.0318
770.0,0.0312
769.0,0.0309
768.0,0.0306
767.0,0.0303
766.0,0.0298
765.0,0.0292
764.0,0.0287
763.0,0.0283
762.0,0.0279
761.0,0.0273
760.0,0.0266
759.0,0.0259
758.0,0.0253
757.0,0.0248
756.0,0.0245
755.0,0.0242
754.0,0.0238
753.0,0.0235
752.0,0.0232
751.0,0.0228
750.0,0.0224
749.0,0.0221
748.0,0.0221
747.0,0.0221
746.0,0.0222
745.0,0.0226
744.0,0.0232
743.0,0.0242
742.0,0.026
741.0,0.0292
740.0,0.0342
739.0,0.0411
738.0,0.0497
737.0,0.06
736.0,0.0717
735.0,0.0845
734.0,0.0981
733.0,0.1123
732.0,0.1269
731.0,0.1418
730.0,0.1571
729.0,0.1727
728.0,0.1882
727.0,0.2022
726.0,0.2128
725.0,0.219
724.0,0.22
723.0,0.216
722.0,0.2078
721.0,0.1971
720.0,0.1857
719.0,0.175
718.0,0.1654
717.0,0.1567
716.0,0.1487
715.0,0.1413
714.0,0.1346
713.0,0.129
712.0,0.1243
711.0,0.1203
710.0,0.1166
709.0,0.1132
708.0,0.1098
707.0,0.1064
706.0,0.1031
705.0,0.1002
704.0,0.0981
703.0,0.0963
702.0,0.0943
701.0,0.0916
700.0,0.0882
699.0,0.0846
698.0,0.0818
697.0,0.0798
696.0,0.0782
695.0,0.0765
694.0,0.0747
693.0,0.0735
692.0,0.0728
691.0,0.072
690.0,0.0708
689.0,0.0693
688.0,0.068
687.0,0.0673
686.0,0.0669
685.0,0.0668
684.0,0.0669
683.0,0.0672
682.0,0.0678
681.0,0.0685
680.0,0.0688
679.0,0.0683
678.0,0.0675
677.0,0.0671
676.0,0.0671
675.0,0.0671
674.0,0.0665
673.0,0.0657
672.0,0.0652
671.0,0.0658
670.0,0.0682
669.0,0.0733
668.0,0.0792
667.0,0.0781
666.0,0.0713
665.0,0.0647
664.0,0.0608
663.0,0.0592
662.0,0.0589
661.0,0.059
660.0,0.0589
659.0,0.0584
658.0,0.0577
657.0,0.057
656.0,0.0563
655.0,0.0554
654.0,0.0544
653.0,0.0537
652.0,0.0534
651.0,0.0532
650.0,0.0532
649.0,0.0538
648.0,0.0547
647.0,0.0552
646.0,0.0549
645.0,0.0541
644.0,0.0535
643.0,0.0536
642.0,0.054
641.0,0.0544
640.0,0.0545
639.0,0.0544
638.0,0.0544
637.0,0.0547
636.0,0.0553
635.0,0.0556
634.0,0.0557
633.0,0.0559
632.0,0.056
631.0,0.0559
630.0,0.0558
629.0,0.0559
628.0,0.0565
627.0,0.057
626.0,0.0572
625.0,0.0572
624.0,0.0574
623.0,0.0577
622.0,0.0577
621.0,0.0576
620.0,0.0572
619.0,0.0566
618.0,0.056
617.0,0.0557
616.0,0.0558
615.0,0.0561
614.0,0.0566
613.0,0.0575
612.0,0.0588
611.0,0.0599
610.0,0.0605
609.0,0.0608
608.0,0.0608
607.0,0.0604
606.0,0.0596
605.0,0.059
604.0,0.059
603.0,0.0598
602.0,0.0607
601.0,0.0614
600.0,0.0613
