cm-1,Intensity
-123.878,1859.7
-120.866,1860.2
-117.855,1860.15
-114.845,1860.15
-111.836,1859.95
-108.828,1860.45
-105.821,1859.55
-102.815,1861.45
-99.8104,1860.75
-96.8065,1858.95
-93.8036,1859.85
-90.8016,1859.95
-87.8007,1858.85
-84.8008,1859.85
-81.8019,1860.55
-78.8039,1860.6
-75.807,1861.1
-72.8111,1858.75
-69.8161,1861.55
-66.8222,1860.15
-63.8293,1861.7
-60.8373,1860.85
-57.8464,1859.8
-54.8564,1858.95
-51.8675,1858.55
-48.8795,1862.35
-45.8926,1859.85
-42.9066,1860.55
-39.9216,1860.2
-36.9377,1862.75
-33.9547,1861.6
-30.9727,1862.85
-27.9917,1864.15
-25.0117,1867.05
-22.0326,1864.05
-19.0546,1870.5
-16.0776,1888.4
-13.1015,1963.9
-10.1265,2252.05
-7.1524,2859.1
-4.17932,3623.1
-1.20723,3856.7
1.76388,3116.05
4.734,2433.6
7.70313,1995.15
10.6713,1876.4
13.6384,1865.05
16.6046,1861.65
19.5698,1865.05
22.534,1862.65
25.4972,1866.1
28.4595,1864.85
31.4207,1865.45
34.381,1865.8
37.3403,1867.35
40.2986,1870.8
43.256,1880.85
46.2123,1895.65
49.1677,1965.55
52.1221,2153.8
55.0755,2517.25
58.0279,3047.25
60.9794,3581.45
63.9299,3981.2
66.8794,4232.95
69.8279,4327.85
72.7754,4389.15
75.722,4336.3
78.6676,4367.8
81.6122,4378.4
84.5559,4323.35
87.4985,4345.7
90.4402,4387.3
93.381,4450.05
96.3207,4426.6
99.2595,4348.9
102.197,4347.0
105.134,4398.45
108.07,4382.0
111.005,4484.35
113.939,4548.35
116.872,4532.85
119.804,4495.4
122.735,4512.65
125.665,4515.0
128.594,4461.35
131.522,4411.4
134.449,4439.75
137.375,4397.95
140.301,4403.7
143.225,4417.25
146.148,4385.9
149.07,4406.1
151.992,4484.95
154.912,4585.5
157.832,4563.75
160.75,4516.15
163.668,4551.95
166.584,4523.35
169.5,4545.0
172.414,4484.6
175.328,4495.6
178.241,4544.35
181.153,4616.8
184.063,4735.55
186.973,4643.5
189.882,4665.2
192.79,4645.35
195.697,4659.8
198.603,4709.8
201.508,4669.55
204.412,4628.3
207.315,4667.4
210.217,4691.3
213.119,4744.9
216.019,4734.95
218.918,4789.4
221.816,4794.25
224.714,4793.7
227.61,4774.25
230.506,4756.85
233.4,4737.3
236.294,4704.85
239.187,4709.7
242.078,4814.65
244.969,4934.85
247.859,4936.1
250.748,4925.3
253.636,4934.5
256.523,4882.6
259.409,4883.5
262.294,4929.45
265.178,4942.55
268.061,4961.25
270.943,4958.5
273.824,4971.4
276.705,4947.0
279.584,4986.55
282.463,5024.7
285.34,5090.45
288.217,5068.8
291.092,5032.9
293.967,5081.95
296.841,5116.15
299.713,5104.0
302.585,5062.55
305.456,5091.55
308.326,5120.6
311.195,5091.35
314.063,5084.05
316.93,5095.35
319.797,5071.05
322.662,5037.2
325.526,5097.3
328.389,5217.85
331.252,5210.65
334.113,5139.0
336.974,5166.3
339.834,5143.7
342.692,5205.6
345.55,5299.25
348.407,5379.35
351.263,5272.6
354.118,5223.85
356.972,5246.4
359.825,5227.6
362.677,5248.7
365.529,5314.35
368.379,5392.9
371.228,5355.9
374.077,5331.6
376.924,5339.55
379.771,5306.95
382.616,5346.45
385.461,5479.9
388.305,5521.3
391.148,5469.15
393.99,5371.75
396.831,5321.85
399.671,5401.15
402.51,5457.35
405.348,5451.85
408.186,5457.6
411.022,5454.1
413.858,5510.0
416.692,5590.75
419.526,5576.2
422.359,5551.45
425.19,5523.85
428.021,5559.7
430.851,5554.05
433.68,5587.15
436.508,5606.0
439.335,5537.1
442.162,5522.75
444.987,5518.2
447.811,5539.5
450.635,5618.5
453.458,5639.4
456.279,5650.1
459.1,5637.25
461.92,5759.75
464.739,5682.15
467.557,5655.85
470.374,5697.55
473.19,5704.55
476.005,5794.75
478.82,5770.9
481.633,5667.6
484.445,5703.8
487.257,5796.25
490.068,5817.65
492.878,5886.0
495.686,5800.05
498.494,5739.15
501.301,5759.85
504.107,5761.75
506.913,5890.2
509.717,5914.55
512.52,5874.55
515.323,5798.8
518.124,5829.6
520.925,5860.05
523.725,5825.15
526.524,5787.9
529.322,5833.35
532.119,5939.9
534.915,6032.3
537.71,6001.95
540.504,5909.15
543.298,5882.65
546.09,5961.0
548.882,5997.45
551.673,5981.7
554.462,6054.8
557.251,6134.1
560.039,6074.9
562.826,6060.9
565.613,5996.55
568.398,6093.1
571.182,6073.4
573.966,6028.75
576.748,6013.65
579.53,6003.4
582.311,6171.0
585.091,6257.6
587.87,6216.45
590.648,6157.05
593.425,6026.15
596.201,5896.45
598.977,6059.15
601.751,6219.35
604.525,6219.7
607.298,6173.2
610.069,6099.65
612.84,6090.8
615.61,6078.05
618.38,6112.4
621.148,6192.1
623.915,6294.8
626.682,6419.75
629.447,6407.65
632.212,6354.5
634.976,6252.05
637.739,6264.85
640.501,6221.4
643.262,6304.25
646.022,6423.1
648.781,6459.2
651.54,6359.45
654.297,6383.2
657.054,6300.35
659.81,6377.45
662.565,6433.2
665.319,6445.0
668.072,6427.05
670.824,6401.9
673.575,6460.05
676.326,6393.6
679.075,6356.65
681.824,6360.65
684.572,6403.25
687.319,6539.2
690.065,6588.0
692.81,6555.6
695.554,6394.2
698.298,6356.4
701.04,6492.1
703.782,6500.65
706.522,6445.65
709.262,6446.55
712.001,6566.05
714.739,6582.05
717.477,6469.0
720.213,6366.65
722.948,6466.65
725.683,6574.6
728.417,6584.1
731.15,6541.8
733.882,6606.55
736.613,6637.55
739.343,6663.55
742.072,6641.95
744.801,6613.55
747.528,6663.7
750.255,6687.0
752.981,6635.25
755.706,6640.95
758.43,6595.75
761.153,6542.95
763.875,6770.8
766.597,6897.6
769.317,6751.05
772.037,6780.85
774.756,6694.5
777.474,6701.35
780.191,6896.4
782.907,6858.85
785.623,6786.6
788.337,6792.75
791.051,6838.65
793.764,6918.85
796.475,6922.9
799.186,6804.95
801.897,6792.65
804.606,6824.45
807.314,6925.35
810.022,6957.15
812.729,6878.15
815.434,6869.1
818.139,6928.05
820.844,6950.75
823.547,6910.75
826.249,6923.15
828.951,6925.85
831.651,6933.35
834.351,7053.3
837.05,7176.5
839.748,7104.45
842.445,7077.65
845.142,7043.85
847.837,7037.05
850.532,7187.7
853.225,7311.85
855.918,7438.3
858.61,7448.85
861.302,7434.35
863.992,7462.25
866.681,7233.5
869.37,7130.0
872.058,7193.45
874.745,7153.5
877.431,7153.35
880.116,7129.65
882.8,7175.4
885.484,7159.2
888.166,7141.15
890.848,7103.1
893.529,7189.55
896.209,7303.45
898.888,7285.95
901.566,7250.1
904.244,7224.9
906.921,7329.15
909.596,7297.1
912.271,7185.85
914.945,7179.25
917.619,7290.0
920.291,7342.45
922.963,7408.7
925.633,7468.3
928.303,7426.8
930.972,7311.7
933.64,7337.7
936.308,7431.35
938.974,7341.25
941.64,7322.65
944.304,7286.55
946.968,7308.55
949.631,7281.75
952.294,7433.7
954.955,7520.6
957.615,7430.3
960.275,7537.5
962.934,7533.75
965.592,7425.2
968.249,7534.05
970.905,7615.55
973.561,7572.7
976.215,7615.75
978.869,7653.1
981.522,7606.1
984.174,7484.4
986.826,7614.95
989.476,7754.3
992.126,7766.15
994.774,7813.35
997.422,7898.8
1000.07,7760.55
1002.72,7762.6
1005.36,7704.7
1008.01,7691.2
1010.65,7774.1
1013.29,7779.15
1015.93,7695.0
1018.58,7645.25
1021.22,7689.5
1023.86,7815.1
1026.49,7828.15
1029.13,7767.45
1031.77,7737.8
1034.4,7727.75
1037.04,7731.55
1039.67,7917.65
1042.31,7924.3
1044.94,7866.0
1047.57,7813.25
1050.2,7764.1
1052.83,7865.1
1055.46,7820.15
1058.09,7738.25
1060.72,7834.4
1063.35,7929.55
1065.97,7925.85
1068.6,7965.6
1071.22,8018.85
1073.85,8100.25
1076.47,8081.9
1079.09,8047.05
1081.71,7972.35
1084.33,8119.9
1086.95,8149.6
1089.57,8231.7
1092.19,8209.95
1094.81,8244.5
1097.42,8361.7
1100.04,8289.35
1102.65,8268.15
1105.27,8286.75
1107.88,8189.5
1110.49,8232.55
1113.1,8507.1
1115.71,8597.7
1118.32,8514.2
1120.93,8461.25
1123.54,8313.15
1126.15,8150.8
1128.75,8135.7
1131.36,8246.25
1133.97,8262.25
1136.57,8187.2
1139.17,8253.5
1141.77,8289.75
1144.38,8296.7
1146.98,8213.0
1149.58,8175.9
1152.18,8306.85
1154.77,8343.75
1157.37,8264.65
1159.97,8280.25
1162.56,8217.9
1165.16,8262.75
1167.75,8364.8
1170.35,8565.95
1172.94,8559.6
1175.53,8347.2
1178.12,8251.6
1180.71,8358.7
1183.3,8623.0
1185.89,8518.1
1188.48,8332.45
1191.06,8341.3
1193.65,8587.8
1196.23,8695.6
1198.82,8619.0
1201.4,8541.25
1203.99,8401.0
1206.57,8412.8
1209.15,8457.75
1211.73,8491.05
1214.31,8639.9
1216.89,8593.3
1219.46,8520.3
1222.04,8514.25
1224.62,8692.3
1227.19,8678.2
1229.77,8601.6
1232.34,8640.3
1234.92,8694.25
1237.49,8685.6
1240.06,8712.15
1242.63,8736.7
1245.2,8571.35
1247.77,8481.2
1250.34,8604.35
1252.9,8692.8
1255.47,8721.4
1258.04,8810.35
1260.6,8889.35
1263.17,8806.45
1265.73,8760.05
1268.29,8784.5
1270.85,8919.0
1273.41,9035.85
1275.97,9036.45
1278.53,9039.85
1281.09,9185.0
1283.65,9323.2
1286.21,9234.35
1288.76,9288.85
1291.32,9581.45
1293.87,9492.65
1296.43,9374.55
1298.98,9275.8
1301.53,9044.25
1304.08,9092.35
1306.63,9128.0
1309.18,9078.0
1311.73,9048.4
1314.28,9096.95
1316.83,9079.15
1319.38,9036.45
1321.92,9045.15
1324.47,9096.55
1327.01,9187.15
1329.55,9152.05
1332.1,9028.45
1334.64,8898.05
1337.18,8986.65
1339.72,8975.6
1342.26,9060.15
1344.8,9228.75
1347.34,9058.3
1349.87,8988.7
1352.41,8967.35
1354.95,8950.05
1357.48,9154.95
1360.01,9339.8
1362.55,9157.65
1365.08,9174.25
1367.61,8960.1
1370.14,8948.0
1372.67,8985.0
1375.2,9023.55
1377.73,9136.5
1380.26,9052.8
1382.78,8932.65
1385.31,8961.15
1387.84,9086.85
1390.36,9165.5
1392.88,9126.05
1395.41,9241.95
1397.93,9275.15
1400.45,9132.2
1402.97,9174.65
1405.49,9227.8
1408.01,9243.75
1410.53,9251.05
1413.05,9361.5
1415.56,9263.85
1418.08,9303.55
1420.59,9318.45
1423.11,9323.0
1425.62,9439.75
1428.14,9460.25
1430.65,9302.8
1433.16,9380.65
1435.67,9489.85
1438.18,9477.6
1440.69,9336.55
1443.2,9323.15
1445.7,9431.75
1448.21,9371.45
1450.72,9416.05
1453.22,9422.9
1455.72,9489.0
1458.23,9478.6
1460.73,9453.2
1463.23,9432.0
1465.73,9300.5
1468.23,9347.65
1470.73,9508.05
1473.23,9572.9
1475.73,9429.9
1478.23,9442.7
1480.72,9510.05
1483.22,9488.5
1485.72,9435.6
1488.21,9488.7
1490.7,9396.45
1493.2,9351.6
1495.69,9396.4
1498.18,9328.8
1500.67,9400.5
1503.16,9561.4
1505.65,9521.15
1508.14,9386.25
1510.62,9405.35
1513.11,9523.4
1515.59,9500.15
1518.08,9387.0
1520.56,9486.9
1523.05,9627.5
1525.53,9452.6
1528.01,9383.3
1530.49,9636.35
1532.97,9834.5
1535.45,9842.7
1537.93,9662.3
1540.41,9496.0
1542.89,9479.1
1545.36,9536.25
1547.84,9567.2
1550.31,9683.05
1552.79,9715.05
1555.26,9612.4
1557.73,9683.9
1560.21,9769.6
1562.68,9772.5
1565.15,9763.9
1567.62,9660.3
1570.09,9661.25
1572.56,9762.15
1575.02,9684.55
1577.49,9827.4
1579.95,9953.1
1582.42,9793.7
1584.88,9810.3
1587.35,9759.6
1589.81,9649.95
1592.27,9760.0
1594.73,9748.35
1597.19,9935.15
1599.65,10163.6
1602.11,10319.7
1604.57,10488.3
1607.03,10838.9
1609.49,11391.0
1611.94,11560.7
1614.4,11656.4
1616.85,11464.4
1619.31,11133.7
1621.76,10726.3
1624.21,10321.1
1626.66,10088.4
1629.11,9900.85
1631.56,9884.75
1634.01,9914.1
1636.46,9887.15
1638.91,9863.1
1641.36,9832.85
1643.8,9881.65
1646.25,10072.9
1648.69,10032.5
1651.14,9909.4
1653.58,9826.5
1656.02,9795.25
1658.46,9848.95
1660.9,9855.6
1663.35,9939.3
1665.78,9966.7
1668.22,10022.0
1670.66,10068.0
1673.1,9979.8
1675.54,9932.9
1677.97,9924.3
1680.41,9888.35
1682.84,9875.95
1685.27,9907.35
1687.71,9995.95
1690.14,9951.55
1692.57,9778.85
1695.0,9917.1
1697.43,10134.7
1699.86,10167.0
1702.29,10063.9
1704.71,10008.8
1707.14,10016.8
1709.57,9838.75
1711.99,10100.8
1714.42,10418.2
1716.84,10513.0
1719.26,10635.9
1721.69,10855.5
1724.11,10989.7
1726.53,11203.0
1728.95,11073.9
1731.37,10936.9
1733.79,10847.8
1736.21,10727.3
1738.62,10546.9
1741.04,10614.3
1743.46,10482.0
1745.87,10142.7
1748.28,10132.2
1750.7,10304.5
1753.11,10186.3
1755.52,10087.6
1757.93,10198.2
1760.34,10234.8
1762.75,10194.5
1765.16,10019.8
1767.57,10079.8
1769.98,10114.0
1772.39,10064.7
1774.79,9991.95
1777.2,10079.6
1779.6,10346.3
1782.01,10494.6
1784.41,10275.1
1786.81,10238.6
1789.21,10388.5
1791.62,10267.3
1794.02,10135.9
1796.41,10014.2
1798.81,10182.5
1801.21,10161.3
1803.61,10036.7
1806.01,10052.0
1808.4,10064.1
1810.8,10228.5
1813.19,10310.0
1815.59,10469.0
1817.98,10097.8
1820.37,10040.2
1822.76,10260.5
1825.15,10399.4
1827.54,10247.5
1829.93,10223.1
1832.32,10124.6
1834.71,10103.8
1837.1,10186.8
1839.48,10140.0
1841.87,10127.0
1844.25,9960.35
1846.64,10084.2
1849.02,10105.8
1851.4,10196.1
1853.79,10289.2
1856.17,10133.4
1858.55,10015.5
1860.93,10072.0
1863.31,10214.3
1865.69,10128.0
1868.06,10039.5
1870.44,10192.9
1872.82,10345.5
1875.19,10410.3
1877.57,10564.5
1879.94,10499.3
1882.31,10194.3
1884.69,10213.0
1887.06,10157.8
1889.43,10433.5
1891.8,10493.3
1894.17,10312.2
1896.54,10241.2
1898.91,10301.8
1901.28,10329.9
1903.64,10274.4
1906.01,10283.2
1908.38,10324.8
1910.74,10386.9
1913.1,10471.0
1915.47,10296.8
1917.83,10426.0
1920.19,10419.5
1922.55,10212.2
1924.91,10159.8
1927.27,10351.3
1929.63,10447.8
1931.99,10511.8
1934.35,10388.4
1936.71,10338.5
1939.06,10481.5
1941.42,10307.3
1943.77,10192.5
1946.13,10453.1
1948.48,10446.3
1950.83,10256.0
1953.19,10582.2
1955.54,10597.9
1957.89,10385.3
1960.24,10177.3
1962.59,10275.8
1964.93,10314.2
1967.28,10399.8
1969.63,10345.6
1971.98,10354.0
1974.32,10508.5
1976.67,10460.0
1979.01,10306.5
1981.35,10369.1
1983.7,10476.7
1986.04,10585.9
1988.38,10667.0
1990.72,10679.5
1993.06,10438.5
1995.4,10380.5
1997.74,10379.0
2000.08,10493.0
2002.41,10617.3
2004.75,10478.0
2007.09,10432.9
2009.42,10621.1
2011.75,10784.1
2014.09,10893.6
2016.42,10766.5
2018.75,10672.1
2021.08,10482.3
2023.42,10305.3
2025.75,10363.9
2028.08,10707.8
2030.4,10784.0
2032.73,10874.2
2035.06,10936.3
2037.39,10769.2
2039.71,10765.5
2042.04,10513.7
2044.36,10409.8
2046.69,10525.8
2049.01,10598.0
2051.33,10551.6
2053.65,10686.2
2055.97,10781.1
2058.29,10917.2
2060.61,10796.0
2062.93,10619.7
2065.25,10578.3
2067.57,10704.3
2069.88,10775.0
2072.2,10802.8
2074.52,10815.4
2076.83,10773.7
2079.15,10778.0
2081.46,10744.0
2083.77,10689.5
2086.08,10599.0
2088.39,10566.8
2090.7,10613.4
2093.01,10720.2
2095.32,10798.8
2097.63,10702.0
2099.94,10677.8
2102.25,10744.7
2104.55,10650.8
2106.86,10770.3
2109.16,10894.7
2111.47,11061.5
2113.77,11142.2
2116.08,11043.0
2118.38,10924.3
2120.68,10793.7
2122.98,10600.5
2125.28,10738.2
2127.58,10714.8
2129.88,10853.3
2132.18,10978.2
2134.47,11024.2
2136.77,10943.2
2139.07,10868.3
2141.36,10819.3
2143.66,10851.5
2145.95,10806.0
2148.24,11002.3
2150.54,11102.3
2152.83,10990.0
2155.12,11001.7
2157.41,11085.2
2159.7,10969.9
2161.99,10905.3
2164.28,11067.8
2166.57,11022.9
2168.85,11046.3
2171.14,11056.5
2173.43,11002.3
2175.71,10932.2
2178.0,10731.8
2180.28,10820.3
2182.56,11059.9
2184.84,11246.3
2187.13,11281.9
2189.41,11018.0
2191.69,10862.2
2193.97,10854.8
2196.25,11073.7
2198.52,11207.3
2200.8,11227.3
2203.08,11015.6
2205.36,11021.3
2207.63,11107.5
2209.91,11020.7
2212.18,11224.3
2214.45,11408.8
2216.73,11431.1
2219.0,11338.3
2221.27,11164.7
2223.54,11118.8
2225.81,10970.5
2228.08,11033.3
2230.35,11155.2
2232.62,10923.6
2234.89,11043.5
2237.15,11127.0
2239.42,11331.0
2241.68,11535.0
2243.95,11419.8
2246.21,11105.0
2248.48,10794.6
2250.74,11042.5
2253.0,11317.5
2255.26,11325.0
2257.52,11321.3
2259.78,11231.6
2262.04,11283.3
2264.3,11199.3
2266.56,11152.0
2268.82,11465.6
2271.07,11331.0
2273.33,11304.9
2275.58,11430.7
2277.84,11462.7
2280.09,11331.8
2282.35,11358.1
2284.6,11257.0
2286.85,11248.0
2289.1,11512.8
2291.35,11488.5
2293.6,11321.5
2295.85,11284.7
2298.1,11182.3
2300.35,11283.7
2302.6,11264.2
2304.84,11540.8
2307.09,11500.2
2309.33,11429.5
2311.58,11770.5
2313.82,11742.4
2316.07,11485.8
2318.31,11448.6
2320.55,11585.5
2322.79,11583.8
2325.03,11452.9
2327.27,11361.3
2329.51,11447.0
2331.75,11518.0
2333.99,11605.4
2336.23,11569.2
2338.46,11513.3
2340.7,11567.5
2342.93,11798.3
2345.17,11712.0
2347.4,11558.7
2349.64,11933.3
2351.87,11863.0
2354.1,11548.6
2356.33,11408.3
2358.56,11752.7
2360.79,11823.8
2363.02,11708.5
2365.25,11680.8
2367.48,11741.2
2369.71,11499.1
2371.93,11788.3
2374.16,11829.6
2376.38,11585.0
2378.61,11554.8
2380.83,11961.1
2383.06,11990.3
2385.28,11839.8
2387.5,11741.8
2389.72,11619.0
2391.94,11802.1
2394.16,12148.3
2396.38,12203.5
2398.6,11974.7
2400.82,11851.5
2403.04,11886.7
2405.26,11831.2
2407.47,11766.5
2409.69,11842.0
2411.9,11890.7
2414.12,12159.3
2416.33,12181.5
2418.54,12134.0
2420.76,12216.4
2422.97,12056.2
2425.18,12004.5
2427.39,12126.3
2429.6,12176.7
2431.81,11981.3
2434.02,12224.0
2436.22,12433.3
2438.43,12181.8
2440.64,12007.3
2442.84,12026.8
2445.05,12143.0
2447.25,12222.9
2449.46,12182.5
2451.66,12214.1
2453.86,12325.8
2456.06,12103.5
2458.27,11862.7
2460.47,12132.3
2462.67,12257.3
2464.87,12253.6
2467.06,12300.5
2469.26,12221.5
2471.46,12212.3
2473.66,12183.6
2475.85,12440.9
2478.05,12433.7
2480.24,12232.0
2482.44,12258.1
2484.63,12260.0
2486.82,12297.9
2489.02,12202.5
2491.21,12421.3
2493.4,12691.9
2495.59,12492.8
2497.78,12517.0
2499.97,12604.3
2502.16,12526.8
2504.34,12425.5
2506.53,12265.6
2508.72,12321.8
2510.9,12487.3
2513.09,12601.5
2515.27,12666.2
2517.46,12719.5
2519.64,12602.7
2521.82,12605.5
2524.0,12625.7
2526.19,12730.8
2528.37,12997.8
2530.55,13005.8
2532.73,12885.9
2534.9,12856.0
2537.08,12580.8
2539.26,12467.3
2541.44,12726.0
2543.61,12728.5
2545.79,12746.1
2547.96,12965.1
2550.14,12948.5
2552.31,12811.7
2554.48,12463.1
2556.66,12557.5
2558.83,12853.0
2561.0,13142.0
2563.17,13252.3
2565.34,13244.6
2567.51,13023.8
2569.68,12673.7
2571.85,12680.3
2574.01,13060.1
2576.18,13208.1
2578.35,12926.5
2580.51,12719.4
2582.68,12942.5
2584.84,13090.7
2587.0,13128.8
2589.17,13159.4
2591.33,13031.8
2593.49,12948.4
2595.65,13056.7
2597.81,12948.9
2599.97,13095.3
2602.13,13177.3
2604.29,13133.4
2606.45,13203.2
2608.6,13322.0
2610.76,13381.7
2612.92,13252.6
2615.07,13452.6
2617.23,13658.3
2619.38,13373.8
2621.53,13007.8
2623.69,13222.0
2625.84,13430.3
2627.99,13375.3
2630.14,13405.0
2632.29,13515.3
2634.44,13547.3
2636.59,13412.5
2638.74,13098.3
2640.89,13122.8
2643.03,13356.3
2645.18,13651.8
2647.33,14046.5
2649.47,13972.2
2651.62,13812.8
2653.76,13694.0
2655.9,13755.4
2658.05,13705.4
2660.19,13559.2
2662.33,13628.2
2664.47,13628.7
2666.61,13619.8
2668.75,13860.8
2670.89,13962.5
2673.03,13873.1
2675.17,13674.6
2677.3,13668.5
2679.44,13509.0
2681.58,13440.5
2683.71,13559.5
2685.84,13707.7
2687.98,13802.5
2690.11,14021.6
2692.25,14364.8
2694.38,14166.5
2696.51,13841.8
2698.64,13640.7
2700.77,13768.5
2702.9,13956.2
2705.03,14131.4
2707.16,14261.7
2709.29,13928.2
2711.41,13930.5
2713.54,14070.8
2715.67,13943.5
2717.79,13706.2
2719.92,14001.8
2722.04,14104.3
2724.16,14207.7
2726.29,14300.2
2728.41,14173.7
2730.53,14118.2
2732.65,14119.2
2734.77,14258.8
2736.89,14448.7
2739.01,14280.0
2741.13,14301.7
2743.25,14392.5
2745.36,14234.9
2747.48,13995.3
2749.6,14286.0
2751.71,14322.0
2753.83,14265.0
2755.94,14411.8
2758.06,14641.5
2760.17,14490.5
2762.28,14228.5
2764.39,14109.2
2766.5,14256.0
2768.61,14616.0
2770.72,14802.7
2772.83,14460.8
2774.94,14241.6
2777.05,14420.7
2779.16,14621.9
2781.27,14541.3
2783.37,14567.4
2785.48,14688.0
2787.58,14593.6
2789.69,14360.0
2791.79,14532.5
2793.89,14553.1
2796.0,14741.0
2798.1,14784.5
2800.2,14726.3
2802.3,14811.6
2804.4,14851.6
2806.5,14624.1
2808.6,14390.6
2810.7,14429.9
2812.8,14536.9
2814.89,14704.5
2816.99,14543.2
2819.09,14946.5
2821.18,15242.9
2823.28,15160.3
2825.37,14762.1
2827.46,14856.3
2829.56,14883.3
2831.65,14780.4
2833.74,14668.3
2835.83,14862.5
2837.92,14846.4
2840.01,14500.0
2842.1,14771.7
2844.19,15169.3
2846.28,15131.9
2848.37,15039.9
2850.45,14881.0
2852.54,14870.7
2854.63,15001.7
2856.71,14891.2
2858.8,15027.6
2860.88,15389.8
2862.96,15324.3
2865.05,15261.3
2867.13,15189.5
2869.21,14981.1
2871.29,14832.3
2873.37,14799.3
2875.45,15063.2
2877.53,15332.0
2879.61,15288.8
2881.69,15229.3
2883.76,15274.3
2885.84,15261.8
2887.92,15298.8
2889.99,15456.9
2892.07,15447.4
2894.14,15275.0
2896.22,15350.8
2898.29,15560.8
2900.36,15512.6
2902.43,15475.6
2904.5,15379.6
2906.58,15335.7
2908.65,15568.2
2910.72,15394.0
2912.78,15375.5
2914.85,15448.7
2916.92,15236.0
2918.99,15169.1
2921.05,15543.4
2923.12,15823.0
2925.19,15648.6
2927.25,15429.0
2929.32,15483.0
2931.38,15580.5
2933.44,15888.2
2935.5,15774.9
2937.57,15517.5
2939.63,15445.9
2941.69,15408.7
2943.75,15623.2
2945.81,15788.4
2947.87,15688.0
2949.93,15556.1
2951.98,15675.7
2954.04,15922.2
2956.1,16134.4
2958.15,16059.8
2960.21,15833.8
2962.26,15817.8
2964.32,15710.8
2966.37,15885.4
2968.42,16003.7
2970.48,16136.3
2972.53,15768.0
2974.58,15580.3
2976.63,15861.9
2978.68,16366.1
2980.73,15974.5
2982.78,16015.3
2984.83,16366.7
2986.87,16283.9
2988.92,15979.0
2990.97,15929.2
2993.01,15871.2
2995.06,16095.3
2997.1,16212.8
2999.15,15887.5
3001.19,15763.4
3003.24,15952.5
3005.28,16270.2
3007.32,16513.2
3009.36,15900.4
3011.4,15956.2
3013.44,16393.8
3015.48,16352.0
3017.52,16071.1
3019.56,16346.2
3021.6,16529.6
3023.63,16361.2
3025.67,16230.7
3027.71,16040.0
3029.74,15883.0
3031.78,15694.7
3033.81,16022.1
3035.85,16224.3
3037.88,15905.5
3039.91,16055.2
3041.94,16035.4
3043.97,15847.6
3046.01,16106.8
3048.04,16335.8
3050.07,16491.7
3052.09,16459.2
3054.12,16092.9
3056.15,15868.2
3058.18,15846.7
3060.2,16439.3
3062.23,16696.2
3064.26,16183.6
3066.28,15736.7
3068.31,15964.5
3070.33,16049.1
3072.35,16279.5
3074.38,16593.4
3076.4,17052.7
3078.42,17148.8
3080.44,16988.5
3082.46,16777.8
3084.48,16854.1
3086.5,16490.4
3088.52,16321.2
3090.54,16418.8
3092.55,16459.9
3094.57,16328.2
3096.59,16043.2
3098.6,16164.0
3100.62,16370.3
3102.63,16226.0
3104.65,16398.7
3106.66,16503.0
3108.67,16521.3
3110.69,16229.5
3112.7,16237.0
3114.71,16568.7
3116.72,16319.5
3118.73,16023.0
3120.74,15861.1
3122.75,16326.3
3124.76,16684.7
3126.77,16793.7
3128.77,17226.9
3130.78,16992.3
3132.79,16424.4
3134.79,16179.8
3136.8,15983.7
3138.8,15880.4
3140.8,16060.8
3142.81,16395.2
3144.81,16310.5
3146.81,16357.3
3148.81,16359.5
3150.82,16407.6
3152.82,16345.1
3154.82,16114.2
3156.82,16539.2
3158.81,16424.6
3160.81,16542.7
3162.81,16357.2
3164.81,16200.2
3166.8,16016.5
3168.8,16099.5
3170.79,16337.5
3172.79,16731.3
3174.78,16727.0
3176.78,16517.4
3178.77,16243.0
3180.76,16242.3
3182.75,16307.8
3184.75,16286.0
3186.74,16310.6
3188.73,16213.3
3190.72,16236.0
3192.71,16642.7
3194.69,16613.0
3196.68,16227.1
3198.67,16415.9
3200.66,16522.3
3202.64,16293.2
3204.63,16237.3
3206.61,16588.0
3208.6,16140.0
3210.58,15668.4
3212.57,16398.8
3214.55,16573.4
3216.53,16063.1
3218.51,16071.3
3220.49,16384.7
3222.47,16380.6
3224.46,16529.3
3226.43,16675.6
3228.41,16391.7
3230.39,15966.8
3232.37,16154.4
3234.35,16391.1
3236.32,16610.1
3238.3,16087.9
3240.28,16267.4
3242.25,16735.1
3244.23,16683.4
3246.2,16316.8
3248.17,16535.9
3250.15,16408.4
3252.12,16226.3
3254.09,16316.9
3256.06,16506.2
3258.03,16541.8
3260.0,16348.2
3261.97,16013.5
3263.94,15899.5
3265.91,16277.2
3267.88,16700.3
3269.84,16660.4
3271.81,16319.0
3273.78,16000.4
3275.74,15780.9
3277.71,16383.2
3279.67,16475.7
3281.64,15971.5
3283.6,16363.6
3285.56,16735.6
3287.52,16439.4
3289.49,16479.8
3291.45,16275.0
3293.41,16266.8
3295.37,16383.3
3297.33,16505.7
3299.29,16431.5
3301.25,16340.0
3303.2,16266.3
3305.16,16107.5
3307.12,15890.0
3309.07,16209.3
3311.03,16593.8
3312.99,16263.8
3314.94,15995.8
3316.89,16237.5
3318.85,16406.4
3320.8,16622.4
3322.75,16410.2
3324.7,16145.2
3326.66,15712.3
3328.61,15637.4
3330.56,15936.1
3332.51,16276.0
3334.46,16271.8
3336.4,16454.9
3338.35,16265.4
3340.3,16193.3
3342.25,15933.2
3344.19,15889.7
3346.14,15937.5
3348.08,15930.7
3350.03,15981.3
3351.97,15892.0
3353.92,16035.1
3355.86,16409.1
3357.8,16318.2
3359.74,16268.5
3361.69,16164.1
3363.63,16153.7
3365.57,16390.1
3367.51,16240.1
3369.45,15738.3
3371.39,15491.3
3373.32,15315.5
3375.26,15534.8
3377.2,15970.9
3379.13,16192.4
3381.07,16004.8
3383.01,15762.9
3384.94,16103.3
3386.88,16270.7
3388.81,15695.1
3390.74,15537.2
3392.68,15704.4
3394.61,15751.2
3396.54,15971.4
3398.47,15975.3
3400.4,15730.6
3402.33,15405.3
3404.26,15566.3
3406.19,16012.1
3408.12,15750.8
3410.05,15433.7
3411.97,15447.5
3413.9,15189.5
3415.83,15354.7
3417.75,15894.7
3419.68,16255.8
3421.6,16213.7
3423.53,16218.4
3425.45,15968.2
3427.37,15569.7
3429.3,15514.3
3431.22,15478.8
3433.14,15350.7
3435.06,15540.0
3436.98,15843.5
3438.9,16382.3
3440.82,16064.7
3442.74,15696.7
3444.66,15448.8
3446.57,15531.6
3448.49,15606.0
3450.41,15394.6
3452.32,15235.7
3454.24,15588.9
3456.15,15823.0
3458.07,15853.2
3459.98,15750.0
3461.9,15512.8
3463.81,15230.5
3465.72,15258.2
3467.63,15654.0
3469.54,15593.5
3471.46,15626.4
3473.37,15442.5
3475.28,15448.1
3477.18,15132.1
3479.09,14824.5
3481.0,15108.0
3482.91,14972.9
3484.82,15271.3
3486.72,15542.2
3488.63,15400.5
3490.53,15158.0
3492.44,14630.5
3494.34,14614.1
3496.25,15017.2
3498.15,15529.0
3500.05,15485.8
3501.96,15282.9
3503.86,15112.8
3505.76,14918.8
3507.66,14695.0
3509.56,14584.3
3511.46,14644.2
3513.36,14886.2
3515.26,15323.4
3517.15,15504.3
3519.05,15190.0
3520.95,14655.9
3522.85,14369.1
3524.74,14641.9
3526.64,14821.0
3528.53,14630.4
3530.43,14460.3
3532.32,14459.1
3534.21,14626.5
3536.11,14801.7
3538.0,15128.9
3539.89,15418.0
3541.78,15287.5
3543.67,14832.2
3545.56,14661.6
3547.45,14827.3
3549.34,14515.5
3551.23,14236.3
3553.12,14520.8
3555.0,14408.3
3556.89,14567.8
3558.78,14822.3
3560.66,14956.8
3562.55,15046.7
3564.43,14560.0
3566.32,14410.3
3568.2,14594.8
3570.09,14441.3
3571.97,14141.3
3573.85,14010.3
3575.73,14180.0
3577.61,14650.0
3579.49,14639.6
3581.37,14758.3
3583.25,14441.7
3585.13,14062.0
3587.01,14775.8
3588.89,14768.0
3590.77,14866.5
3592.64,15011.9
3594.52,14436.8
3596.4,14177.5
3598.27,13897.3
3600.15,13878.0
3602.02,14311.3
3603.9,14248.2
3605.77,13945.7
3607.64,14096.3
3609.51,14322.5
3611.39,14521.7
3613.26,14142.1
3615.13,13896.1
3617.0,14268.1
3618.87,13859.8
3620.74,13807.2
3622.61,13719.3
3624.48,13676.5
3626.34,13694.8
3628.21,13871.4
3630.08,13983.2
3631.94,13630.1
3633.81,13358.8
3635.67,13499.4
3637.54,13711.8
3639.4,13678.7
3641.27,13798.0
3643.13,14043.8
3644.99,13781.5
3646.85,13410.2
3648.72,13595.7
3650.58,13732.7
3652.44,13398.5
3654.3,13153.9
3656.16,13606.3
3658.02,14302.6
3659.87,14275.4
3661.73,13647.3
3663.59,13509.8
3665.45,13590.5
