cm-1,A
4000.0,-0.0023
3999.0,-0.0024
3998.0,-0.0024
3997.0,-0.0024
3996.0,-0.0024
3995.0,-0.0024
3994.0,-0.0024
3993.0,-0.0025
3992.0,-0.0025
3991.0,-0.0026
3990.0,-0.0026
3989.0,-0.0026
3988.0,-0.0025
3987.0,-0.0025
3986.0,-0.0024
3985.0,-0.0024
3984.0,-0.0024
3983.0,-0.0024
3982.0,-0.0025
3981.0,-0.0025
3980.0,-0.0024
3979.0,-0.0023
3978.0,-0.0023
3977.0,-0.0023
3976.0,-0.0023
3975.0,-0.0024
3974.0,-0.0024
3973.0,-0.0024
3972.0,-0.0024
3971.0,-0.0024
3970.0,-0.0025
3969.0,-0.0026
3968.0,-0.0026
3967.0,-0.0025
3966.0,-0.0024
3965.0,-0.0023
3964.0,-0.0022
3963.0,-0.0021
3962.0,-0.0022
3961.0,-0.0022
3960.0,-0.0023
3959.0,-0.0023
3958.0,-0.0024
3957.0,-0.0024
3956.0,-0.0024
3955.0,-0.0024
3954.0,-0.0024
3953.0,-0.0025
3952.0,-0.0025
3951.0,-0.0026
3950.0,-0.0026
3949.0,-0.0026
3948.0,-0.0027
3947.0,-0.0027
3946.0,-0.0027
3945.0,-0.0026
3944.0,-0.0026
3943.0,-0.0026
3942.0,-0.0026
3941.0,-0.0026
3940.0,-0.0026
3939.0,-0.0025
3938.0,-0.0025
3937.0,-0.0025
3936.0,-0.0026
3935.0,-0.0026
3934.0,-0.0026
3933.0,-0.0026
3932.0,-0.0025
3931.0,-0.0026
3930.0,-0.0026
3929.0,-0.0026
3928.0,-0.0027
3927.0,-0.0027
3926.0,-0.0028
3925.0,-0.0028
3924.0,-0.0028
3923.0,-0.0027
3922.0,-0.0026
3921.0,-0.0025
3920.0,-0.0025
3919.0,-0.0025
3918.0,-0.0025
3917.0,-0.0025
3916.0,-0.0025
3915.0,-0.0025
3914.0,-0.0025
3913.0,-0.0024
3912.0,-0.0023
3911.0,-0.0023
3910.0,-0.0023
3909.0,-0.0023
3908.0,-0.0025
3907.0,-0.0027
3906.0,-0.0028
3905.0,-0.0029
3904.0,-0.0029
3903.0,-0.0029
3902.0,-0.0028
3901.0,-0.0028
3900.0,-0.0027
3899.0,-0.0027
3898.0,-0.0026
3897.0,-0.0026
3896.0,-0.0025
3895.0,-0.0026
3894.0,-0.0026
3893.0,-0.0025
3892.0,-0.0025
3891.0,-0.0025
3890.0,-0.0026
3889.0,-0.0027
3888.0,-0.0027
3887.0,-0.0027
3886.0,-0.0027
3885.0,-0.0027
3884.0,-0.0028
3883.0,-0.0027
3882.0,-0.0027
3881.0,-0.0026
3880.0,-0.0026
3879.0,-0.0027
3878.0,-0.0027
3877.0,-0.0028
3876.0,-0.0028
3875.0,-0.0028
3874.0,-0.0028
3873.0,-0.0028
3872.0,-0.0028
3871.0,-0.0028
3870.0,-0.0027
3869.0,-0.0028
3868.0,-0.0028
3867.0,-0.0027
3866.0,-0.0027
3865.0,-0.0027
3864.0,-0.0027
3863.0,-0.0027
3862.0,-0.0027
3861.0,-0.0027
3860.0,-0.0027
3859.0,-0.0027
3858.0,-0.0028
3857.0,-0.0028
3856.0,-0.0029
3855.0,-0.0027
3854.0,-0.0026
3853.0,-0.0026
3852.0,-0.0028
3851.0,-0.0029
3850.0,-0.0027
3849.0,-0.0026
3848.0,-0.0025
3847.0,-0.0025
3846.0,-0.0025
3845.0,-0.0025
3844.0,-0.0026
3843.0,-0.0027
3842.0,-0.0027
3841.0,-0.0029
3840.0,-0.003
3839.0,-0.0031
3838.0,-0.0031
3837.0,-0.0031
3836.0,-0.003
3835.0,-0.0028
3834.0,-0.0027
3833.0,-0.0025
3832.0,-0.0024
3831.0,-0.0024
3830.0,-0.0024
3829.0,-0.0024
3828.0,-0.0025
3827.0,-0.0025
3826.0,-0.0026
3825.0,-0.0027
3824.0,-0.0027
3823.0,-0.0026
3822.0,-0.0025
3821.0,-0.0026
3820.0,-0.0027
3819.0,-0.0028
3818.0,-0.0027
3817.0,-0.0026
3816.0,-0.0025
3815.0,-0.0026
3814.0,-0.0027
3813.0,-0.0027
3812.0,-0.0027
3811.0,-0.0027
3810.0,-0.0027
3809.0,-0.0027
3808.0,-0.0027
3807.0,-0.0026
3806.0,-0.0027
3805.0,-0.0028
3804.0,-0.0028
3803.0,-0.0027
3802.0,-0.0026
3801.0,-0.0027
3800.0,-0.0028
3799.0,-0.0028
3798.0,-0.0027
3797.0,-0.0026
3796.0,-0.0025
3795.0,-0.0025
3794.0,-0.0025
3793.0,-0.0024
3792.0,-0.0024
3791.0,-0.0024
3790.0,-0.0024
3789.0,-0.0024
3788.0,-0.0025
3787.0,-0.0025
3786.0,-0.0025
3785.0,-0.0025
3784.0,-0.0025
3783.0,-0.0024
3782.0,-0.0024
3781.0,-0.0023
3780.0,-0.0023
3779.0,-0.0022
3778.0,-0.0022
3777.0,-0.0022
3776.0,-0.0022
3775.0,-0.0023
3774.0,-0.0023
3773.0,-0.0025
3772.0,-0.0025
3771.0,-0.0025
3770.0,-0.0025
3769.0,-0.0025
3768.0,-0.0024
3767.0,-0.0024
3766.0,-0.0024
3765.0,-0.0024
3764.0,-0.0025
3763.0,-0.0026
3762.0,-0.0025
3761.0,-0.0024
3760.0,-0.0022
3759.0,-0.0022
3758.0,-0.0023
3757.0,-0.0025
3756.0,-0.0027
3755.0,-0.0029
3754.0,-0.0031
3753.0,-0.0032
3752.0,-0.0031
3751.0,-0.0031
3750.0,-0.0031
3749.0,-0.0032
3748.0,-0.0032
3747.0,-0.0032
3746.0,-0.0031
3745.0,-0.0031
3744.0,-0.0032
3743.0,-0.0034
3742.0,-0.0035
3741.0,-0.0035
3740.0,-0.0036
3739.0,-0.0037
3738.0,-0.0039
3737.0,-0.004
3736.0,-0.004
3735.0,-0.0039
3734.0,-0.0039
3733.0,-0.0038
3732.0,-0.0037
3731.0,-0.0037
3730.0,-0.0037
3729.0,-0.0037
3728.0,-0.0037
3727.0,-0.0036
3726.0,-0.0035
3725.0,-0.0035
3724.0,-0.0034
3723.0,-0.0034
3722.0,-0.0033
3721.0,-0.0031
3720.0,-0.003
3719.0,-0.0029
3718.0,-0.0028
3717.0,-0.0029
3716.0,-0.0029
3715.0,-0.0029
3714.0,-0.003
3713.0,-0.0031
3712.0,-0.0033
3711.0,-0.0035
3710.0,-0.0036
3709.0,-0.0035
3708.0,-0.0034
3707.0,-0.0033
3706.0,-0.0034
3705.0,-0.0034
3704.0,-0.0034
3703.0,-0.0033
3702.0,-0.0032
3701.0,-0.0031
3700.0,-0.0031
3699.0,-0.003
3698.0,-0.0029
3697.0,-0.0028
3696.0,-0.0028
3695.0,-0.0028
3694.0,-0.0028
3693.0,-0.0029
3692.0,-0.0029
3691.0,-0.0029
3690.0,-0.0028
3689.0,-0.0029
3688.0,-0.0029
3687.0,-0.0029
3686.0,-0.0028
3685.0,-0.0027
3684.0,-0.0026
3683.0,-0.0026
3682.0,-0.0027
3681.0,-0.0027
3680.0,-0.0028
3679.0,-0.0029
3678.0,-0.003
3677.0,-0.003
3676.0,-0.003
3675.0,-0.0031
3674.0,-0.0032
3673.0,-0.0031
3672.0,-0.003
3671.0,-0.0028
3670.0,-0.0026
3669.0,-0.0025
3668.0,-0.0025
3667.0,-0.0024
3666.0,-0.0023
3665.0,-0.0023
3664.0,-0.0023
3663.0,-0.0023
3662.0,-0.0023
3661.0,-0.0023
3660.0,-0.0024
3659.0,-0.0024
3658.0,-0.0025
3657.0,-0.0025
3656.0,-0.0026
3655.0,-0.0026
3654.0,-0.0026
3653.0,-0.0027
3652.0,-0.0028
3651.0,-0.0029
3650.0,-0.0029
3649.0,-0.0028
3648.0,-0.0028
3647.0,-0.0028
3646.0,-0.0027
3645.0,-0.0027
3644.0,-0.0026
3643.0,-0.0026
3642.0,-0.0026
3641.0,-0.0025
3640.0,-0.0025
3639.0,-0.0025
3638.0,-0.0026
3637.0,-0.0026
3636.0,-0.0026
3635.0,-0.0027
3634.0,-0.0029
3633.0,-0.0031
3632.0,-0.0033
3631.0,-0.0034
3630.0,-0.0034
3629.0,-0.0033
3628.0,-0.0033
3627.0,-0.0033
3626.0,-0.0032
3625.0,-0.0031
3624.0,-0.003
3623.0,-0.003
3622.0,-0.003
3621.0,-0.003
3620.0,-0.003
3619.0,-0.003
3618.0,-0.0029
3617.0,-0.0027
3616.0,-0.0026
3615.0,-0.0025
3614.0,-0.0025
3613.0,-0.0026
3612.0,-0.0027
3611.0,-0.0027
3610.0,-0.0027
3609.0,-0.0026
3608.0,-0.0025
3607.0,-0.0025
3606.0,-0.0025
3605.0,-0.0026
3604.0,-0.0027
3603.0,-0.0027
3602.0,-0.0028
3601.0,-0.0028
3600.0,-0.0028
3599.0,-0.0028
3598.0,-0.0028
3597.0,-0.0027
3596.0,-0.0026
3595.0,-0.0025
3594.0,-0.0026
3593.0,-0.0026
3592.0,-0.0027
3591.0,-0.0027
3590.0,-0.0027
3589.0,-0.0027
3588.0,-0.0027
3587.0,-0.0027
3586.0,-0.0026
3585.0,-0.0026
3584.0,-0.0024
3583.0,-0.0023
3582.0,-0.0023
3581.0,-0.0022
3580.0,-0.0021
3579.0,-0.0021
3578.0,-0.0021
3577.0,-0.0021
3576.0,-0.0021
3575.0,-0.0021
3574.0,-0.0021
3573.0,-0.0022
3572.0,-0.0023
3571.0,-0.0024
3570.0,-0.0024
3569.0,-0.0025
3568.0,-0.0025
3567.0,-0.0025
3566.0,-0.0026
3565.0,-0.0026
3564.0,-0.0025
3563.0,-0.0023
3562.0,-0.0021
3561.0,-0.0019
3560.0,-0.0019
3559.0,-0.0019
3558.0,-0.002
3557.0,-0.002
3556.0,-0.0021
3555.0,-0.0021
3554.0,-0.0021
3553.0,-0.0021
3552.0,-0.0021
3551.0,-0.0021
3550.0,-0.0021
3549.0,-0.0021
3548.0,-0.002
3547.0,-0.002
3546.0,-0.0019
3545.0,-0.0018
3544.0,-0.0018
3543.0,-0.0019
3542.0,-0.0019
3541.0,-0.0019
3540.0,-0.0019
3539.0,-0.0019
3538.0,-0.0019
3537.0,-0.0018
3536.0,-0.0019
3535.0,-0.0019
3534.0,-0.0018
3533.0,-0.0018
3532.0,-0.0018
3531.0,-0.0018
3530.0,-0.0018
3529.0,-0.0018
3528.0,-0.0018
3527.0,-0.0018
3526.0,-0.0019
3525.0,-0.0019
3524.0,-0.0019
3523.0,-0.0019
3522.0,-0.002
3521.0,-0.002
3520.0,-0.0019
3519.0,-0.0019
3518.0,-0.0018
3517.0,-0.0018
3516.0,-0.0017
3515.0,-0.0016
3514.0,-0.0016
3513.0,-0.0016
3512.0,-0.0016
3511.0,-0.0016
3510.0,-0.0016
3509.0,-0.0017
3508.0,-0.0017
3507.0,-0.0017
3506.0,-0.0017
3505.0,-0.0017
3504.0,-0.0017
3503.0,-0.0017
3502.0,-0.0017
3501.0,-0.0017
3500.0,-0.0017
3499.0,-0.0017
3498.0,-0.0016
3497.0,-0.0016
3496.0,-0.0015
3495.0,-0.0014
3494.0,-0.0014
3493.0,-0.0014
3492.0,-0.0014
3491.0,-0.0015
3490.0,-0.0016
3489.0,-0.0016
3488.0,-0.0017
3487.0,-0.0017
3486.0,-0.0017
3485.0,-0.0017
3484.0,-0.0017
3483.0,-0.0017
3482.0,-0.0017
3481.0,-0.0017
3480.0,-0.0017
3479.0,-0.0017
3478.0,-0.0017
3477.0,-0.0016
3476.0,-0.0016
3475.0,-0.0015
3474.0,-0.0015
3473.0,-0.0015
3472.0,-0.0016
3471.0,-0.0016
3470.0,-0.0016
3469.0,-0.0016
3468.0,-0.0016
3467.0,-0.0016
3466.0,-0.0016
3465.0,-0.0016
3464.0,-0.0015
3463.0,-0.0015
3462.0,-0.0015
3461.0,-0.0015
3460.0,-0.0013
3459.0,-0.0012
3458.0,-0.0011
3457.0,-0.0011
3456.0,-0.0013
3455.0,-0.0014
3454.0,-0.0015
3453.0,-0.0016
3452.0,-0.0016
3451.0,-0.0015
3450.0,-0.0014
3449.0,-0.0014
3448.0,-0.0013
3447.0,-0.0013
3446.0,-0.0014
3445.0,-0.0015
3444.0,-0.0015
3443.0,-0.0015
3442.0,-0.0014
3441.0,-0.0013
3440.0,-0.0013
3439.0,-0.0013
3438.0,-0.0013
3437.0,-0.0014
3436.0,-0.0014
3435.0,-0.0013
3434.0,-0.0013
3433.0,-0.0012
3432.0,-0.0012
3431.0,-0.0012
3430.0,-0.0012
3429.0,-0.0012
3428.0,-0.0013
3427.0,-0.0014
3426.0,-0.0013
3425.0,-0.0013
3424.0,-0.0012
3423.0,-0.0012
3422.0,-0.0012
3421.0,-0.0012
3420.0,-0.0012
3419.0,-0.0012
3418.0,-0.0012
3417.0,-0.0012
3416.0,-0.0012
3415.0,-0.0012
3414.0,-0.0011
3413.0,-0.0011
3412.0,-0.0011
3411.0,-0.0011
3410.0,-0.0011
3409.0,-0.0011
3408.0,-0.0012
3407.0,-0.0013
3406.0,-0.0014
3405.0,-0.0014
3404.0,-0.0014
3403.0,-0.0013
3402.0,-0.0012
3401.0,-0.0011
3400.0,-0.0011
3399.0,-0.0011
3398.0,-0.0011
3397.0,-0.0011
3396.0,-0.0011
3395.0,-0.0011
3394.0,-0.0011
3393.0,-0.0011
3392.0,-0.0011
3391.0,-0.0011
3390.0,-0.001
3389.0,-0.001
3388.0,-0.001
3387.0,-0.001
3386.0,-0.001
3385.0,-0.001
3384.0,-0.001
3383.0,-0.0011
3382.0,-0.0011
3381.0,-0.0011
3380.0,-0.0011
3379.0,-0.0011
3378.0,-0.001
3377.0,-0.001
3376.0,-0.001
3375.0,-0.001
3374.0,-0.001
3373.0,-0.0011
3372.0,-0.0011
3371.0,-0.0011
3370.0,-0.0011
3369.0,-0.0011
3368.0,-0.0011
3367.0,-0.001
3366.0,-0.001
3365.0,-0.001
3364.0,-0.001
3363.0,-0.001
3362.0,-0.0011
3361.0,-0.0011
3360.0,-0.0011
3359.0,-0.0011
3358.0,-0.0012
3357.0,-0.0012
3356.0,-0.0013
3355.0,-0.0013
3354.0,-0.0014
3353.0,-0.0013
3352.0,-0.0013
3351.0,-0.0013
3350.0,-0.0012
3349.0,-0.0011
3348.0,-0.0011
3347.0,-0.001
3346.0,-0.001
3345.0,-0.001
3344.0,-0.001
3343.0,-0.001
3342.0,-0.001
3341.0,-0.0011
3340.0,-0.0012
3339.0,-0.0013
3338.0,-0.0014
3337.0,-0.0013
3336.0,-0.0012
3335.0,-0.0011
3334.0,-0.0011
3333.0,-0.001
3332.0,-0.0011
3331.0,-0.0011
3330.0,-0.0011
3329.0,-0.0011
3328.0,-0.0011
3327.0,-0.0011
3326.0,-0.0011
3325.0,-0.0011
3324.0,-0.0011
3323.0,-0.001
3322.0,-0.001
3321.0,-0.0009
3320.0,-0.0009
3319.0,-0.0009
3318.0,-0.001
3317.0,-0.0011
3316.0,-0.0012
3315.0,-0.0011
3314.0,-0.0011
3313.0,-0.001
3312.0,-0.0009
3311.0,-0.0009
3310.0,-0.001
3309.0,-0.001
3308.0,-0.001
3307.0,-0.001
3306.0,-0.001
3305.0,-0.0009
3304.0,-0.0009
3303.0,-0.0009
3302.0,-0.0009
3301.0,-0.0009
3300.0,-0.0009
3299.0,-0.0009
3298.0,-0.0009
3297.0,-0.0009
3296.0,-0.001
3295.0,-0.001
3294.0,-0.001
3293.0,-0.001
3292.0,-0.001
3291.0,-0.0011
3290.0,-0.0011
3289.0,-0.0012
3288.0,-0.0012
3287.0,-0.0012
3286.0,-0.0012
3285.0,-0.0012
3284.0,-0.0011
3283.0,-0.0011
3282.0,-0.001
3281.0,-0.001
3280.0,-0.001
3279.0,-0.001
3278.0,-0.001
3277.0,-0.001
3276.0,-0.0009
3275.0,-0.0009
3274.0,-0.0009
3273.0,-0.0009
3272.0,-0.0009
3271.0,-0.0009
3270.0,-0.0009
3269.0,-0.001
3268.0,-0.001
3267.0,-0.0011
3266.0,-0.0011
3265.0,-0.001
3264.0,-0.001
3263.0,-0.001
3262.0,-0.001
3261.0,-0.001
3260.0,-0.0011
3259.0,-0.0011
3258.0,-0.0011
3257.0,-0.001
3256.0,-0.001
3255.0,-0.0009
3254.0,-0.0009
3253.0,-0.0008
3252.0,-0.0008
3251.0,-0.0008
3250.0,-0.0008
3249.0,-0.0009
3248.0,-0.0009
3247.0,-0.001
3246.0,-0.001
3245.0,-0.0011
3244.0,-0.0011
3243.0,-0.001
3242.0,-0.001
3241.0,-0.001
3240.0,-0.001
3239.0,-0.001
3238.0,-0.001
3237.0,-0.001
3236.0,-0.001
3235.0,-0.0009
3234.0,-0.0009
3233.0,-0.0009
3232.0,-0.0009
3231.0,-0.0009
3230.0,-0.0009
3229.0,-0.0009
3228.0,-0.001
3227.0,-0.001
3226.0,-0.001
3225.0,-0.001
3224.0,-0.0009
3223.0,-0.0009
3222.0,-0.001
3221.0,-0.0011
3220.0,-0.0011
3219.0,-0.0011
3218.0,-0.001
3217.0,-0.0009
3216.0,-0.0009
3215.0,-0.0008
3214.0,-0.0008
3213.0,-0.0008
3212.0,-0.0009
3211.0,-0.001
3210.0,-0.0011
3209.0,-0.0011
3208.0,-0.0011
3207.0,-0.001
3206.0,-0.0009
3205.0,-0.0009
3204.0,-0.001
3203.0,-0.0011
3202.0,-0.0012
3201.0,-0.0013
3200.0,-0.0013
3199.0,-0.0013
3198.0,-0.0013
3197.0,-0.0012
3196.0,-0.0012
3195.0,-0.0011
3194.0,-0.0011
3193.0,-0.0011
3192.0,-0.0011
3191.0,-0.0011
3190.0,-0.0011
3189.0,-0.0012
3188.0,-0.0012
3187.0,-0.0012
3186.0,-0.0012
3185.0,-0.0011
3184.0,-0.0012
3183.0,-0.0012
3182.0,-0.0013
3181.0,-0.0013
3180.0,-0.0013
3179.0,-0.0012
3178.0,-0.0012
3177.0,-0.0011
3176.0,-0.0011
3175.0,-0.001
3174.0,-0.001
3173.0,-0.0011
3172.0,-0.0011
3171.0,-0.0011
3170.0,-0.0012
3169.0,-0.0012
3168.0,-0.0012
3167.0,-0.0011
3166.0,-0.0011
3165.0,-0.001
3164.0,-0.0011
3163.0,-0.0011
3162.0,-0.0012
3161.0,-0.0013
3160.0,-0.0012
3159.0,-0.0012
3158.0,-0.0012
3157.0,-0.0012
3156.0,-0.0012
3155.0,-0.0011
3154.0,-0.0011
3153.0,-0.0011
3152.0,-0.0012
3151.0,-0.0012
3150.0,-0.0012
3149.0,-0.0012
3148.0,-0.0013
3147.0,-0.0013
3146.0,-0.0012
3145.0,-0.0012
3144.0,-0.0011
3143.0,-0.0011
3142.0,-0.0011
3141.0,-0.001
3140.0,-0.001
3139.0,-0.0011
3138.0,-0.0011
3137.0,-0.0011
3136.0,-0.0012
3135.0,-0.0012
3134.0,-0.0012
3133.0,-0.0012
3132.0,-0.0012
3131.0,-0.0012
3130.0,-0.0011
3129.0,-0.0011
3128.0,-0.0011
3127.0,-0.0011
3126.0,-0.0012
3125.0,-0.0013
3124.0,-0.0013
3123.0,-0.0013
3122.0,-0.0013
3121.0,-0.0012
3120.0,-0.0012
3119.0,-0.0012
3118.0,-0.0011
3117.0,-0.0011
3116.0,-0.0011
3115.0,-0.0011
3114.0,-0.0011
3113.0,-0.0011
3112.0,-0.0011
3111.0,-0.0011
3110.0,-0.0012
3109.0,-0.0012
3108.0,-0.0012
3107.0,-0.0012
3106.0,-0.0012
3105.0,-0.0012
3104.0,-0.0012
3103.0,-0.0011
3102.0,-0.001
3101.0,-0.001
3100.0,-0.001
3099.0,-0.001
3098.0,-0.001
3097.0,-0.001
3096.0,-0.001
3095.0,-0.0011
3094.0,-0.0011
3093.0,-0.0011
3092.0,-0.0011
3091.0,-0.0011
3090.0,-0.0011
3089.0,-0.0011
3088.0,-0.0011
3087.0,-0.0012
3086.0,-0.0012
3085.0,-0.0012
3084.0,-0.0012
3083.0,-0.0012
3082.0,-0.0012
3081.0,-0.0011
3080.0,-0.0011
3079.0,-0.0011
3078.0,-0.0012
3077.0,-0.0012
3076.0,-0.0012
3075.0,-0.0013
3074.0,-0.0013
3073.0,-0.0013
3072.0,-0.0013
3071.0,-0.0012
3070.0,-0.0011
3069.0,-0.0011
3068.0,-0.0011
3067.0,-0.0011
3066.0,-0.0011
3065.0,-0.0012
3064.0,-0.0012
3063.0,-0.0012
3062.0,-0.0012
3061.0,-0.0012
3060.0,-0.0012
3059.0,-0.0012
3058.0,-0.0012
3057.0,-0.0011
3056.0,-0.0011
3055.0,-0.001
3054.0,-0.001
3053.0,-0.001
3052.0,-0.001
3051.0,-0.001
3050.0,-0.001
3049.0,-0.0011
3048.0,-0.0011
3047.0,-0.0011
3046.0,-0.0012
3045.0,-0.0013
3044.0,-0.0014
3043.0,-0.0014
3042.0,-0.0014
3041.0,-0.0013
3040.0,-0.0012
3039.0,-0.0011
3038.0,-0.0011
3037.0,-0.0011
3036.0,-0.0011
3035.0,-0.0012
3034.0,-0.0012
3033.0,-0.0012
3032.0,-0.0012
3031.0,-0.0011
3030.0,-0.0011
3029.0,-0.0011
3028.0,-0.0011
3027.0,-0.0011
3026.0,-0.0011
3025.0,-0.0011
3024.0,-0.0011
3023.0,-0.0012
3022.0,-0.0012
3021.0,-0.0012
3020.0,-0.0012
3019.0,-0.0012
3018.0,-0.0012
3017.0,-0.0012
3016.0,-0.0012
3015.0,-0.0011
3014.0,-0.001
3013.0,-0.001
3012.0,-0.0009
3011.0,-0.0009
3010.0,-0.001
3009.0,-0.001
3008.0,-0.0011
3007.0,-0.0011
3006.0,-0.0011
3005.0,-0.001
3004.0,-0.001
3003.0,-0.0011
3002.0,-0.0011
3001.0,-0.0011
3000.0,-0.0011
2999.0,-0.0012
2998.0,-0.0012
2997.0,-0.0011
2996.0,-0.001
2995.0,-0.001
2994.0,-0.001
2993.0,-0.001
2992.0,-0.0011
2991.0,-0.0011
2990.0,-0.0011
2989.0,-0.0011
2988.0,-0.0011
2987.0,-0.0011
2986.0,-0.001
2985.0,-0.001
2984.0,-0.001
2983.0,-0.001
2982.0,-0.001
2981.0,-0.001
2980.0,-0.001
2979.0,-0.0009
2978.0,-0.0009
2977.0,-0.001
2976.0,-0.0011
2975.0,-0.0011
2974.0,-0.0012
2973.0,-0.0012
2972.0,-0.0012
2971.0,-0.0012
2970.0,-0.0011
2969.0,-0.0011
2968.0,-0.001
2967.0,-0.001
2966.0,-0.001
2965.0,-0.001
2964.0,-0.001
2963.0,-0.001
2962.0,-0.0009
2961.0,-0.0009
2960.0,-0.0008
2959.0,-0.0008
2958.0,-0.0008
2957.0,-0.0008
2956.0,-0.0009
2955.0,-0.0009
2954.0,-0.001
2953.0,-0.0009
2952.0,-0.0009
2951.0,-0.0008
2950.0,-0.0008
2949.0,-0.0009
2948.0,-0.0009
2947.0,-0.0009
2946.0,-0.001
2945.0,-0.001
2944.0,-0.001
2943.0,-0.0011
2942.0,-0.0011
2941.0,-0.0011
2940.0,-0.0011
2939.0,-0.001
2938.0,-0.001
2937.0,-0.001
2936.0,-0.001
2935.0,-0.001
2934.0,-0.001
2933.0,-0.001
2932.0,-0.001
2931.0,-0.001
2930.0,-0.0009
2929.0,-0.0009
2928.0,-0.0009
2927.0,-0.0009
2926.0,-0.0008
2925.0,-0.0008
2924.0,-0.0008
2923.0,-0.0008
2922.0,-0.0009
2921.0,-0.0009
2920.0,-0.0008
2919.0,-0.0009
2918.0,-0.0009
2917.0,-0.001
2916.0,-0.001
2915.0,-0.001
2914.0,-0.001
2913.0,-0.0009
2912.0,-0.0009
2911.0,-0.0009
2910.0,-0.0009
2909.0,-0.0009
2908.0,-0.0009
2907.0,-0.0009
2906.0,-0.0009
2905.0,-0.001
2904.0,-0.001
2903.0,-0.0009
2902.0,-0.0009
2901.0,-0.0009
2900.0,-0.0009
2899.0,-0.0009
2898.0,-0.001
2897.0,-0.001
2896.0,-0.001
2895.0,-0.001
2894.0,-0.001
2893.0,-0.001
2892.0,-0.001
2891.0,-0.001
2890.0,-0.0009
2889.0,-0.0009
2888.0,-0.0009
2887.0,-0.0009
2886.0,-0.0009
2885.0,-0.001
2884.0,-0.001
2883.0,-0.001
2882.0,-0.001
2881.0,-0.001
2880.0,-0.001
2879.0,-0.001
2878.0,-0.001
2877.0,-0.001
2876.0,-0.0009
2875.0,-0.0008
2874.0,-0.0008
2873.0,-0.0008
2872.0,-0.0008
2871.0,-0.0009
2870.0,-0.0009
2869.0,-0.0008
2868.0,-0.0008
2867.0,-0.0008
2866.0,-0.0008
2865.0,-0.0009
2864.0,-0.0009
2863.0,-0.001
2862.0,-0.001
2861.0,-0.0009
2860.0,-0.0009
2859.0,-0.0009
2858.0,-0.0009
2857.0,-0.0008
2856.0,-0.0007
2855.0,-0.0007
2854.0,-0.0008
2853.0,-0.0009
2852.0,-0.001
2851.0,-0.001
2850.0,-0.0009
2849.0,-0.0008
2848.0,-0.0008
2847.0,-0.0008
2846.0,-0.0008
2845.0,-0.0008
2844.0,-0.0008
2843.0,-0.0008
2842.0,-0.0009
2841.0,-0.0009
2840.0,-0.0008
2839.0,-0.0008
2838.0,-0.0008
2837.0,-0.0008
2836.0,-0.0008
2835.0,-0.0008
2834.0,-0.0008
2833.0,-0.0008
2832.0,-0.0008
2831.0,-0.0008
2830.0,-0.0009
2829.0,-0.0009
2828.0,-0.0009
2827.0,-0.0008
2826.0,-0.0008
2825.0,-0.0008
2824.0,-0.0009
2823.0,-0.0009
2822.0,-0.0009
2821.0,-0.0009
2820.0,-0.0009
2819.0,-0.0009
2818.0,-0.0009
2817.0,-0.0008
2816.0,-0.0008
2815.0,-0.0008
2814.0,-0.0008
2813.0,-0.0008
2812.0,-0.0008
2811.0,-0.0007
2810.0,-0.0007
2809.0,-0.0007
2808.0,-0.0008
2807.0,-0.0009
2806.0,-0.001
2805.0,-0.001
2804.0,-0.001
2803.0,-0.001
2802.0,-0.0009
2801.0,-0.0009
2800.0,-0.0009
2799.0,-0.0009
2798.0,-0.0009
2797.0,-0.0009
2796.0,-0.001
2795.0,-0.001
2794.0,-0.0009
2793.0,-0.0009
2792.0,-0.0008
2791.0,-0.0008
2790.0,-0.0009
2789.0,-0.0009
2788.0,-0.0008
2787.0,-0.0007
2786.0,-0.0007
2785.0,-0.0007
2784.0,-0.0007
2783.0,-0.0008
2782.0,-0.0009
2781.0,-0.0009
2780.0,-0.0008
2779.0,-0.0008
2778.0,-0.0008
2777.0,-0.0008
2776.0,-0.0008
2775.0,-0.0008
2774.0,-0.0008
2773.0,-0.0008
2772.0,-0.0008
2771.0,-0.0008
2770.0,-0.0008
2769.0,-0.0007
2768.0,-0.0008
2767.0,-0.0008
2766.0,-0.0008
2765.0,-0.0008
2764.0,-0.0007
2763.0,-0.0007
2762.0,-0.0007
2761.0,-0.0007
2760.0,-0.0007
2759.0,-0.0007
2758.0,-0.0007
2757.0,-0.0008
2756.0,-0.0008
2755.0,-0.0008
2754.0,-0.0007
2753.0,-0.0007
2752.0,-0.0007
2751.0,-0.0007
2750.0,-0.0007
2749.0,-0.0007
2748.0,-0.0008
2747.0,-0.0008
2746.0,-0.0008
2745.0,-0.0007
2744.0,-0.0007
2743.0,-0.0007
2742.0,-0.0008
2741.0,-0.0008
2740.0,-0.0008
2739.0,-0.0008
2738.0,-0.0008
2737.0,-0.0007
2736.0,-0.0007
2735.0,-0.0007
2734.0,-0.0007
2733.0,-0.0007
2732.0,-0.0007
2731.0,-0.0007
2730.0,-0.0007
2729.0,-0.0007
2728.0,-0.0007
2727.0,-0.0007
2726.0,-0.0007
2725.0,-0.0007
2724.0,-0.0007
2723.0,-0.0007
2722.0,-0.0007
2721.0,-0.0007
2720.0,-0.0007
2719.0,-0.0007
2718.0,-0.0007
2717.0,-0.0007
2716.0,-0.0007
2715.0,-0.0008
2714.0,-0.0008
2713.0,-0.0007
2712.0,-0.0006
2711.0,-0.0006
2710.0,-0.0006
2709.0,-0.0006
2708.0,-0.0006
2707.0,-0.0006
2706.0,-0.0006
2705.0,-0.0006
2704.0,-0.0006
2703.0,-0.0007
2702.0,-0.0007
2701.0,-0.0007
2700.0,-0.0006
2699.0,-0.0006
2698.0,-0.0006
2697.0,-0.0006
2696.0,-0.0006
2695.0,-0.0006
2694.0,-0.0006
2693.0,-0.0006
2692.0,-0.0005
2691.0,-0.0004
2690.0,-0.0004
2689.0,-0.0004
2688.0,-0.0004
2687.0,-0.0005
2686.0,-0.0006
2685.0,-0.0006
2684.0,-0.0006
2683.0,-0.0006
2682.0,-0.0006
2681.0,-0.0005
2680.0,-0.0006
2679.0,-0.0006
2678.0,-0.0006
2677.0,-0.0006
2676.0,-0.0006
2675.0,-0.0006
2674.0,-0.0005
2673.0,-0.0005
2672.0,-0.0005
2671.0,-0.0005
2670.0,-0.0005
2669.0,-0.0004
2668.0,-0.0004
2667.0,-0.0004
2666.0,-0.0005
2665.0,-0.0005
2664.0,-0.0005
2663.0,-0.0005
2662.0,-0.0005
2661.0,-0.0005
2660.0,-0.0005
2659.0,-0.0006
2658.0,-0.0006
2657.0,-0.0006
2656.0,-0.0006
2655.0,-0.0006
2654.0,-0.0005
2653.0,-0.0005
2652.0,-0.0005
2651.0,-0.0005
2650.0,-0.0006
2649.0,-0.0006
2648.0,-0.0006
2647.0,-0.0005
2646.0,-0.0005
2645.0,-0.0004
2644.0,-0.0004
2643.0,-0.0005
2642.0,-0.0005
2641.0,-0.0005
2640.0,-0.0005
2639.0,-0.0005
2638.0,-0.0005
2637.0,-0.0005
2636.0,-0.0005
2635.0,-0.0006
2634.0,-0.0006
2633.0,-0.0005
2632.0,-0.0005
2631.0,-0.0005
2630.0,-0.0005
2629.0,-0.0004
2628.0,-0.0004
2627.0,-0.0004
2626.0,-0.0004
2625.0,-0.0004
2624.0,-0.0004
2623.0,-0.0005
2622.0,-0.0005
2621.0,-0.0006
2620.0,-0.0006
2619.0,-0.0005
2618.0,-0.0005
2617.0,-0.0005
2616.0,-0.0006
2615.0,-0.0006
2614.0,-0.0006
2613.0,-0.0005
2612.0,-0.0005
2611.0,-0.0004
2610.0,-0.0004
2609.0,-0.0004
2608.0,-0.0004
2607.0,-0.0005
2606.0,-0.0005
2605.0,-0.0005
2604.0,-0.0005
2603.0,-0.0005
2602.0,-0.0005
2601.0,-0.0005
2600.0,-0.0005
2599.0,-0.0004
2598.0,-0.0004
2597.0,-0.0004
2596.0,-0.0004
2595.0,-0.0003
2594.0,-0.0004
2593.0,-0.0004
2592.0,-0.0004
2591.0,-0.0004
2590.0,-0.0003
2589.0,-0.0003
2588.0,-0.0003
2587.0,-0.0003
2586.0,-0.0003
2585.0,-0.0003
2584.0,-0.0003
2583.0,-0.0003
2582.0,-0.0003
2581.0,-0.0003
2580.0,-0.0003
2579.0,-0.0003
2578.0,-0.0003
2577.0,-0.0003
2576.0,-0.0003
2575.0,-0.0003
2574.0,-0.0003
2573.0,-0.0004
2572.0,-0.0004
2571.0,-0.0005
2570.0,-0.0005
2569.0,-0.0005
2568.0,-0.0005
2567.0,-0.0004
2566.0,-0.0004
2565.0,-0.0005
2564.0,-0.0005
2563.0,-0.0005
2562.0,-0.0005
2561.0,-0.0005
2560.0,-0.0004
2559.0,-0.0003
2558.0,-0.0003
2557.0,-0.0003
2556.0,-0.0003
2555.0,-0.0003
2554.0,-0.0004
2553.0,-0.0004
2552.0,-0.0004
2551.0,-0.0005
2550.0,-0.0005
2549.0,-0.0005
2548.0,-0.0005
2547.0,-0.0005
2546.0,-0.0005
2545.0,-0.0005
2544.0,-0.0005
2543.0,-0.0005
2542.0,-0.0004
2541.0,-0.0004
2540.0,-0.0004
2539.0,-0.0004
2538.0,-0.0004
2537.0,-0.0005
2536.0,-0.0005
2535.0,-0.0004
2534.0,-0.0005
2533.0,-0.0005
2532.0,-0.0005
2531.0,-0.0004
2530.0,-0.0004
2529.0,-0.0004
2528.0,-0.0005
2527.0,-0.0005
2526.0,-0.0005
2525.0,-0.0005
2524.0,-0.0005
2523.0,-0.0005
2522.0,-0.0004
2521.0,-0.0004
2520.0,-0.0004
2519.0,-0.0004
2518.0,-0.0004
2517.0,-0.0004
2516.0,-0.0004
2515.0,-0.0004
2514.0,-0.0004
2513.0,-0.0005
2512.0,-0.0005
2511.0,-0.0005
2510.0,-0.0004
2509.0,-0.0004
2508.0,-0.0003
2507.0,-0.0003
2506.0,-0.0003
2505.0,-0.0004
2504.0,-0.0004
2503.0,-0.0004
2502.0,-0.0004
2501.0,-0.0004
2500.0,-0.0003
2499.0,-0.0003
2498.0,-0.0003
2497.0,-0.0003
2496.0,-0.0003
2495.0,-0.0003
2494.0,-0.0003
2493.0,-0.0003
2492.0,-0.0003
2491.0,-0.0003
2490.0,-0.0002
2489.0,-0.0002
2488.0,-0.0002
2487.0,-0.0003
2486.0,-0.0003
2485.0,-0.0003
2484.0,-0.0003
2483.0,-0.0003
2482.0,-0.0003
2481.0,-0.0003
2480.0,-0.0003
2479.0,-0.0003
2478.0,-0.0003
2477.0,-0.0003
2476.0,-0.0003
2475.0,-0.0003
2474.0,-0.0003
2473.0,-0.0003
2472.0,-0.0003
2471.0,-0.0002
2470.0,-0.0002
2469.0,-0.0003
2468.0,-0.0003
2467.0,-0.0003
2466.0,-0.0003
2465.0,-0.0003
2464.0,-0.0002
2463.0,-0.0003
2462.0,-0.0003
2461.0,-0.0003
2460.0,-0.0003
2459.0,-0.0003
2458.0,-0.0002
2457.0,-0.0002
2456.0,-0.0003
2455.0,-0.0004
2454.0,-0.0004
2453.0,-0.0004
2452.0,-0.0004
2451.0,-0.0003
2450.0,-0.0003
2449.0,-0.0003
2448.0,-0.0003
2447.0,-0.0003
2446.0,-0.0003
2445.0,-0.0003
2444.0,-0.0004
2443.0,-0.0004
2442.0,-0.0004
2441.0,-0.0003
2440.0,-0.0003
2439.0,-0.0002
2438.0,-0.0002
2437.0,-0.0003
2436.0,-0.0003
2435.0,-0.0003
2434.0,-0.0004
2433.0,-0.0004
2432.0,-0.0004
2431.0,-0.0003
2430.0,-0.0002
2429.0,-0.0002
2428.0,-0.0003
2427.0,-0.0003
2426.0,-0.0004
2425.0,-0.0004
2424.0,-0.0004
2423.0,-0.0003
2422.0,-0.0003
2421.0,-0.0004
2420.0,-0.0004
2419.0,-0.0004
2418.0,-0.0003
2417.0,-0.0003
2416.0,-0.0003
2415.0,-0.0002
2414.0,-0.0002
2413.0,-0.0002
2412.0,-0.0002
2411.0,-0.0002
2410.0,-0.0002
2409.0,-0.0002
2408.0,-0.0003
2407.0,-0.0003
2406.0,-0.0003
2405.0,-0.0003
2404.0,-0.0003
2403.0,-0.0003
2402.0,-0.0002
2401.0,-0.0002
2400.0,-0.0002
2399.0,-0.0002
2398.0,-0.0002
2397.0,-0.0002
2396.0,-0.0003
2395.0,-0.0003
2394.0,-0.0003
2393.0,-0.0004
2392.0,-0.0004
2391.0,-0.0004
2390.0,-0.0004
2389.0,-0.0005
2388.0,-0.0006
2387.0,-0.0007
2386.0,-0.0009
2385.0,-0.0012
2384.0,-0.0016
2383.0,-0.0021
2382.0,-0.0027
2381.0,-0.0033
2380.0,-0.0039
2379.0,-0.0044
2378.0,-0.0046
2377.0,-0.0046
2376.0,-0.0043
2375.0,-0.0041
2374.0,-0.004
2373.0,-0.0042
2372.0,-0.0046
2371.0,-0.0051
2370.0,-0.0054
2369.0,-0.0056
2368.0,-0.0056
2367.0,-0.0056
2366.0,-0.0055
2365.0,-0.0055
2364.0,-0.0053
2363.0,-0.005
2362.0,-0.0049
2361.0,-0.0052
2360.0,-0.0058
2359.0,-0.0062
2358.0,-0.0068
2357.0,-0.0075
2356.0,-0.0082
2355.0,-0.0086
2354.0,-0.0088
2353.0,-0.0088
2352.0,-0.0085
2351.0,-0.008
2350.0,-0.0075
2349.0,-0.0072
2348.0,-0.0072
2347.0,-0.0075
2346.0,-0.0076
2345.0,-0.0074
2344.0,-0.0074
2343.0,-0.0077
2342.0,-0.0079
2341.0,-0.0079
2340.0,-0.0077
2339.0,-0.0075
2338.0,-0.0076
2337.0,-0.008
2336.0,-0.0084
2335.0,-0.0086
2334.0,-0.0087
2333.0,-0.009
2332.0,-0.0091
2331.0,-0.0088
2330.0,-0.0081
2329.0,-0.0073
2328.0,-0.0067
2327.0,-0.0062
2326.0,-0.006
2325.0,-0.006
2324.0,-0.006
2323.0,-0.006
2322.0,-0.0057
2321.0,-0.0052
2320.0,-0.0047
2319.0,-0.0041
2318.0,-0.0036
2317.0,-0.0033
2316.0,-0.0033
2315.0,-0.0036
2314.0,-0.004
2313.0,-0.0043
2312.0,-0.0044
2311.0,-0.0043
2310.0,-0.0041
2309.0,-0.004
2308.0,-0.0039
2307.0,-0.0037
2306.0,-0.0035
2305.0,-0.0032
2304.0,-0.003
2303.0,-0.0027
2302.0,-0.0025
2301.0,-0.0024
2300.0,-0.0023
2299.0,-0.0022
2298.0,-0.0021
2297.0,-0.002
2296.0,-0.0018
2295.0,-0.0016
2294.0,-0.0015
2293.0,-0.0013
2292.0,-0.0012
2291.0,-0.0011
2290.0,-0.001
2289.0,-0.0009
2288.0,-0.0008
2287.0,-0.0007
2286.0,-0.0006
2285.0,-0.0006
2284.0,-0.0005
2283.0,-0.0004
2282.0,-0.0004
2281.0,-0.0004
2280.0,-0.0005
2279.0,-0.0006
2278.0,-0.0007
2277.0,-0.0008
2276.0,-0.0008
2275.0,-0.0008
2274.0,-0.0008
2273.0,-0.0008
2272.0,-0.0008
2271.0,-0.0007
2270.0,-0.0007
2269.0,-0.0007
2268.0,-0.0006
2267.0,-0.0006
2266.0,-0.0005
2265.0,-0.0005
2264.0,-0.0005
2263.0,-0.0005
2262.0,-0.0005
2261.0,-0.0004
2260.0,-0.0004
2259.0,-0.0004
2258.0,-0.0003
2257.0,-0.0003
2256.0,-0.0002
2255.0,-0.0002
2254.0,-0.0002
2253.0,-0.0003
2252.0,-0.0003
2251.0,-0.0002
2250.0,-0.0002
2249.0,-0.0002
2248.0,-0.0002
2247.0,-0.0001
2246.0,-0.0001
2245.0,-0.0001
2244.0,-0.0
2243.0,-0.0
2242.0,-0.0
2241.0,-0.0
2240.0,-0.0
2239.0,-0.0001
2238.0,-0.0002
2237.0,-0.0002
2236.0,-0.0002
2235.0,-0.0002
2234.0,-0.0001
2233.0,-0.0001
2232.0,-0.0001
2231.0,-0.0001
2230.0,-0.0001
2229.0,-0.0001
2228.0,-0.0001
2227.0,-0.0001
2226.0,-0.0001
2225.0,-0.0001
2224.0,-0.0
2223.0,-0.0
2222.0,0.0
2221.0,0.0
2220.0,0.0
2219.0,0.0
2218.0,-0.0
2217.0,-0.0
2216.0,-0.0001
2215.0,-0.0001
2214.0,-0.0001
2213.0,-0.0001
2212.0,-0.0001
2211.0,-0.0001
2210.0,-0.0001
2209.0,-0.0001
2208.0,-0.0001
2207.0,-0.0001
2206.0,-0.0001
2205.0,-0.0
2204.0,-0.0
2203.0,0.0
2202.0,0.0
2201.0,0.0
2200.0,-0.0
2199.0,-0.0
2198.0,-0.0001
2197.0,-0.0001
2196.0,-0.0001
2195.0,-0.0001
2194.0,-0.0001
2193.0,-0.0002
2192.0,-0.0002
2191.0,-0.0001
2190.0,-0.0001
2189.0,-0.0
2188.0,-0.0
2187.0,-0.0
2186.0,-0.0
2185.0,-0.0
2184.0,-0.0
2183.0,-0.0
2182.0,-0.0
2181.0,0.0
2180.0,0.0
2179.0,0.0
2178.0,0.0
2177.0,0.0001
2176.0,0.0001
2175.0,0.0001
2174.0,0.0001
2173.0,0.0002
2172.0,0.0002
2171.0,0.0001
2170.0,0.0001
2169.0,0.0001
2168.0,0.0001
2167.0,0.0001
2166.0,0.0001
2165.0,0.0001
2164.0,0.0001
2163.0,0.0
2162.0,-0.0
2161.0,-0.0
2160.0,0.0
2159.0,0.0001
2158.0,0.0002
2157.0,0.0002
2156.0,0.0002
2155.0,0.0002
2154.0,0.0001
2153.0,0.0001
2152.0,0.0
2151.0,0.0
2150.0,0.0001
2149.0,0.0001
2148.0,0.0001
2147.0,0.0001
2146.0,0.0
2145.0,0.0
2144.0,0.0
2143.0,-0.0
2142.0,-0.0
2141.0,-0.0
2140.0,0.0
2139.0,0.0001
2138.0,0.0001
2137.0,0.0001
2136.0,0.0001
2135.0,0.0002
2134.0,0.0002
2133.0,0.0002
2132.0,0.0002
2131.0,0.0001
2130.0,0.0001
2129.0,0.0001
2128.0,0.0001
2127.0,0.0
2126.0,0.0
2125.0,0.0001
2124.0,0.0001
2123.0,0.0001
2122.0,0.0001
2121.0,0.0002
2120.0,0.0002
2119.0,0.0001
2118.0,0.0001
2117.0,0.0001
2116.0,0.0001
2115.0,0.0001
2114.0,0.0001
2113.0,0.0002
2112.0,0.0002
2111.0,0.0002
2110.0,0.0002
2109.0,0.0001
2108.0,0.0001
2107.0,0.0001
2106.0,0.0001
2105.0,0.0002
2104.0,0.0002
2103.0,0.0003
2102.0,0.0003
2101.0,0.0002
2100.0,0.0002
2099.0,0.0002
2098.0,0.0002
2097.0,0.0002
2096.0,0.0002
2095.0,0.0002
2094.0,0.0002
2093.0,0.0002
2092.0,0.0002
2091.0,0.0002
2090.0,0.0002
2089.0,0.0002
2088.0,0.0002
2087.0,0.0002
2086.0,0.0002
2085.0,0.0001
2084.0,0.0
2083.0,-0.0
2082.0,-0.0
2081.0,-0.0
2080.0,0.0
2079.0,0.0001
2078.0,0.0001
2077.0,0.0002
2076.0,0.0003
2075.0,0.0003
2074.0,0.0003
2073.0,0.0003
2072.0,0.0003
2071.0,0.0003
2070.0,0.0003
2069.0,0.0002
2068.0,0.0002
2067.0,0.0001
2066.0,0.0001
2065.0,0.0001
2064.0,0.0002
2063.0,0.0002
2062.0,0.0002
2061.0,0.0002
2060.0,0.0002
2059.0,0.0002
2058.0,0.0002
2057.0,0.0002
2056.0,0.0002
2055.0,0.0003
2054.0,0.0003
2053.0,0.0003
2052.0,0.0002
2051.0,0.0002
2050.0,0.0001
2049.0,0.0001
2048.0,0.0001
2047.0,0.0001
2046.0,0.0001
2045.0,0.0001
2044.0,0.0001
2043.0,0.0001
2042.0,0.0001
2041.0,0.0002
2040.0,0.0002
2039.0,0.0003
2038.0,0.0003
2037.0,0.0003
2036.0,0.0002
2035.0,0.0002
2034.0,0.0002
2033.0,0.0002
2032.0,0.0002
2031.0,0.0002
2030.0,0.0002
2029.0,0.0002
2028.0,0.0002
2027.0,0.0001
2026.0,0.0001
2025.0,0.0001
2024.0,0.0002
2023.0,0.0001
2022.0,0.0001
2021.0,0.0001
2020.0,0.0001
2019.0,0.0001
2018.0,0.0002
2017.0,0.0002
2016.0,0.0002
2015.0,0.0002
2014.0,0.0002
2013.0,0.0002
2012.0,0.0002
2011.0,0.0002
2010.0,0.0002
2009.0,0.0003
2008.0,0.0003
2007.0,0.0003
2006.0,0.0004
2005.0,0.0004
2004.0,0.0004
2003.0,0.0003
2002.0,0.0002
2001.0,0.0002
2000.0,0.0002
1999.0,0.0002
1998.0,0.0002
1997.0,0.0002
1996.0,0.0002
1995.0,0.0002
1994.0,0.0002
1993.0,0.0002
1992.0,0.0003
1991.0,0.0003
1990.0,0.0003
1989.0,0.0003
1988.0,0.0002
1987.0,0.0002
1986.0,0.0002
1985.0,0.0002
1984.0,0.0002
1983.0,0.0003
1982.0,0.0003
1981.0,0.0003
1980.0,0.0004
1979.0,0.0004
1978.0,0.0003
1977.0,0.0003
1976.0,0.0003
1975.0,0.0003
1974.0,0.0003
1973.0,0.0003
1972.0,0.0003
1971.0,0.0002
1970.0,0.0002
1969.0,0.0002
1968.0,0.0003
1967.0,0.0003
1966.0,0.0004
1965.0,0.0004
1964.0,0.0004
1963.0,0.0003
1962.0,0.0003
1961.0,0.0003
1960.0,0.0003
1959.0,0.0003
1958.0,0.0004
1957.0,0.0004
1956.0,0.0004
1955.0,0.0004
1954.0,0.0003
1953.0,0.0003
1952.0,0.0003
1951.0,0.0003
1950.0,0.0004
1949.0,0.0004
1948.0,0.0004
1947.0,0.0004
1946.0,0.0003
1945.0,0.0003
1944.0,0.0002
1943.0,0.0002
1942.0,0.0003
1941.0,0.0004
1940.0,0.0004
1939.0,0.0004
1938.0,0.0004
1937.0,0.0004
1936.0,0.0004
1935.0,0.0004
1934.0,0.0004
1933.0,0.0004
1932.0,0.0003
1931.0,0.0004
1930.0,0.0004
1929.0,0.0004
1928.0,0.0004
1927.0,0.0004
1926.0,0.0004
1925.0,0.0003
1924.0,0.0003
1923.0,0.0003
1922.0,0.0003
1921.0,0.0003
1920.0,0.0003
1919.0,0.0003
1918.0,0.0004
1917.0,0.0004
1916.0,0.0004
1915.0,0.0004
1914.0,0.0003
1913.0,0.0003
1912.0,0.0003
1911.0,0.0002
1910.0,0.0002
1909.0,0.0002
1908.0,0.0002
1907.0,0.0002
1906.0,0.0002
1905.0,0.0002
1904.0,0.0002
1903.0,0.0002
1902.0,0.0003
1901.0,0.0003
1900.0,0.0003
1899.0,0.0002
1898.0,0.0002
1897.0,0.0002
1896.0,0.0002
1895.0,0.0002
1894.0,0.0002
1893.0,0.0002
1892.0,0.0002
1891.0,0.0002
1890.0,0.0001
1889.0,0.0001
1888.0,0.0001
1887.0,0.0001
1886.0,0.0002
1885.0,0.0002
1884.0,0.0001
1883.0,0.0001
1882.0,0.0001
1881.0,0.0001
1880.0,0.0001
1879.0,0.0001
1878.0,0.0001
1877.0,0.0001
1876.0,0.0001
1875.0,0.0001
1874.0,0.0001
1873.0,0.0001
1872.0,0.0
1871.0,0.0
1870.0,0.0
1869.0,0.0
1868.0,0.0001
1867.0,0.0001
1866.0,0.0001
1865.0,0.0
1864.0,0.0
1863.0,-0.0
1862.0,0.0
1861.0,0.0
1860.0,0.0
1859.0,-0.0
1858.0,-0.0001
1857.0,-0.0001
1856.0,-0.0001
1855.0,-0.0001
1854.0,-0.0
1853.0,-0.0
1852.0,-0.0
1851.0,0.0
1850.0,0.0
1849.0,0.0
1848.0,-0.0
1847.0,-0.0
1846.0,-0.0
1845.0,-0.0
1844.0,-0.0
1843.0,-0.0
1842.0,-0.0
1841.0,-0.0001
1840.0,-0.0001
1839.0,-0.0001
1838.0,-0.0001
1837.0,-0.0001
1836.0,-0.0001
1835.0,-0.0001
1834.0,-0.0
1833.0,-0.0
1832.0,-0.0001
1831.0,-0.0001
1830.0,-0.0001
1829.0,-0.0002
1828.0,-0.0002
1827.0,-0.0002
1826.0,-0.0002
1825.0,-0.0002
1824.0,-0.0002
1823.0,-0.0002
1822.0,-0.0002
1821.0,-0.0003
1820.0,-0.0003
1819.0,-0.0003
1818.0,-0.0002
1817.0,-0.0002
1816.0,-0.0002
1815.0,-0.0002
1814.0,-0.0003
1813.0,-0.0003
1812.0,-0.0004
1811.0,-0.0004
1810.0,-0.0004
1809.0,-0.0004
1808.0,-0.0004
1807.0,-0.0004
1806.0,-0.0004
1805.0,-0.0004
1804.0,-0.0004
1803.0,-0.0004
1802.0,-0.0004
1801.0,-0.0005
1800.0,-0.0005
1799.0,-0.0006
1798.0,-0.0006
1797.0,-0.0006
1796.0,-0.0006
1795.0,-0.0006
1794.0,-0.0006
1793.0,-0.0005
1792.0,-0.0005
1791.0,-0.0005
1790.0,-0.0005
1789.0,-0.0005
1788.0,-0.0006
1787.0,-0.0006
1786.0,-0.0006
1785.0,-0.0006
1784.0,-0.0006
1783.0,-0.0007
1782.0,-0.0007
1781.0,-0.0007
1780.0,-0.0008
1779.0,-0.0008
1778.0,-0.0009
1777.0,-0.0009
1776.0,-0.0009
1775.0,-0.0008
1774.0,-0.0008
1773.0,-0.0008
1772.0,-0.0008
1771.0,-0.0008
1770.0,-0.0008
1769.0,-0.0008
1768.0,-0.0008
1767.0,-0.0008
1766.0,-0.0008
1765.0,-0.0008
1764.0,-0.0008
1763.0,-0.0007
1762.0,-0.0007
1761.0,-0.0007
1760.0,-0.0007
1759.0,-0.0007
1758.0,-0.0006
1757.0,-0.0006
1756.0,-0.0005
1755.0,-0.0004
1754.0,-0.0003
1753.0,-0.0002
1752.0,-0.0001
1751.0,0.0001
1750.0,0.0003
1749.0,0.0005
1748.0,0.0007
1747.0,0.0009
1746.0,0.0012
1745.0,0.0016
1744.0,0.002
1743.0,0.0024
1742.0,0.0029
1741.0,0.0035
1740.0,0.0042
1739.0,0.005
1738.0,0.0056
1737.0,0.0062
1736.0,0.0067
1735.0,0.0076
1734.0,0.0086
1733.0,0.0093
1732.0,0.0098
1731.0,0.0103
1730.0,0.0107
1729.0,0.0112
1728.0,0.0117
1727.0,0.0121
1726.0,0.0126
1725.0,0.013
1724.0,0.0134
1723.0,0.0137
1722.0,0.014
1721.0,0.0143
1720.0,0.0146
1719.0,0.0148
1718.0,0.0151
1717.0,0.0153
1716.0,0.0154
1715.0,0.0156
1714.0,0.0156
1713.0,0.0156
1712.0,0.0155
1711.0,0.0153
1710.0,0.015
1709.0,0.0147
1708.0,0.0143
1707.0,0.0138
1706.0,0.0133
1705.0,0.0127
1704.0,0.0123
1703.0,0.012
1702.0,0.0117
1701.0,0.011
1700.0,0.0103
1699.0,0.0099
1698.0,0.0097
1697.0,0.0095
1696.0,0.0093
1695.0,0.0089
1694.0,0.0087
1693.0,0.0086
1692.0,0.0084
1691.0,0.0082
1690.0,0.008
1689.0,0.0078
1688.0,0.0077
1687.0,0.0076
1686.0,0.0074
1685.0,0.0072
1684.0,0.0069
1683.0,0.0068
1682.0,0.0067
1681.0,0.0067
1680.0,0.0067
1679.0,0.0066
1678.0,0.0065
1677.0,0.0064
1676.0,0.0063
1675.0,0.0061
1674.0,0.006
1673.0,0.006
1672.0,0.006
1671.0,0.006
1670.0,0.0059
1669.0,0.0057
1668.0,0.0055
1667.0,0.0054
1666.0,0.0054
1665.0,0.0053
1664.0,0.0052
1663.0,0.0051
1662.0,0.005
1661.0,0.0049
1660.0,0.0049
1659.0,0.0048
1658.0,0.0047
1657.0,0.0047
1656.0,0.0048
1655.0,0.0049
1654.0,0.005
1653.0,0.0049
1652.0,0.0046
1651.0,0.0045
1650.0,0.0045
1649.0,0.0045
1648.0,0.0044
1647.0,0.0044
1646.0,0.0043
1645.0,0.0042
1644.0,0.0041
1643.0,0.0041
1642.0,0.0041
1641.0,0.004
1640.0,0.004
1639.0,0.0039
1638.0,0.0039
1637.0,0.0038
1636.0,0.0038
1635.0,0.0038
1634.0,0.0038
1633.0,0.0039
1632.0,0.0038
1631.0,0.0038
1630.0,0.0037
1629.0,0.0037
1628.0,0.0037
1627.0,0.0037
1626.0,0.0037
1625.0,0.0036
1624.0,0.0035
1623.0,0.0035
1622.0,0.0034
1621.0,0.0034
1620.0,0.0034
1619.0,0.0033
1618.0,0.0032
1617.0,0.0032
1616.0,0.0033
1615.0,0.0034
1614.0,0.0035
1613.0,0.0035
1612.0,0.0035
1611.0,0.0035
1610.0,0.0035
1609.0,0.0035
1608.0,0.0035
1607.0,0.0035
1606.0,0.0034
1605.0,0.0033
1604.0,0.0033
1603.0,0.0032
1602.0,0.0031
1601.0,0.003
1600.0,0.003
1599.0,0.003
1598.0,0.003
1597.0,0.0029
1596.0,0.0029
1595.0,0.0029
1594.0,0.0029
1593.0,0.0029
1592.0,0.0028
1591.0,0.0028
1590.0,0.0028
1589.0,0.0027
1588.0,0.0027
1587.0,0.0027
1586.0,0.0027
1585.0,0.0028
1584.0,0.0029
1583.0,0.0029
1582.0,0.003
1581.0,0.0031
1580.0,0.0033
1579.0,0.0034
1578.0,0.0034
1577.0,0.0034
1576.0,0.0034
1575.0,0.0033
1574.0,0.0033
1573.0,0.0033
1572.0,0.0032
1571.0,0.0031
1570.0,0.0029
1569.0,0.0028
1568.0,0.0028
1567.0,0.0028
1566.0,0.0028
1565.0,0.0028
1564.0,0.0028
1563.0,0.0028
1562.0,0.0028
1561.0,0.0027
1560.0,0.0026
1559.0,0.0026
1558.0,0.0025
1557.0,0.0025
1556.0,0.0026
1555.0,0.0025
1554.0,0.0025
1553.0,0.0025
1552.0,0.0024
1551.0,0.0024
1550.0,0.0025
1549.0,0.0025
1548.0,0.0025
1547.0,0.0025
1546.0,0.0024
1545.0,0.0024
1544.0,0.0024
1543.0,0.0024
1542.0,0.0024
1541.0,0.0024
1540.0,0.0023
1539.0,0.0021
1538.0,0.002
1537.0,0.002
1536.0,0.002
1535.0,0.002
1534.0,0.0021
1533.0,0.0021
1532.0,0.0021
1531.0,0.0021
1530.0,0.0021
1529.0,0.0021
1528.0,0.0021
1527.0,0.0021
1526.0,0.0021
1525.0,0.002
1524.0,0.002
1523.0,0.0019
1522.0,0.0019
1521.0,0.0019
1520.0,0.0019
1519.0,0.0019
1518.0,0.002
1517.0,0.002
1516.0,0.0019
1515.0,0.0019
1514.0,0.0019
1513.0,0.0019
1512.0,0.0019
1511.0,0.0019
1510.0,0.0019
1509.0,0.0021
1508.0,0.0024
1507.0,0.0031
1506.0,0.0034
1505.0,0.0034
1504.0,0.0033
1503.0,0.0032
1502.0,0.003
1501.0,0.0028
1500.0,0.0025
1499.0,0.0023
1498.0,0.0022
1497.0,0.002
1496.0,0.0019
1495.0,0.0018
1494.0,0.0017
1493.0,0.0017
1492.0,0.0017
1491.0,0.0016
1490.0,0.0016
1489.0,0.0016
1488.0,0.0016
1487.0,0.0015
1486.0,0.0015
1485.0,0.0014
1484.0,0.0014
1483.0,0.0014
1482.0,0.0013
1481.0,0.0013
1480.0,0.0013
1479.0,0.0013
1478.0,0.0013
1477.0,0.0013
1476.0,0.0013
1475.0,0.0013
1474.0,0.0013
1473.0,0.0013
1472.0,0.0013
1471.0,0.0013
1470.0,0.0013
1469.0,0.0013
1468.0,0.0014
1467.0,0.0014
1466.0,0.0015
1465.0,0.0016
1464.0,0.0018
1463.0,0.0019
1462.0,0.002
1461.0,0.0022
1460.0,0.0023
1459.0,0.0025
1458.0,0.0028
1457.0,0.0031
1456.0,0.0032
1455.0,0.0032
1454.0,0.0033
1453.0,0.0034
1452.0,0.0034
1451.0,0.0034
1450.0,0.0034
1449.0,0.0034
1448.0,0.0034
1447.0,0.0034
1446.0,0.0033
1445.0,0.0034
1444.0,0.0034
1443.0,0.0034
1442.0,0.0034
1441.0,0.0033
1440.0,0.0033
1439.0,0.0033
1438.0,0.0033
1437.0,0.0031
1436.0,0.003
1435.0,0.0028
1434.0,0.0026
1433.0,0.0024
1432.0,0.0022
1431.0,0.002
1430.0,0.0018
1429.0,0.0016
1428.0,0.0015
1427.0,0.0013
1426.0,0.0012
1425.0,0.0011
1424.0,0.001
1423.0,0.001
1422.0,0.0011
1421.0,0.0011
1420.0,0.0011
1419.0,0.0012
1418.0,0.0015
1417.0,0.0018
1416.0,0.0023
1415.0,0.0029
1414.0,0.0037
1413.0,0.0047
1412.0,0.0058
1411.0,0.0068
1410.0,0.0075
1409.0,0.008
1408.0,0.0082
1407.0,0.0081
1406.0,0.0077
1405.0,0.0071
1404.0,0.0066
1403.0,0.0061
1402.0,0.0058
1401.0,0.0055
1400.0,0.0052
1399.0,0.0049
1398.0,0.0046
1397.0,0.0043
1396.0,0.0041
1395.0,0.0039
1394.0,0.0037
1393.0,0.0035
1392.0,0.0034
1391.0,0.0032
1390.0,0.003
1389.0,0.0029
1388.0,0.0028
1387.0,0.0027
1386.0,0.0026
1385.0,0.0025
1384.0,0.0025
1383.0,0.0025
1382.0,0.0026
1381.0,0.0026
1380.0,0.0027
1379.0,0.0028
1378.0,0.0029
1377.0,0.0031
1376.0,0.0032
1375.0,0.0034
1374.0,0.0036
1373.0,0.0039
1372.0,0.004
1371.0,0.0041
1370.0,0.0042
1369.0,0.0041
1368.0,0.004
1367.0,0.0038
1366.0,0.0036
1365.0,0.0032
1364.0,0.0028
1363.0,0.0024
1362.0,0.0021
1361.0,0.0019
1360.0,0.0016
1359.0,0.0014
1358.0,0.0012
1357.0,0.0011
1356.0,0.001
1355.0,0.0009
1354.0,0.0009
1353.0,0.0009
1352.0,0.0008
1351.0,0.0008
1350.0,0.0009
1349.0,0.0009
1348.0,0.001
1347.0,0.0012
1346.0,0.0013
1345.0,0.0015
1344.0,0.0017
1343.0,0.0018
1342.0,0.0019
1341.0,0.0021
1340.0,0.0021
1339.0,0.0021
1338.0,0.002
1337.0,0.0018
1336.0,0.0016
1335.0,0.0014
1334.0,0.0012
1333.0,0.0011
1332.0,0.001
1331.0,0.001
1330.0,0.001
1329.0,0.001
1328.0,0.0011
1327.0,0.0012
1326.0,0.0013
1325.0,0.0014
1324.0,0.0016
1323.0,0.0017
1322.0,0.0019
1321.0,0.0021
1320.0,0.0023
1319.0,0.0026
1318.0,0.0028
1317.0,0.003
1316.0,0.0032
1315.0,0.0034
1314.0,0.0036
1313.0,0.0038
1312.0,0.0041
1311.0,0.0044
1310.0,0.0046
1309.0,0.005
1308.0,0.0053
1307.0,0.0056
1306.0,0.0059
1305.0,0.0063
1304.0,0.0066
1303.0,0.007
1302.0,0.0074
1301.0,0.008
1300.0,0.0087
1299.0,0.0094
1298.0,0.0102
1297.0,0.011
1296.0,0.0117
1295.0,0.0125
1294.0,0.0132
1293.0,0.0139
1292.0,0.0146
1291.0,0.0152
1290.0,0.0157
1289.0,0.0162
1288.0,0.0167
1287.0,0.0171
1286.0,0.0175
1285.0,0.0178
1284.0,0.0181
1283.0,0.0183
1282.0,0.0185
1281.0,0.0186
1280.0,0.0187
1279.0,0.0188
1278.0,0.019
1277.0,0.0193
1276.0,0.0196
1275.0,0.0199
1274.0,0.0203
1273.0,0.0208
1272.0,0.0214
1271.0,0.022
1270.0,0.0227
1269.0,0.0234
1268.0,0.0241
1267.0,0.0247
1266.0,0.0253
1265.0,0.0259
1264.0,0.0263
1263.0,0.0267
1262.0,0.0271
1261.0,0.0274
1260.0,0.0276
1259.0,0.0277
1258.0,0.0278
1257.0,0.0279
1256.0,0.0279
1255.0,0.0279
1254.0,0.028
1253.0,0.0281
1252.0,0.0284
1251.0,0.0287
1250.0,0.029
1249.0,0.0293
1248.0,0.0297
1247.0,0.0301
1246.0,0.0306
1245.0,0.0311
1244.0,0.0317
1243.0,0.0322
1242.0,0.0327
1241.0,0.0331
1240.0,0.0335
1239.0,0.0339
1238.0,0.0341
1237.0,0.0342
1236.0,0.0342
1235.0,0.034
1234.0,0.0336
1233.0,0.0332
1232.0,0.0326
1231.0,0.0321
1230.0,0.0314
1229.0,0.0308
1228.0,0.0301
1227.0,0.0295
1226.0,0.0288
1225.0,0.0281
1224.0,0.0274
1223.0,0.0268
1222.0,0.0262
1221.0,0.0256
1220.0,0.025
1219.0,0.0244
1218.0,0.0238
1217.0,0.0232
1216.0,0.0227
1215.0,0.0222
1214.0,0.0217
1213.0,0.0211
1212.0,0.0207
1211.0,0.0203
1210.0,0.0199
1209.0,0.0195
1208.0,0.0191
1207.0,0.0188
1206.0,0.0184
1205.0,0.018
1204.0,0.0177
1203.0,0.0174
1202.0,0.0171
1201.0,0.0168
1200.0,0.0166
1199.0,0.0163
1198.0,0.016
1197.0,0.0157
1196.0,0.0154
1195.0,0.0151
1194.0,0.0149
1193.0,0.0146
1192.0,0.0143
1191.0,0.0141
1190.0,0.0138
1189.0,0.0136
1188.0,0.0134
1187.0,0.0132
1186.0,0.013
1185.0,0.0128
1184.0,0.0127
1183.0,0.0126
1182.0,0.0125
1181.0,0.0125
1180.0,0.0126
1179.0,0.0126
1178.0,0.0127
1177.0,0.0128
1176.0,0.0129
1175.0,0.0129
1174.0,0.0129
1173.0,0.0129
1172.0,0.0128
1171.0,0.0126
1170.0,0.0123
1169.0,0.0119
1168.0,0.0116
1167.0,0.0112
1166.0,0.0109
1165.0,0.0106
1164.0,0.0103
1163.0,0.01
1162.0,0.0097
1161.0,0.0094
1160.0,0.0092
1159.0,0.0089
1158.0,0.0088
1157.0,0.0086
1156.0,0.0085
1155.0,0.0085
1154.0,0.0085
1153.0,0.0085
1152.0,0.0087
1151.0,0.0089
1150.0,0.0091
1149.0,0.0095
1148.0,0.0099
1147.0,0.0104
1146.0,0.011
1145.0,0.0116
1144.0,0.0122
1143.0,0.0129
1142.0,0.0135
1141.0,0.0141
1140.0,0.0146
1139.0,0.0152
1138.0,0.0156
1137.0,0.0161
1136.0,0.0166
1135.0,0.0169
1134.0,0.0173
1133.0,0.0176
1132.0,0.018
1131.0,0.0185
1130.0,0.019
1129.0,0.0196
1128.0,0.0203
1127.0,0.021
1126.0,0.0218
1125.0,0.0227
1124.0,0.0236
1123.0,0.0245
1122.0,0.0253
1121.0,0.026
1120.0,0.0266
1119.0,0.0271
1118.0,0.0274
1117.0,0.0275
1116.0,0.0274
1115.0,0.0272
1114.0,0.0269
1113.0,0.0266
1112.0,0.0263
1111.0,0.0262
1110.0,0.0263
1109.0,0.0267
1108.0,0.0273
1107.0,0.0283
1106.0,0.0294
1105.0,0.0307
1104.0,0.0319
1103.0,0.0333
1102.0,0.0346
1101.0,0.0358
1100.0,0.037
1099.0,0.0381
1098.0,0.0391
1097.0,0.04
1096.0,0.0408
1095.0,0.0415
1094.0,0.0421
1093.0,0.0426
1092.0,0.043
1091.0,0.0432
1090.0,0.0433
1089.0,0.0432
1088.0,0.0431
1087.0,0.0428
1086.0,0.0424
1085.0,0.042
1084.0,0.0416
1083.0,0.0411
1082.0,0.0406
1081.0,0.0401
1080.0,0.0395
1079.0,0.0389
1078.0,0.0381
1077.0,0.0373
1076.0,0.0364
1075.0,0.0355
1074.0,0.0346
1073.0,0.0338
1072.0,0.033
1071.0,0.0322
1070.0,0.0313
1069.0,0.0304
1068.0,0.0297
1067.0,0.0289
1066.0,0.0282
1065.0,0.0276
1064.0,0.0269
1063.0,0.0263
1062.0,0.0257
1061.0,0.0251
1060.0,0.0246
1059.0,0.0241
1058.0,0.0237
1057.0,0.0233
1056.0,0.023
1055.0,0.0228
1054.0,0.0227
1053.0,0.0226
1052.0,0.0227
1051.0,0.0228
1050.0,0.023
1049.0,0.0233
1048.0,0.0236
1047.0,0.0239
1046.0,0.0242
1045.0,0.0245
1044.0,0.0247
1043.0,0.025
1042.0,0.0252
1041.0,0.0253
1040.0,0.0254
1039.0,0.0254
1038.0,0.0253
1037.0,0.0251
1036.0,0.0249
1035.0,0.0247
1034.0,0.0246
1033.0,0.0244
1032.0,0.0242
1031.0,0.024
1030.0,0.0237
1029.0,0.0234
1028.0,0.0231
1027.0,0.0228
1026.0,0.0224
1025.0,0.0222
1024.0,0.0221
1023.0,0.0225
1022.0,0.0234
1021.0,0.0249
1020.0,0.027
1019.0,0.0294
1018.0,0.0317
1017.0,0.0337
1016.0,0.035
1015.0,0.0354
1014.0,0.0349
1013.0,0.0338
1012.0,0.0325
1011.0,0.0313
1010.0,0.0301
1009.0,0.0291
1008.0,0.0282
1007.0,0.0274
1006.0,0.0267
1005.0,0.0261
1004.0,0.0256
1003.0,0.0252
1002.0,0.0249
1001.0,0.0246
1000.0,0.0242
999.0,0.0239
998.0,0.0235
997.0,0.0232
996.0,0.023
995.0,0.0228
994.0,0.0226
993.0,0.0224
992.0,0.0222
991.0,0.022
990.0,0.0219
989.0,0.0218
988.0,0.0216
987.0,0.0215
986.0,0.0214
985.0,0.0214
984.0,0.0213
983.0,0.0211
982.0,0.021
981.0,0.0209
980.0,0.0209
979.0,0.0209
978.0,0.0209
977.0,0.0209
976.0,0.0209
975.0,0.0209
974.0,0.0209
973.0,0.0209
972.0,0.0208
971.0,0.0208
970.0,0.0207
969.0,0.0206
968.0,0.0206
967.0,0.0205
966.0,0.0204
965.0,0.0203
964.0,0.0201
963.0,0.02
962.0,0.0198
961.0,0.0197
960.0,0.0196
959.0,0.0195
958.0,0.0193
957.0,0.0193
956.0,0.0192
955.0,0.0191
954.0,0.0191
953.0,0.019
952.0,0.0189
951.0,0.0188
950.0,0.0187
949.0,0.0187
948.0,0.0186
947.0,0.0185
946.0,0.0184
945.0,0.0183
944.0,0.0183
943.0,0.0183
942.0,0.0182
941.0,0.0182
940.0,0.0181
939.0,0.0181
938.0,0.018
937.0,0.0179
936.0,0.0179
935.0,0.0179
934.0,0.0178
933.0,0.0178
932.0,0.0178
931.0,0.0177
930.0,0.0176
929.0,0.0175
928.0,0.0174
927.0,0.0173
926.0,0.0172
925.0,0.0171
924.0,0.017
923.0,0.0169
922.0,0.0168
921.0,0.0167
920.0,0.0166
919.0,0.0165
918.0,0.0164
917.0,0.0163
916.0,0.0162
915.0,0.0161
914.0,0.016
913.0,0.0159
912.0,0.016
911.0,0.0161
910.0,0.0163
909.0,0.0166
908.0,0.0168
907.0,0.017
906.0,0.0172
905.0,0.0175
904.0,0.0178
903.0,0.0181
902.0,0.0186
901.0,0.019
900.0,0.0193
899.0,0.0196
898.0,0.0198
897.0,0.02
896.0,0.0202
895.0,0.0203
894.0,0.0204
893.0,0.0204
892.0,0.0204
891.0,0.0204
890.0,0.0204
889.0,0.0204
888.0,0.0205
887.0,0.0206
886.0,0.0208
885.0,0.021
884.0,0.0212
883.0,0.0215
882.0,0.0219
881.0,0.0225
880.0,0.0233
879.0,0.0241
878.0,0.0249
877.0,0.0258
876.0,0.0268
875.0,0.0278
874.0,0.0288
873.0,0.0295
872.0,0.0299
871.0,0.0299
870.0,0.0296
869.0,0.0291
868.0,0.0284
867.0,0.0277
866.0,0.027
865.0,0.0262
864.0,0.0254
863.0,0.0247
862.0,0.0242
861.0,0.0239
860.0,0.0236
859.0,0.0233
858.0,0.023
857.0,0.0228
856.0,0.0226
855.0,0.0226
854.0,0.0225
853.0,0.0225
852.0,0.0225
851.0,0.0225
850.0,0.0225
849.0,0.0225
848.0,0.0224
847.0,0.0223
846.0,0.0223
845.0,0.0223
844.0,0.0224
843.0,0.0224
842.0,0.0225
841.0,0.0226
840.0,0.0228
839.0,0.0228
838.0,0.0228
837.0,0.0227
836.0,0.0227
835.0,0.0226
834.0,0.0225
833.0,0.0223
832.0,0.0221
831.0,0.022
830.0,0.0218
829.0,0.0216
828.0,0.0214
827.0,0.0212
826.0,0.0211
825.0,0.0209
824.0,0.0208
823.0,0.0207
822.0,0.0206
821.0,0.0207
820.0,0.0207
819.0,0.0207
818.0,0.0207
817.0,0.0208
816.0,0.0208
815.0,0.0207
814.0,0.0207
813.0,0.0207
812.0,0.0207
811.0,0.0206
810.0,0.0205
809.0,0.0205
808.0,0.0205
807.0,0.0205
806.0,0.0205
805.0,0.0204
804.0,0.0204
803.0,0.0203
802.0,0.0202
801.0,0.02
800.0,0.0199
799.0,0.0198
798.0,0.0199
797.0,0.0202
796.0,0.0208
795.0,0.0215
794.0,0.0221
793.0,0.0226
792.0,0.0227
791.0,0.0226
790.0,0.0222
789.0,0.0217
788.0,0.0213
787.0,0.0208
786.0,0.0204
785.0,0.0199
784.0,0.0195
783.0,0.0191
782.0,0.0187
781.0,0.0183
780.0,0.0181
779.0,0.0179
778.0,0.0177
777.0,0.0174
776.0,0.0172
775.0,0.0169
774.0,0.0166
773.0,0.0164
772.0,0.0161
771.0,0.0157
770.0,0.0154
769.0,0.015
768.0,0.0148
767.0,0.0146
766.0,0.0144
765.0,0.0143
764.0,0.0142
763.0,0.0139
762.0,0.0135
761.0,0.0131
760.0,0.0127
759.0,0.0122
758.0,0.0118
757.0,0.0114
756.0,0.0111
755.0,0.0107
754.0,0.0103
753.0,0.0099
752.0,0.0093
751.0,0.0086
750.0,0.008
749.0,0.0075
748.0,0.0073
747.0,0.0073
746.0,0.0074
745.0,0.0077
744.0,0.0082
743.0,0.0091
742.0,0.0104
741.0,0.0126
740.0,0.0158
739.0,0.0197
738.0,0.0241
737.0,0.0289
736.0,0.034
735.0,0.0391
734.0,0.0443
733.0,0.0495
732.0,0.0549
731.0,0.0603
730.0,0.0658
729.0,0.0714
728.0,0.0771
727.0,0.0825
726.0,0.0871
725.0,0.0907
724.0,0.0926
723.0,0.0923
722.0,0.0895
721.0,0.085
720.0,0.0798
719.0,0.0747
718.0,0.0702
717.0,0.066
716.0,0.0622
715.0,0.0589
714.0,0.0561
713.0,0.0538
712.0,0.052
711.0,0.0504
710.0,0.0491
709.0,0.0482
708.0,0.0475
707.0,0.0469
706.0,0.0464
705.0,0.046
704.0,0.0455
703.0,0.0446
702.0,0.0433
701.0,0.042
700.0,0.0408
699.0,0.0397
698.0,0.0389
697.0,0.0383
696.0,0.038
695.0,0.0376
694.0,0.0368
693.0,0.036
692.0,0.0352
691.0,0.0346
690.0,0.034
689.0,0.0334
688.0,0.0328
687.0,0.0321
686.0,0.031
685.0,0.0297
684.0,0.0286
683.0,0.028
682.0,0.0279
681.0,0.0281
680.0,0.0287
679.0,0.0298
678.0,0.0309
677.0,0.0316
676.0,0.0317
675.0,0.0311
674.0,0.0305
673.0,0.03
672.0,0.0297
671.0,0.03
670.0,0.0309
669.0,0.0319
668.0,0.0327
667.0,0.033
666.0,0.0315
665.0,0.0293
664.0,0.0281
663.0,0.0278
662.0,0.0277
661.0,0.0279
660.0,0.0284
659.0,0.0288
658.0,0.0286
657.0,0.028
656.0,0.0275
655.0,0.0275
654.0,0.0279
653.0,0.0279
652.0,0.0275
651.0,0.0267
650.0,0.0259
649.0,0.0257
648.0,0.026
647.0,0.0266
646.0,0.027
645.0,0.0274
644.0,0.0277
643.0,0.0279
642.0,0.0278
641.0,0.0276
640.0,0.0272
639.0,0.0268
638.0,0.0265
637.0,0.0264
636.0,0.0266
635.0,0.0267
634.0,0.0267
633.0,0.0269
632.0,0.0275
631.0,0.0283
630.0,0.0291
629.0,0.0294
628.0,0.0295
627.0,0.0293
626.0,0.029
625.0,0.0287
624.0,0.0285
623.0,0.0283
622.0,0.0283
621.0,0.0283
620.0,0.0281
619.0,0.0277
618.0,0.0272
617.0,0.0271
616.0,0.0275
615.0,0.0281
614.0,0.0288
613.0,0.0293
612.0,0.0295
611.0,0.0293
610.0,0.029
609.0,0.0288
608.0,0.0286
607.0,0.0285
606.0,0.0285
605.0,0.029
604.0,0.0298
603.0,0.0303
602.0,0.0302
601.0,0.0294
600.0,0.0285
