nm,Intensity
791.588,4835.4
791.862,4818.0
792.136,4802.0
792.411,4771.6
792.685,4754.8
792.959,4724.2
793.233,4702.1
793.507,4714.2
793.781,4687.9
794.056,4682.4
794.33,4677.4
794.604,4678.3
794.878,4690.6
795.152,4679.0
795.426,4687.3
795.701,4695.7
795.975,4711.3
796.249,4684.0
796.523,4687.5
796.797,4667.2
797.071,4682.2
797.345,4665.7
797.619,4657.7
797.894,4660.8
798.168,4643.1
798.442,4645.9
798.716,4638.2
798.99,4640.1
799.264,4634.4
799.538,4656.0
799.812,4640.8
800.086,4661.1
800.36,4662.9
800.634,4675.8
800.908,4656.2
801.182,4638.2
801.456,4631.8
801.73,4630.2
802.004,4608.6
802.278,4596.0
802.552,4581.2
802.826,4603.8
803.1,4601.8
803.374,4583.9
803.648,4579.9
803.922,4566.4
804.196,4558.6
804.47,4576.6
804.744,4586.2
805.018,4593.3
805.292,4580.6
805.566,4589.9
805.84,4579.0
806.114,4571.9
806.388,4568.1
806.662,4567.0
806.936,4559.9
807.209,4560.5
807.483,4552.5
807.757,4555.5
808.031,4557.0
808.305,4551.4
808.579,4536.7
808.853,4551.8
809.127,4561.0
809.4,4539.7
809.674,4576.7
809.948,4627.6
810.222,4669.1
810.496,4652.8
810.77,4619.6
811.043,4585.3
811.317,4554.0
811.591,4543.6
811.865,4550.9
812.139,4558.1
812.412,4550.0
812.686,4545.2
812.96,4533.7
813.234,4538.9
813.507,4564.5
813.781,4555.9
814.055,4563.4
814.329,4555.3
814.602,4518.5
814.876,4510.8
815.15,4483.2
815.424,4481.5
815.697,4477.0
815.971,4468.8
816.245,4467.0
816.518,4459.2
816.792,4442.1
817.066,4449.7
817.34,4451.7
817.613,4448.1
817.887,4448.3
818.161,4445.3
818.434,4448.2
818.708,4456.3
818.981,4453.4
819.255,4442.1
819.529,4451.9
819.802,4411.0
820.076,4423.8
820.35,4428.3
820.623,4424.2
820.897,4430.3
821.17,4421.7
821.444,4405.4
821.718,4401.2
821.991,4405.9
822.265,4409.3
822.538,4398.6
822.812,4409.0
823.085,4419.0
823.359,4406.8
823.632,4421.8
823.906,4408.1
824.18,4418.0
824.453,4413.0
824.727,4408.6
825.0,4410.3
825.274,4408.9
825.547,4385.8
825.821,4379.5
826.094,4386.9
826.367,4372.4
826.641,4375.5
826.914,4363.1
827.188,4347.0
827.461,4339.6
827.735,4335.3
828.008,4354.1
828.282,4340.9
828.555,4350.1
828.828,4339.5
829.102,4343.7
829.375,4344.2
829.649,4350.8
829.922,4339.8
830.195,4325.0
830.469,4315.9
830.742,4326.0
831.016,4326.8
831.289,4315.3
831.562,4306.3
831.836,4303.9
832.109,4312.1
832.382,4306.1
832.656,4311.6
832.929,4307.3
833.202,4319.0
833.476,4303.3
833.749,4313.9
834.022,4314.9
834.295,4301.1
834.569,4295.2
834.842,4306.6
835.115,4309.2
835.388,4311.1
835.662,4294.4
835.935,4302.0
836.208,4295.8
836.481,4289.9
836.755,4311.1
837.028,4327.0
837.301,4345.2
837.574,4394.9
837.848,4445.5
838.121,4487.8
838.394,4459.2
838.667,4411.8
838.94,4373.1
839.213,4344.7
839.487,4348.1
839.76,4360.0
840.033,4385.9
840.306,4398.3
840.579,4393.4
840.852,4342.6
841.125,4316.1
841.399,4298.1
841.672,4287.5
841.945,4288.9
842.218,4291.1
842.491,4269.2
842.764,4282.1
843.037,4276.4
843.31,4258.1
843.583,4267.7
843.856,4285.5
844.129,4272.4
844.402,4265.6
844.675,4267.1
844.948,4268.7
845.221,4261.9
845.495,4262.2
845.768,4247.9
846.041,4244.0
846.314,4255.5
846.586,4253.5
846.859,4267.2
847.132,4261.6
847.405,4261.3
847.678,4273.9
847.951,4263.6
848.224,4260.9
848.497,4264.3
848.77,4262.6
849.043,4287.3
849.316,4307.0
849.589,4322.0
849.862,4320.4
850.135,4300.3
850.408,4286.4
850.681,4249.9
850.953,4260.0
851.226,4274.2
851.499,4271.8
851.772,4273.8
852.045,4270.5
852.318,4273.2
852.591,4254.3
852.863,4248.8
853.136,4238.4
853.409,4244.7
853.682,4259.3
853.955,4256.6
854.227,4262.8
854.5,4254.8
854.773,4261.5
855.046,4255.0
855.318,4242.5
855.591,4251.2
855.864,4244.8
856.137,4223.7
856.409,4218.6
856.682,4229.1
856.955,4227.4
857.228,4214.4
857.5,4215.0
857.773,4223.4
858.046,4217.4
858.318,4207.1
858.591,4220.7
858.864,4211.4
859.137,4219.8
859.409,4221.0
859.682,4227.8
859.954,4210.3
860.227,4213.5
860.5,4215.1
860.772,4211.3
861.045,4215.6
861.318,4221.2
861.59,4224.3
861.863,4225.3
862.135,4241.0
862.408,4252.7
862.681,4287.9
862.953,4300.0
863.226,4284.2
863.498,4298.7
863.771,4297.3
864.043,4287.7
864.316,4280.5
864.588,4259.5
864.861,4230.9
865.133,4213.1
865.406,4211.7
865.678,4196.3
865.951,4200.1
866.223,4199.6
866.496,4197.0
866.768,4194.5
867.041,4208.3
867.313,4204.6
867.586,4214.5
867.858,4221.3
868.131,4207.0
868.403,4211.7
868.675,4204.3
868.948,4185.1
869.22,4186.2
869.493,4178.4
869.765,4181.8
870.037,4195.0
870.31,4189.2
870.582,4198.9
870.854,4190.4
871.127,4181.7
871.399,4177.1
871.672,4169.6
871.944,4176.3
872.216,4184.4
872.488,4172.4
872.761,4175.2
873.033,4191.5
873.305,4196.1
873.578,4199.2
873.85,4199.2
874.122,4192.0
874.394,4200.5
874.667,4199.9
874.939,4203.0
875.211,4196.2
875.483,4222.0
875.756,4231.2
876.028,4245.8
876.3,4240.3
876.572,4244.0
876.845,4236.4
877.117,4216.2
877.389,4197.2
877.661,4198.8
877.933,4193.4
878.205,4195.3
878.478,4181.6
878.75,4182.0
879.022,4181.0
879.294,4164.8
879.566,4154.9
879.838,4151.3
880.11,4139.5
880.382,4125.7
880.654,4126.8
880.927,4127.7
881.199,4125.4
881.471,4125.1
881.743,4119.9
882.015,4120.8
882.287,4115.5
882.559,4113.0
882.831,4113.3
883.103,4115.0
883.375,4134.2
883.647,4146.9
883.919,4153.8
884.191,4155.0
884.463,4161.5
884.735,4175.4
885.007,4180.1
885.279,4201.6
885.551,4213.7
885.823,4233.9
886.095,4225.5
886.367,4212.1
886.639,4199.0
886.91,4184.4
887.182,4171.6
887.454,4144.4
887.726,4118.3
887.998,4095.0
888.27,4090.5
888.542,4090.7
888.814,4082.0
889.085,4076.3
889.357,4076.2
889.629,4077.9
889.901,4062.9
890.173,4080.5
890.445,4078.0
890.716,4072.4
890.988,4075.0
891.26,4077.0
891.532,4073.4
891.804,4070.3
892.075,4074.3
892.347,4077.0
892.619,4071.5
892.891,4076.6
893.162,4065.9
893.434,4058.6
893.706,4062.3
893.978,4052.5
894.249,4045.0
894.521,4046.7
894.793,4053.5
895.064,4049.9
895.336,4045.8
895.608,4047.8
895.879,4051.9
896.151,4048.3
896.423,4047.1
896.694,4043.5
896.966,4039.3
897.237,4029.6
897.509,4034.8
897.781,4034.9
898.052,4036.5
898.324,4034.2
898.595,4029.5
898.867,4029.2
899.139,4028.7
899.41,4027.4
899.682,4026.8
899.953,4025.2
900.225,4016.8
900.496,4008.5
900.768,4018.1
901.039,4008.7
901.311,4008.1
901.582,4003.0
901.854,4001.9
902.125,4006.2
902.397,4005.5
902.668,4003.3
902.94,3999.5
903.211,4011.2
903.482,3998.8
903.754,3993.9
904.025,3991.4
904.297,3990.5
904.568,4000.5
904.839,3991.9
905.111,3992.7
905.382,3993.3
905.654,3995.5
905.925,3989.6
906.196,3980.4
906.468,3975.8
906.739,3982.4
907.01,3983.4
907.282,3986.4
907.553,3981.7
907.824,3973.6
908.096,3970.0
908.367,3970.0
908.638,3965.8
908.909,3976.5
909.181,3972.0
909.452,3972.2
909.723,3967.5
909.994,3963.8
910.266,3967.2
910.537,3971.3
910.808,3962.2
911.079,3958.0
911.35,3961.0
911.622,3960.3
911.893,3959.0
912.164,3958.1
912.435,3957.3
912.706,3954.5
912.977,3956.5
913.249,3955.9
913.52,3956.1
913.791,3945.5
914.062,3948.0
914.333,3950.0
914.604,3949.6
914.875,3944.1
915.146,3948.5
915.417,3943.0
915.688,3938.2
915.959,3938.0
916.231,3940.0
916.502,3937.6
916.773,3938.0
917.044,3935.8
917.315,3934.5
917.586,3930.7
917.857,3933.1
918.128,3937.8
918.399,3935.9
918.67,3926.8
918.941,3929.7
919.211,3933.0
919.482,3929.8
919.753,3931.9
920.024,3925.6
920.295,3931.7
920.566,3919.9
920.837,3923.1
921.108,3929.9
921.379,3922.6
921.65,3920.7
921.921,3920.2
922.191,3920.1
922.462,3915.2
922.733,3912.4
923.004,3916.6
923.275,3916.4
923.546,3911.4
923.816,3913.6
924.087,3913.9
924.358,3912.7
924.629,3907.4
924.9,3908.9
925.17,3904.8
925.441,3906.0
925.712,3903.0
925.983,3909.3
926.253,3904.6
926.524,3900.1
926.795,3904.6
927.065,3903.5
927.336,3901.9
927.607,3902.6
927.877,3905.8
928.148,3897.8
928.419,3893.3
928.689,3897.8
928.96,3891.0
929.231,3889.6
929.501,3893.8
929.772,3891.3
930.043,3891.4
930.313,3887.7
930.584,3890.6
930.854,3888.1
931.125,3881.6
931.396,3884.7
931.666,3884.7
931.937,3879.6
932.207,3885.8
932.478,3878.1
932.748,3878.5
933.019,3882.4
933.289,3877.7
933.56,3883.0
933.83,3882.9
934.101,3875.1
934.371,3874.0
934.642,3876.2
934.912,3878.9
935.183,3876.5
935.453,3867.5
935.723,3867.6
935.994,3871.1
936.264,3861.4
936.535,3866.4
936.805,3865.8
937.075,3866.7
937.346,3865.2
937.616,3863.7
937.886,3861.0
938.157,3862.7
938.427,3860.8
938.697,3860.5
938.968,3862.1
939.238,3856.9
939.508,3857.1
939.779,3857.4
940.049,3859.3
940.319,3858.2
940.59,3857.3
940.86,3861.5
941.13,3854.0
941.4,3854.7
941.671,3852.0
941.941,3860.2
942.211,3853.3
942.481,3854.5
942.751,3852.8
943.022,3850.9
943.292,3846.1
943.562,3847.6
943.832,3849.0
944.102,3848.1
944.372,3846.1
944.642,3842.2
944.913,3843.8
945.183,3845.5
945.453,3844.8
945.723,3841.4
945.993,3848.4
946.263,3841.7
946.533,3843.0
946.803,3841.0
947.073,3843.4
947.343,3845.6
947.613,3844.4
947.883,3841.6
948.153,3836.4
948.423,3838.6
948.693,3837.8
948.963,3839.6
949.233,3839.9
949.503,3835.4
949.773,3834.2
950.043,3836.9
950.313,3836.3
950.583,3834.9
950.853,3829.8
951.123,3834.3
951.393,3834.5
951.663,3835.7
951.933,3830.1
952.202,3830.1
952.472,3828.8
952.742,3828.9
953.012,3826.9
953.282,3827.2
953.552,3830.2
953.822,3828.6
954.091,3828.1
954.361,3827.6
954.631,3826.0
954.901,3826.8
955.17,3823.1
955.44,3823.7
955.71,3822.0
955.98,3824.1
956.25,3825.9
956.519,3823.4
956.789,3823.1
957.059,3819.4
957.328,3821.2
957.598,3824.5
957.868,3822.0
958.137,3822.8
958.407,3821.6
958.677,3819.4
958.946,3820.7
959.216,3818.1
959.486,3819.5
959.755,3817.7
960.025,3818.5
960.294,3818.4
960.564,3816.8
960.834,3815.5
961.103,3819.2
961.373,3814.7
961.642,3815.4
961.912,3815.3
962.181,3815.7
962.451,3815.5
962.72,3813.8
962.99,3812.1
963.259,3812.6
963.529,3812.0
963.798,3812.6
964.068,3810.4
964.337,3811.6
964.607,3811.8
964.876,3812.6
965.146,3809.1
965.415,3810.7
965.684,3807.2
965.954,3808.4
966.223,3807.7
966.493,3808.3
966.762,3807.3
967.031,3805.4
967.301,3807.8
967.57,3808.2
967.839,3809.1
968.109,3808.7
968.378,3806.0
968.647,3805.0
968.917,3804.7
969.186,3807.3
969.455,3804.3
969.724,3804.5
969.994,3801.5
970.263,3802.6
970.532,3801.5
970.801,3802.8
971.071,3799.4
971.34,3801.4
971.609,3804.1
971.878,3802.4
972.147,3799.7
972.417,3799.6
972.686,3801.3
972.955,3798.3
973.224,3799.9
973.493,3797.6
973.762,3798.1
974.031,3797.3
974.3,3798.0
974.57,3796.7
974.839,3798.6
975.108,3796.4
975.377,3797.6
975.646,3797.9
975.915,3797.1
976.184,3795.5
976.453,3793.9
976.722,3794.1
976.991,3794.6
977.26,3796.5
977.529,3793.5
977.798,3793.7
978.067,3795.1
978.336,3792.8
978.605,3795.2
978.874,3793.3
979.143,3793.0
979.412,3791.9
979.68,3794.8
979.949,3795.8
980.218,3794.2
980.487,3795.2
980.756,3794.7
981.025,3791.1
981.294,3790.9
981.563,3792.8
981.831,3793.3
982.1,3793.8
982.369,3790.3
982.638,3793.9
982.907,3792.0
983.175,3791.5
983.444,3790.7
983.713,3791.5
983.982,3789.5
984.25,3791.6
984.519,3791.4
984.788,3788.2
985.057,3792.5
985.325,3789.5
985.594,3787.6
985.863,3788.8
986.131,3788.0
986.4,3789.2
986.669,3788.2
986.937,3789.7
987.206,3788.0
987.475,3786.9
987.743,3788.7
988.012,3787.8
988.28,3785.8
988.549,3786.6
988.817,3786.8
989.086,3784.8
989.355,3788.2
989.623,3787.0
989.892,3784.0
990.16,3784.3
990.429,3788.0
990.697,3786.1
990.966,3788.0
991.234,3787.6
991.503,3785.6
991.771,3784.3
992.04,3786.9
992.308,3784.8
992.576,3785.8
992.845,3782.8
993.113,3782.9
993.382,3785.5
993.65,3787.2
993.918,3787.0
994.187,3784.2
994.455,3784.1
994.723,3784.5
994.992,3782.4
995.26,3787.0
995.528,3781.5
995.797,3783.9
996.065,3784.2
996.333,3782.4
996.602,3785.3
996.87,3784.8
997.138,3783.4
997.406,3786.2
997.675,3783.2
997.943,3785.4
998.211,3787.9
998.479,3783.9
998.747,3785.2
999.016,3782.1
999.284,3785.0
999.552,3784.0
999.82,3783.3
1000.09,3782.4
1000.36,3784.2
1000.62,3781.3
1000.89,3783.3
1001.16,3781.6
1001.43,3780.6
1001.7,3778.5
1001.97,3777.8
1002.23,3776.9
1002.5,3778.8
1002.77,3778.6
1003.04,3777.9
1003.31,3778.3
1003.57,3779.5
1003.84,3777.7
1004.11,3778.4
1004.38,3777.3
1004.65,3776.7
1004.91,3776.9
1005.18,3777.2
1005.45,3776.6
1005.72,3777.6
1005.98,3777.0
1006.25,3778.0
1006.52,3779.7
1006.79,3778.7
1007.06,3780.2
1007.32,3779.0
1007.59,3776.1
1007.86,3780.8
1008.13,3781.3
1008.4,3782.7
1008.66,3783.4
1008.93,3786.4
1009.2,3787.3
1009.47,3788.0
1009.73,3791.2
1010.0,3790.3
1010.27,3791.2
1010.54,3791.3
1010.81,3797.4
1011.07,3796.8
1011.34,3799.0
1011.61,3801.0
1011.88,3800.3
1012.14,3801.1
1012.41,3807.5
1012.68,3804.2
1012.95,3808.3
1013.21,3807.9
1013.48,3808.9
1013.75,3816.4
1014.02,3818.0
1014.29,3818.9
1014.55,3820.0
1014.82,3817.4
1015.09,3814.2
1015.36,3814.5
1015.62,3819.4
1015.89,3811.3
1016.16,3813.2
1016.43,3812.1
1016.69,3809.9
1016.96,3808.2
1017.23,3808.9
1017.5,3805.9
1017.76,3804.8
1018.03,3802.7
1018.3,3802.8
1018.57,3799.5
1018.83,3797.5
1019.1,3798.9
1019.37,3794.0
1019.63,3792.8
1019.9,3792.0
1020.17,3789.8
1020.44,3788.5
1020.7,3788.3
1020.97,3787.8
1021.24,3788.1
1021.51,3789.9
1021.77,3788.2
1022.04,3788.1
1022.31,3787.7
1022.58,3785.9
1022.84,3784.9
1023.11,3786.5
1023.38,3784.0
1023.64,3783.7
1023.91,3780.8
1024.18,3782.1
1024.45,3780.3
1024.71,3778.3
1024.98,3776.0
1025.25,3775.2
1025.51,3771.2
1025.78,3772.3
1026.05,3769.7
1026.32,3768.7
1026.58,3769.1
1026.85,3769.1
1027.12,3770.8
1027.38,3768.5
1027.65,3769.5
1027.92,3769.1
1028.19,3768.2
1028.45,3770.6
1028.72,3770.2
1028.99,3768.1
1029.25,3766.0
1029.52,3767.8
1029.79,3767.9
1030.05,3768.0
1030.32,3765.9
1030.59,3767.3
1030.85,3766.1
1031.12,3768.7
1031.39,3765.1
1031.66,3765.9
1031.92,3765.6
1032.19,3764.9
1032.46,3765.3
1032.72,3767.0
1032.99,3767.7
1033.26,3766.7
1033.52,3766.3
1033.79,3767.8
1034.06,3766.5
1034.32,3766.0
1034.59,3767.0
1034.86,3768.9
1035.12,3766.0
1035.39,3765.1
1035.66,3765.6
1035.92,3764.3
1036.19,3765.2
1036.46,3767.0
1036.72,3764.4
1036.99,3766.9
1037.26,3765.2
1037.52,3763.7
1037.79,3764.1
1038.06,3763.4
1038.32,3765.0
1038.59,3765.1
1038.86,3765.4
1039.12,3765.7
1039.39,3767.1
1039.66,3767.1
1039.92,3767.0
1040.19,3764.9
1040.46,3765.0
1040.72,3764.4
1040.99,3765.2
1041.26,3763.9
1041.52,3764.2
1041.79,3766.2
1042.06,3762.6
1042.32,3765.1
1042.59,3765.1
1042.86,3764.7
1043.12,3763.2
1043.39,3763.3
1043.65,3764.6
1043.92,3763.7
1044.19,3763.4
1044.45,3762.9
1044.72,3763.9
1044.99,3763.5
1045.25,3763.4
1045.52,3764.1
1045.79,3762.2
1046.05,3764.5
1046.32,3764.2
1046.58,3763.8
1046.85,3764.3
1047.12,3765.4
1047.38,3763.2
1047.65,3763.8
1047.92,3762.5
1048.18,3764.1
1048.45,3762.8
1048.71,3764.4
1048.98,3764.6
1049.25,3764.1
1049.51,3762.7
1049.78,3764.7
1050.04,3763.6
1050.31,3763.9
1050.58,3764.3
1050.84,3762.9
1051.11,3762.3
1051.37,3765.7
1051.64,3764.2
1051.91,3763.8
1052.17,3761.7
1052.44,3762.6
1052.7,3762.7
1052.97,3763.0
1053.24,3760.8
1053.5,3763.6
1053.77,3764.9
1054.03,3764.5
1054.3,3763.4
1054.57,3764.2
1054.83,3763.8
1055.1,3762.6
1055.36,3764.8
1055.63,3763.0
1055.9,3761.9
1056.16,3763.6
1056.43,3763.2
1056.69,3762.9
1056.96,3761.7
1057.23,3762.7
1057.49,3763.6
1057.76,3764.4
1058.02,3762.6
1058.29,3763.4
1058.55,3762.4
1058.82,3762.1
1059.09,3763.5
1059.35,3764.6
1059.62,3764.0
1059.88,3763.6
1060.15,3762.2
1060.41,3763.1
1060.68,3764.2
1060.95,3762.7
1061.21,3764.4
1061.48,3761.6
1061.74,3761.1
1062.01,3763.3
1062.27,3762.7
1062.54,3762.7
1062.8,3762.1
1063.07,3760.8
1063.34,3761.5
1063.6,3760.8
1063.87,3761.8
1064.13,3762.7
1064.4,3760.9
1064.66,3763.7
1064.93,3760.7
1065.19,3760.5
1065.46,3763.7
1065.73,3763.3
1065.99,3762.4
1066.26,3762.1
1066.52,3760.8
1066.79,3762.2
1067.05,3759.9
1067.32,3762.9
1067.58,3761.3
1067.85,3761.2
1068.11,3760.7
