nm,Intensity
526.486,830.0
526.622,831.1
526.759,829.2
526.896,830.6
527.033,830.4
527.169,830.1
527.306,831.2
527.443,830.0
527.579,831.6
527.716,829.8
527.853,831.6
527.989,829.8
528.126,830.6
528.263,830.2
528.399,830.9
528.536,830.2
528.672,832.0
528.809,830.6
528.946,830.1
529.082,830.0
529.219,829.3
529.355,831.0
529.492,830.6
529.628,829.3
529.765,830.3
529.901,831.4
530.038,831.1
530.174,831.2
530.311,831.4
530.447,830.8
530.584,830.3
530.72,828.4
530.857,831.9
530.993,829.5
531.13,831.3
531.266,831.0
531.403,830.6
531.539,829.8
531.676,830.3
531.812,831.8
531.948,834.8
532.085,861.2
532.221,885.3
532.358,845.9
532.494,831.9
532.63,829.1
532.767,831.5
532.903,830.1
533.039,830.7
533.176,830.5
533.312,831.3
533.448,832.9
533.585,840.4
533.721,905.2
533.857,1257.8
533.993,1940.2
534.13,2314.8
534.266,2345.7
534.402,2270.0
534.539,2210.8
534.675,2153.9
534.811,2099.2
534.947,2012.4
535.083,1934.9
535.22,1897.6
535.356,1867.3
535.492,1838.9
535.628,1804.5
535.764,1779.5
535.901,1751.2
536.037,1718.0
536.173,1697.0
536.309,1671.2
536.445,1666.9
536.581,1646.4
536.717,1638.0
536.854,1649.8
536.99,1629.4
537.126,1628.7
537.262,1615.7
537.398,1612.9
537.534,1601.3
537.67,1603.8
537.806,1598.1
537.942,1603.7
538.078,1602.5
538.214,1610.1
538.35,1610.0
538.486,1600.6
538.622,1616.0
538.758,1609.9
538.894,1609.7
539.03,1616.1
539.166,1602.0
539.302,1616.7
539.438,1629.1
539.574,1631.7
539.71,1657.7
539.846,1661.9
539.982,1676.8
540.118,1693.3
540.254,1659.3
540.39,1650.4
540.526,1653.0
540.662,1652.9
540.798,1645.9
540.933,1633.1
541.069,1634.7
541.205,1633.7
541.341,1644.1
541.477,1647.1
541.613,1647.1
541.749,1645.2
541.884,1637.2
542.02,1652.7
542.156,1654.5
542.292,1647.2
542.428,1650.7
542.563,1655.7
542.699,1654.3
542.835,1662.3
542.971,1662.6
543.106,1665.1
543.242,1660.4
543.378,1675.9
543.514,1678.9
543.649,1683.2
543.785,1682.8
543.921,1703.4
544.057,1707.1
544.192,1685.7
544.328,1703.0
544.464,1689.1
544.599,1697.6
544.735,1700.5
544.871,1704.5
545.006,1716.8
545.142,1717.9
545.278,1707.4
545.413,1712.2
545.549,1709.9
545.684,1722.7
545.82,1732.3
545.956,1723.3
546.091,1730.9
546.227,1720.7
546.362,1738.0
546.498,1739.2
546.634,1726.8
546.769,1753.7
546.905,1741.6
547.04,1755.1
547.176,1747.0
547.311,1748.2
547.447,1755.8
547.582,1766.3
547.718,1752.5
547.853,1749.0
547.989,1757.5
548.124,1760.1
548.26,1768.0
548.395,1761.7
548.531,1774.8
548.666,1781.5
548.802,1808.4
548.937,1803.0
549.072,1790.4
549.208,1788.2
549.343,1794.6
549.479,1789.8
549.614,1803.0
549.75,1812.8
549.885,1808.5
550.02,1807.6
550.156,1807.9
550.291,1812.2
550.426,1846.8
550.562,1948.7
550.697,2170.4
550.832,2035.9
550.968,1874.1
551.103,1830.2
551.238,1823.6
551.374,1829.7
551.509,1841.0
551.644,1838.6
551.78,1827.7
551.915,1844.9
552.05,1851.8
552.185,1851.0
552.321,1861.0
552.456,1848.1
552.591,1861.1
552.726,1912.5
552.862,1958.6
552.997,1941.3
553.132,1889.2
553.267,1871.9
553.403,1871.2
553.538,1875.4
553.673,1881.7
553.808,1890.1
553.943,1878.5
554.078,1896.3
554.214,1895.9
554.349,1894.5
554.484,1899.7
554.619,1892.7
554.754,1911.3
554.889,1916.7
555.024,1909.5
555.16,1935.1
555.295,1943.1
555.43,1945.4
555.565,1968.9
555.7,1995.9
555.835,1987.3
555.97,1977.8
556.105,1981.0
556.24,1984.5
556.375,1979.9
556.51,2008.1
556.645,2012.0
556.78,2003.1
556.915,2026.6
557.05,2048.5
557.185,2061.5
557.32,2146.6
557.455,2295.2
557.59,2474.6
557.725,2560.0
557.86,2343.9
557.995,2156.9
558.13,2082.6
558.265,2047.9
558.4,2045.3
558.535,2040.5
558.67,2016.1
558.805,2017.2
558.94,2014.9
559.075,2010.1
559.21,2003.1
559.345,2008.5
559.479,1993.6
559.614,2011.1
559.749,2020.4
559.884,2020.7
560.019,2014.8
560.154,2028.8
560.289,2025.5
560.424,2036.3
560.558,2044.3
560.693,2042.2
560.828,2050.3
560.963,2043.2
561.098,2063.1
561.232,2062.0
561.367,2073.6
561.502,2084.0
561.637,2115.4
561.772,2132.1
561.906,2147.4
562.041,2193.4
562.176,2211.9
562.311,2187.8
562.445,2139.5
562.58,2138.6
562.715,2120.0
562.85,2110.7
562.984,2116.2
563.119,2125.5
563.254,2128.3
563.388,2127.8
563.523,2136.3
563.658,2149.1
563.792,2156.3
563.927,2152.8
564.062,2163.2
564.196,2173.5
564.331,2178.6
564.466,2202.8
564.6,2238.2
564.735,2287.9
564.87,2341.6
565.004,2435.4
565.139,2526.9
565.273,2490.1
565.408,2385.3
565.543,2375.2
565.677,2402.1
565.812,2407.0
565.946,2416.5
566.081,2378.1
566.215,2318.2
566.35,2288.1
566.485,2263.3
566.619,2238.9
566.754,2219.5
566.888,2199.1
567.023,2213.2
567.157,2198.4
567.292,2214.5
567.426,2241.8
567.561,2293.0
567.695,2320.3
567.83,2338.7
567.964,2331.9
568.099,2313.7
568.233,2260.5
568.368,2258.7
568.502,2249.8
568.636,2256.2
568.771,2255.1
568.905,2256.5
569.04,2271.8
569.174,2268.7
569.309,2259.3
569.443,2266.6
569.577,2294.8
569.712,2277.0
569.846,2320.0
569.98,2330.1
570.115,2316.9
570.249,2346.7
570.384,2371.6
570.518,2405.4
570.652,2476.1
570.787,2525.7
570.921,2645.7
571.055,2801.3
571.19,2944.7
571.324,3069.5
571.458,3139.7
571.592,3059.2
571.727,2841.5
571.861,2690.7
571.995,2623.4
572.13,2574.6
572.264,2511.4
572.398,2448.3
572.532,2424.7
572.667,2395.9
572.801,2399.5
572.935,2401.3
573.069,2374.4
573.204,2366.9
573.338,2368.0
573.472,2355.3
573.606,2381.7
573.74,2399.0
573.875,2400.5
574.009,2408.6
574.143,2395.2
574.277,2412.7
574.411,2399.4
574.545,2396.1
574.68,2409.1
574.814,2408.8
574.948,2416.9
575.082,2430.9
575.216,2462.7
575.35,2524.1
575.484,2571.0
575.619,2571.3
575.753,2522.8
575.887,2468.5
576.021,2445.6
576.155,2451.9
576.289,2456.8
576.423,2477.9
576.557,2493.8
576.691,2502.9
576.825,2509.1
576.959,2524.7
577.093,2517.8
577.227,2529.8
577.361,2506.1
577.495,2493.1
577.629,2465.0
577.763,2471.9
577.897,2470.0
578.031,2465.7
578.165,2485.4
578.299,2473.9
578.433,2468.9
578.567,2500.4
578.701,2480.0
578.835,2480.2
578.969,2473.2
579.103,2489.4
579.237,2486.5
579.371,2490.3
579.505,2485.7
579.639,2487.5
579.773,2499.8
579.907,2513.7
580.041,2506.2
580.175,2495.3
580.309,2523.1
580.442,2517.2
580.576,2526.7
580.71,2548.1
580.844,2556.9
580.978,2584.4
581.112,2572.7
581.246,2592.5
581.38,2603.1
581.513,2654.4
581.647,2757.9
581.781,3022.9
581.915,3504.1
582.049,4514.1
582.183,5686.2
582.316,5453.0
582.45,3953.6
582.584,3061.9
582.718,2796.0
582.852,2680.0
582.985,2649.9
583.119,2621.9
583.253,2624.2
583.387,2601.5
583.52,2609.9
583.654,2607.7
583.788,2607.6
583.922,2610.1
584.055,2591.1
584.189,2592.6
584.323,2612.5
584.456,2617.2
584.59,2635.2
584.724,2633.4
584.858,2655.9
584.991,2647.6
585.125,2670.1
585.259,2710.3
585.392,2757.0
585.526,2921.3
585.66,3196.6
585.793,3555.2
585.927,4001.6
586.061,4244.8
586.194,4094.2
586.328,3770.6
586.462,3490.9
586.595,3258.6
586.729,3010.9
586.862,2854.9
586.996,2781.5
587.13,2757.1
587.263,2722.6
587.397,2726.0
587.53,2701.0
587.664,2695.6
587.797,2677.7
587.931,2685.1
588.065,2676.8
588.198,2661.1
588.332,2692.2
588.465,2678.1
588.599,2657.0
588.732,2654.4
588.866,2654.4
588.999,2655.0
589.133,2640.6
589.266,2660.2
589.4,2648.9
589.533,2671.5
589.667,2665.2
589.8,2667.9
589.934,2655.4
590.067,2660.3
590.201,2669.2
590.334,2670.2
590.468,2684.6
590.601,2676.8
590.735,2674.5
590.868,2667.2
591.001,2673.9
591.135,2691.8
591.268,2691.3
591.402,2686.8
591.535,2694.2
591.669,2688.2
591.802,2695.9
591.935,2681.9
592.069,2689.9
592.202,2681.1
592.335,2683.4
592.469,2681.6
592.602,2688.5
592.736,2702.9
592.869,2684.8
593.002,2689.6
593.136,2691.3
593.269,2674.6
593.402,2671.4
593.536,2699.8
593.669,2696.8
593.802,2705.2
593.936,2703.0
594.069,2703.2
594.202,2707.4
594.336,2723.1
594.469,2702.4
594.602,2719.9
594.735,2724.4
594.869,2725.2
595.002,2723.0
595.135,2741.5
595.268,2733.1
595.402,2743.5
595.535,2734.5
595.668,2730.9
595.801,2749.1
595.935,2760.6
596.068,2739.7
596.201,2773.4
596.334,2746.3
596.468,2763.5
596.601,2747.1
596.734,2767.4
596.867,2786.3
597.0,2779.0
597.133,2781.9
597.267,2767.0
597.4,2777.7
597.533,2778.8
597.666,2793.2
597.799,2777.4
597.932,2792.7
598.066,2799.7
598.199,2799.9
598.332,2805.3
598.465,2822.3
598.598,2815.0
598.731,2832.3
598.864,2815.0
598.998,2846.3
599.131,2831.8
599.264,2826.3
599.397,2836.3
599.53,2825.0
599.663,2840.7
599.796,2822.8
599.929,2837.7
600.062,2837.3
600.195,2840.8
600.328,2829.6
600.461,2861.8
600.594,2836.1
600.727,2823.4
600.86,2841.0
600.994,2839.6
601.127,2833.8
601.26,2838.8
601.393,2844.4
601.526,2845.9
601.659,2842.4
601.792,2823.3
601.925,2837.1
602.058,2846.6
602.191,2850.0
602.324,2858.0
602.457,2853.7
602.589,2863.8
602.722,2887.9
602.855,2865.5
602.988,2864.0
603.121,2884.3
603.254,2878.0
603.387,2897.9
603.52,2899.0
603.653,2914.4
603.786,2913.9
603.919,2904.5
604.052,2913.4
604.185,2916.7
604.318,2914.6
604.451,2902.7
604.583,2892.4
604.716,2915.7
604.849,2904.5
604.982,2898.4
605.115,2911.8
605.248,2889.8
605.381,2886.0
605.514,2890.5
605.646,2887.9
605.779,2905.4
605.912,2871.3
606.045,2884.8
606.178,2884.3
606.311,2893.9
606.443,2884.7
606.576,2891.6
606.709,2899.9
606.842,2928.7
606.975,2915.6
607.107,2910.1
607.24,2925.8
607.373,2922.3
607.506,2940.1
607.639,2953.1
607.771,2936.3
607.904,2958.0
608.037,2981.9
608.17,2982.3
608.302,2978.5
608.435,2990.8
608.568,2976.0
608.701,2988.2
608.833,3008.7
608.966,3013.5
609.099,3009.0
609.232,3016.0
609.364,3010.1
609.497,3029.4
609.63,3015.2
609.762,3029.2
609.895,3026.6
610.028,3035.8
610.161,3037.5
610.293,3027.5
610.426,3050.2
610.559,3041.7
610.691,3048.4
610.824,3065.6
610.957,3062.2
611.089,3073.0
611.222,3084.9
611.355,3068.1
611.487,3094.8
611.62,3083.0
611.752,3119.5
611.885,3101.6
612.018,3135.9
612.15,3129.4
612.283,3153.0
612.416,3142.7
612.548,3158.3
612.681,3166.6
612.813,3197.0
612.946,3211.6
613.078,3242.9
613.211,3225.5
613.344,3243.3
613.476,3253.0
613.609,3260.5
613.741,3254.6
613.874,3263.4
614.006,3275.6
614.139,3283.9
614.272,3293.9
614.404,3300.9
614.537,3289.6
614.669,3296.1
614.802,3319.8
614.934,3333.6
615.067,3313.8
615.199,3322.9
615.332,3313.9
615.464,3320.8
615.597,3341.6
615.729,3340.3
615.862,3334.5
615.994,3375.5
616.127,3351.9
616.259,3343.8
616.392,3345.7
616.524,3373.5
616.657,3381.7
616.789,3397.7
616.922,3413.8
617.054,3417.6
617.186,3426.9
617.319,3453.3
617.451,3452.9
617.584,3461.6
617.716,3482.8
617.849,3481.0
617.981,3503.0
618.113,3497.3
618.246,3490.2
618.378,3525.8
618.511,3524.6
618.643,3531.5
618.775,3534.7
618.908,3537.7
619.04,3549.2
619.173,3550.4
619.305,3554.7
619.437,3559.9
619.57,3538.5
619.702,3541.7
619.834,3563.1
619.967,3561.3
620.099,3564.4
620.231,3594.6
620.364,3557.4
620.496,3561.4
620.628,3593.2
620.761,3594.7
620.893,3607.9
621.025,3598.6
621.158,3601.2
621.29,3617.9
621.422,3624.6
621.555,3638.7
621.687,3645.4
621.819,3652.0
621.952,3660.9
622.084,3679.6
622.216,3670.5
622.348,3683.4
622.481,3716.4
622.613,3715.3
622.745,3749.0
622.878,3743.9
623.01,3770.9
623.142,3766.1
623.274,3775.6
623.407,3763.4
623.539,3796.3
623.671,3794.2
623.803,3799.8
623.935,3826.5
624.068,3840.8
624.2,3844.3
624.332,3851.4
624.464,3862.8
624.597,3875.5
624.729,3870.6
624.861,3880.2
624.993,3869.3
625.125,3913.4
625.258,3912.7
625.39,3912.1
625.522,3918.0
625.654,3907.5
625.786,3925.6
625.918,3920.2
626.051,3944.1
626.183,3945.7
626.315,3924.8
626.447,3958.3
626.579,3956.7
626.711,3959.8
626.844,3996.6
626.976,3949.6
627.108,3971.3
627.24,3982.7
627.372,3995.5
627.504,4004.7
627.636,4000.7
627.768,4009.3
627.901,4018.5
628.033,4043.0
628.165,4024.2
628.297,4052.0
628.429,4045.4
628.561,4086.8
628.693,4091.8
628.825,4096.2
628.957,4106.8
629.089,4142.1
629.221,4140.1
629.354,4123.2
629.486,4178.4
629.618,4224.4
629.75,4219.9
629.882,4213.4
630.014,4228.4
630.146,4201.1
630.278,4216.8
630.41,4205.6
630.542,4215.3
630.674,4229.2
630.806,4223.9
630.938,4270.0
631.07,4287.5
631.202,4298.9
631.334,4358.7
631.466,4374.0
631.598,4427.6
631.73,4468.5
631.862,4483.2
631.994,4494.2
632.126,4483.8
632.258,4443.3
632.39,4439.1
632.522,4421.1
632.654,4400.1
632.786,4389.5
632.918,4393.5
633.05,4426.7
633.182,4406.2
633.314,4423.8
633.446,4424.8
633.578,4426.8
633.71,4375.3
633.842,4402.7
633.974,4367.9
634.106,4396.4
634.237,4381.8
634.369,4395.2
634.501,4387.8
634.633,4386.8
634.765,4395.3
634.897,4400.9
635.029,4400.7
635.161,4427.0
635.293,4416.3
635.425,4476.2
635.557,4450.5
635.689,4518.8
635.82,4534.6
635.952,4593.9
636.084,4644.3
636.216,4720.4
636.348,4744.1
636.48,4842.8
636.612,4879.6
636.744,4843.6
636.875,4787.2
637.007,4694.5
637.139,4627.2
637.271,4591.0
637.403,4574.3
637.535,4548.8
637.667,4564.7
637.798,4533.1
637.93,4567.0
638.062,4575.8
638.194,4547.0
638.326,4576.0
638.458,4558.7
638.589,4564.9
638.721,4567.3
638.853,4588.2
638.985,4608.1
639.117,4619.3
639.248,4598.8
639.38,4624.6
639.512,4619.9
639.644,4630.9
639.776,4623.0
639.907,4637.8
640.039,4631.2
640.171,4659.6
640.303,4623.8
640.435,4632.2
640.566,4649.5
640.698,4681.9
640.83,4655.2
640.962,4652.3
641.093,4672.8
641.225,4709.5
641.357,4670.5
641.489,4706.6
641.62,4707.9
641.752,4730.7
641.884,4714.5
642.016,4729.2
642.147,4717.6
642.279,4760.6
642.411,4766.8
642.543,4737.5
642.674,4723.4
642.806,4730.4
642.938,4709.4
643.069,4730.8
643.201,4729.1
643.333,4712.5
643.465,4701.8
643.596,4690.2
643.728,4712.0
643.86,4716.6
643.991,4705.3
644.123,4699.8
644.255,4707.9
644.386,4726.6
644.518,4700.9
644.65,4725.4
644.781,4696.6
644.913,4730.8
645.045,4677.8
645.176,4714.9
645.308,4709.3
645.44,4725.6
645.571,4718.7
645.703,4759.8
645.835,4734.8
645.966,4755.4
646.098,4733.7
646.23,4743.3
646.361,4745.6
646.493,4755.4
646.625,4792.7
646.756,4797.8
646.888,4770.5
647.019,4783.7
647.151,4791.1
647.283,4802.8
647.414,4819.8
647.546,4826.5
647.678,4811.7
647.809,4836.6
647.941,4809.2
648.072,4817.2
648.204,4817.2
648.336,4811.0
648.467,4839.0
648.599,4814.7
648.73,4821.5
648.862,4832.5
648.993,4815.6
649.125,4793.2
649.257,4820.5
649.388,4798.8
649.52,4815.4
649.651,4779.5
649.783,4791.7
649.914,4803.6
650.046,4804.7
650.178,4815.7
650.309,4805.1
650.441,4796.6
650.572,4806.9
650.704,4796.8
650.835,4825.5
650.967,4800.3
651.098,4820.4
651.23,4803.0
651.361,4826.5
651.493,4848.9
651.625,4841.5
651.756,4834.8
651.888,4850.9
652.019,4850.3
652.151,4862.2
652.282,4871.9
652.414,4857.6
652.545,4884.0
652.677,4878.8
652.808,4880.0
652.94,4893.1
653.071,4876.0
653.203,4899.2
653.334,4889.4
653.466,4888.2
653.597,4897.5
653.729,4890.8
653.86,4918.5
653.992,4917.7
654.123,4920.4
654.255,4892.1
654.386,4926.5
654.518,4894.0
654.649,4888.7
654.78,4901.9
654.912,4884.2
655.043,4909.8
655.175,4912.6
655.306,4919.4
655.438,4929.4
655.569,4944.0
655.701,4918.1
655.832,4912.6
655.964,4911.9
656.095,4911.1
656.226,4909.2
656.358,4901.8
656.489,4916.5
656.621,4929.9
656.752,4933.7
656.884,4937.7
657.015,4970.7
657.146,4967.1
657.278,4975.4
657.409,4928.2
657.541,4948.1
657.672,4975.3
657.804,4952.1
657.935,4952.7
658.066,4957.8
658.198,4965.3
658.329,4984.0
658.461,4970.6
658.592,4977.3
658.723,4953.9
658.855,4996.4
658.986,4979.4
659.118,4982.3
659.249,5008.8
659.38,4999.5
659.512,4996.6
659.643,4966.2
659.774,4983.0
659.906,5022.8
660.037,5018.6
660.169,5002.6
660.3,5000.7
660.431,4992.4
660.563,5009.3
660.694,5009.6
660.825,4945.0
660.957,4951.4
661.088,4971.2
661.22,4957.5
661.351,4964.5
661.482,4943.4
661.614,4934.4
661.745,4973.7
661.876,4950.6
662.008,4953.0
662.139,4918.2
662.27,4930.4
662.402,4899.9
662.533,4926.2
662.664,4946.3
662.796,4936.1
662.927,4937.3
663.058,4921.9
