nm,Intensity
526.553,834.86
526.69,835.88
526.827,835.04
526.963,834.74
527.1,835.1
527.237,834.86
527.373,834.34
527.51,835.24
527.647,835.32
527.784,835.32
527.92,834.98
528.057,834.54
528.194,835.3
528.33,835.58
528.467,834.96
528.603,835.54
528.74,835.1
528.877,835.06
529.013,835.02
529.15,835.38
529.286,834.86
529.423,835.36
529.56,835.4
529.696,835.0
529.833,835.32
529.969,834.9
530.106,835.48
530.242,834.7
530.379,834.86
530.515,835.82
530.652,834.44
530.788,835.16
530.925,835.16
531.061,834.98
531.198,835.54
531.334,834.96
531.47,835.44
531.607,834.9
531.743,834.88
531.88,834.78
532.016,841.22
532.152,862.38
532.289,853.88
532.425,837.78
532.562,834.82
532.698,834.4
532.834,835.5
532.971,835.18
533.107,834.86
533.243,835.24
533.38,835.02
533.516,835.16
533.652,837.58
533.789,853.2
533.925,907.28
534.061,965.34
534.197,980.5
534.334,979.56
534.47,980.68
534.606,979.32
534.742,979.48
534.879,979.46
535.015,975.26
535.151,973.3
535.287,969.88
535.423,969.96
535.56,971.2
535.696,969.48
535.832,967.22
535.968,966.78
536.104,966.7
536.24,968.98
536.376,968.38
536.513,966.9
536.649,966.86
536.785,967.68
536.921,968.9
537.057,966.48
537.193,966.26
537.329,969.9
537.465,967.32
537.601,969.84
537.737,968.34
537.873,967.64
538.009,971.66
538.145,971.74
538.281,970.96
538.417,972.82
538.553,970.08
538.689,972.54
538.825,972.2
538.961,972.16
539.097,972.54
539.233,971.28
539.369,972.84
539.505,973.92
539.641,973.2
539.777,973.88
539.913,974.34
540.049,975.78
540.185,976.16
540.321,975.78
540.457,974.82
540.592,975.0
540.728,977.06
540.864,975.12
541.0,977.44
541.136,975.34
541.272,979.54
541.408,979.28
541.543,979.9
541.679,979.98
541.815,981.82
541.951,978.98
542.087,982.28
542.222,981.44
542.358,981.64
542.494,981.2
542.63,986.92
542.765,985.2
542.901,985.8
543.037,985.1
543.173,984.56
543.308,986.0
543.444,986.96
543.58,986.92
543.715,988.02
543.851,989.5
543.987,991.22
544.123,991.76
544.258,989.92
544.394,992.34
544.529,992.72
544.665,991.92
544.801,992.96
544.936,992.26
545.072,993.86
545.208,997.54
545.343,996.4
545.479,996.24
545.614,995.78
545.75,997.26
545.886,997.74
546.021,997.88
546.157,998.4
546.292,1000.84
546.428,1000.12
546.563,1000.32
546.699,1001.86
546.834,1002.06
546.97,1002.34
547.105,1001.4
547.241,1001.44
547.376,1002.16
547.512,1004.52
547.647,1003.44
547.783,1004.6
547.918,1001.24
548.054,1005.1
548.189,1004.68
548.325,1004.24
548.46,1006.14
548.595,1008.98
548.731,1008.9
548.866,1009.22
549.002,1010.78
549.137,1009.94
549.272,1012.22
549.408,1009.48
549.543,1010.78
549.679,1010.8
549.814,1012.66
549.949,1011.96
550.085,1012.38
550.22,1012.64
550.355,1014.1
550.491,1012.96
550.626,1014.14
550.761,1015.32
550.896,1016.86
551.032,1017.34
551.167,1016.74
551.302,1016.14
551.438,1017.0
551.573,1018.48
551.708,1017.82
551.843,1021.76
551.979,1020.62
552.114,1020.84
552.249,1023.36
552.384,1020.08
552.519,1021.04
552.655,1022.92
552.79,1021.54
552.925,1024.74
553.06,1026.54
553.195,1024.86
553.331,1029.14
553.466,1028.1
553.601,1029.74
553.736,1027.46
553.871,1030.16
554.006,1031.66
554.141,1029.58
554.276,1031.9
554.412,1030.82
554.547,1033.14
554.682,1033.06
554.817,1033.28
554.952,1034.46
555.087,1032.42
555.222,1034.1
555.357,1032.18
555.492,1031.78
555.627,1034.66
555.762,1036.54
555.897,1035.58
556.032,1034.5
556.167,1033.78
556.302,1039.4
556.437,1038.9
556.572,1037.24
556.707,1041.84
556.842,1040.06
556.977,1041.78
557.112,1040.38
557.247,1042.74
557.382,1041.82
557.517,1042.56
557.652,1040.08
557.787,1041.28
557.922,1042.92
558.057,1046.42
558.192,1044.8
558.327,1045.16
558.462,1046.28
558.596,1045.84
558.731,1047.76
558.866,1046.24
559.001,1048.16
559.136,1046.88
559.271,1045.98
559.406,1044.34
559.54,1048.74
559.675,1048.44
559.81,1048.46
559.945,1052.28
560.08,1049.7
560.215,1051.12
560.349,1050.62
560.484,1051.58
560.619,1052.52
560.754,1054.6
560.889,1054.42
561.023,1050.26
561.158,1053.3
561.293,1053.76
561.428,1053.68
561.562,1053.76
561.697,1052.9
561.832,1053.8
561.966,1054.14
562.101,1054.76
562.236,1057.12
562.371,1055.86
562.505,1058.64
562.64,1062.5
562.775,1061.5
562.909,1062.54
563.044,1064.62
563.179,1067.34
563.313,1066.7
563.448,1070.76
563.583,1073.96
563.717,1077.02
563.852,1091.68
563.986,1118.0
564.121,1128.48
564.256,1103.62
564.39,1085.56
564.525,1084.38
564.659,1083.9
564.794,1083.76
564.929,1085.98
565.063,1085.0
565.198,1082.76
565.332,1081.64
565.467,1081.82
565.601,1084.44
565.736,1085.92
565.87,1092.54
566.005,1106.62
566.139,1136.64
566.274,1133.6
566.408,1107.04
566.543,1090.86
566.677,1084.98
566.812,1085.38
566.946,1082.88
567.081,1081.66
567.215,1082.82
567.35,1084.66
567.484,1092.42
567.619,1089.82
567.753,1084.04
567.888,1081.4
568.022,1081.7
568.156,1081.92
568.291,1084.06
568.425,1085.24
568.56,1086.6
568.694,1086.38
568.828,1088.2
568.963,1087.94
569.097,1090.7
569.231,1090.94
569.366,1091.46
569.5,1091.96
569.635,1093.0
569.769,1095.18
569.903,1094.94
570.038,1093.74
570.172,1095.32
570.306,1096.18
570.441,1096.96
570.575,1101.12
570.709,1100.4
570.843,1098.16
570.978,1099.38
571.112,1103.48
571.246,1108.76
571.38,1123.66
571.515,1182.88
571.649,1189.6
571.783,1136.38
571.917,1121.76
572.052,1115.34
572.186,1113.56
572.32,1111.92
572.454,1109.18
572.589,1106.74
572.723,1108.94
572.857,1103.1
572.991,1108.3
573.125,1110.24
573.26,1108.56
573.394,1108.24
573.528,1114.18
573.662,1109.34
573.796,1113.32
573.93,1113.28
574.064,1113.94
574.199,1113.86
574.333,1114.04
574.467,1112.12
574.601,1111.04
574.735,1114.12
574.869,1114.7
575.003,1112.06
575.137,1114.92
575.271,1118.74
575.406,1126.96
575.54,1144.2
575.674,1147.92
575.808,1139.26
575.942,1143.12
576.076,1158.76
576.21,1187.18
576.344,1213.8
576.478,1194.3
576.612,1174.42
576.746,1168.52
576.88,1170.46
577.014,1174.52
577.148,1169.98
577.282,1162.48
577.416,1151.68
577.55,1139.12
577.684,1136.8
577.818,1131.94
577.952,1131.06
578.086,1128.78
578.22,1130.48
578.354,1131.78
578.488,1132.74
578.622,1133.14
578.756,1131.12
578.89,1134.44
579.023,1133.9
579.157,1135.96
579.291,1133.9
579.425,1138.16
579.559,1135.9
579.693,1135.08
579.827,1136.66
579.961,1136.04
580.095,1137.48
580.228,1138.78
580.362,1140.62
580.496,1141.02
580.63,1140.14
580.764,1141.74
580.898,1141.52
581.032,1144.26
581.165,1141.32
581.299,1141.62
581.433,1143.72
581.567,1145.76
581.701,1144.96
581.834,1145.9
581.968,1144.8
582.102,1148.02
582.236,1148.96
582.37,1151.82
582.503,1152.24
582.637,1151.64
582.771,1151.66
582.905,1155.2
583.038,1156.28
583.172,1154.66
583.306,1155.28
583.44,1156.38
583.573,1159.32
583.707,1162.46
583.841,1160.88
583.974,1158.72
584.108,1161.08
584.242,1161.3
584.375,1166.06
584.509,1163.38
584.643,1164.78
584.777,1164.82
584.91,1164.7
585.044,1166.26
585.177,1167.7
585.311,1165.36
585.445,1169.58
585.578,1172.92
585.712,1169.92
585.846,1175.38
585.979,1175.02
586.113,1176.88
586.247,1179.74
586.38,1180.2
586.514,1182.82
586.647,1187.8
586.781,1188.98
586.914,1187.06
587.048,1188.52
587.182,1187.44
587.315,1191.56
587.449,1192.44
587.582,1192.72
587.716,1193.66
587.849,1196.28
587.983,1196.32
588.116,1197.88
588.25,1198.14
588.384,1198.74
588.517,1200.98
588.651,1199.92
588.784,1199.24
588.918,1200.22
589.051,1197.02
589.185,1201.1
589.318,1205.66
589.452,1205.04
589.585,1200.1
589.718,1205.04
589.852,1205.14
589.985,1207.32
590.119,1208.8
590.252,1211.14
590.386,1211.1
590.519,1213.2
590.653,1215.12
590.786,1215.3
590.919,1216.32
591.053,1215.34
591.186,1222.58
591.32,1221.92
591.453,1216.96
591.586,1218.8
591.72,1220.82
591.853,1222.5
591.987,1219.84
592.12,1219.42
592.253,1217.84
592.387,1220.78
592.52,1220.18
592.653,1222.76
592.787,1224.82
592.92,1216.98
593.053,1220.24
593.187,1221.7
593.32,1222.14
593.453,1220.84
593.587,1218.08
593.72,1220.28
593.853,1219.58
593.987,1222.8
594.12,1220.94
594.253,1223.14
594.386,1220.0
594.52,1222.48
594.653,1226.2
594.786,1224.8
594.919,1224.44
595.053,1224.92
595.186,1224.3
595.319,1229.28
595.452,1230.76
595.586,1227.6
595.719,1232.18
595.852,1231.54
595.985,1231.4
596.119,1234.14
596.252,1232.7
596.385,1233.24
596.518,1235.26
596.651,1238.26
596.785,1237.56
596.918,1238.56
597.051,1238.98
597.184,1242.24
597.317,1241.22
597.45,1243.7
597.584,1245.96
597.717,1241.3
597.85,1245.52
597.983,1246.06
598.116,1248.54
598.249,1249.66
598.382,1253.0
598.516,1257.42
598.649,1257.54
598.782,1258.58
598.915,1255.0
599.048,1256.62
599.181,1262.0
599.314,1257.38
599.447,1257.32
599.58,1262.5
599.713,1259.68
599.847,1260.72
599.98,1262.38
600.113,1258.44
600.246,1259.84
600.379,1256.78
600.512,1256.74
600.645,1256.02
600.778,1258.8
600.911,1257.64
601.044,1254.54
601.177,1256.38
601.31,1254.96
601.443,1256.42
601.576,1255.34
601.709,1255.12
601.842,1254.48
601.975,1256.02
602.108,1252.8
602.241,1253.26
602.374,1252.88
602.507,1251.1
602.64,1253.18
602.773,1251.56
602.906,1248.32
603.039,1250.14
603.172,1248.48
603.305,1244.26
603.438,1242.58
603.571,1242.2
603.703,1246.36
603.836,1241.52
603.969,1241.32
604.102,1239.02
604.235,1236.08
604.368,1233.78
604.501,1231.04
604.634,1228.16
604.767,1224.56
604.9,1220.64
605.033,1221.32
605.165,1219.1
605.298,1215.34
605.431,1213.96
605.564,1212.18
605.697,1208.34
605.83,1206.34
605.963,1206.66
606.095,1203.14
606.228,1201.32
606.361,1197.3
606.494,1197.08
606.627,1198.42
606.76,1200.7
606.892,1192.18
607.025,1193.42
607.158,1191.72
607.291,1195.4
607.424,1187.76
607.556,1189.9
607.689,1190.34
607.822,1187.7
607.955,1191.08
608.088,1186.26
608.22,1189.14
608.353,1186.84
608.486,1183.2
608.619,1185.4
608.751,1184.28
608.884,1183.6
609.017,1184.58
609.15,1183.78
609.282,1180.98
609.415,1179.72
609.548,1175.44
609.681,1176.3
609.813,1178.12
609.946,1171.9
610.079,1175.44
610.211,1174.72
610.344,1171.46
610.477,1171.64
610.609,1171.24
610.742,1168.08
610.875,1169.42
611.007,1169.86
611.14,1167.76
611.273,1168.5
611.405,1167.56
611.538,1169.56
611.671,1169.8
611.803,1168.14
611.936,1167.2
612.069,1167.2
612.201,1166.02
612.334,1169.7
612.467,1167.96
612.599,1170.74
612.732,1168.94
612.864,1168.68
612.997,1171.02
613.13,1169.18
613.262,1173.02
613.395,1170.74
613.527,1169.56
613.66,1170.9
613.793,1169.34
613.925,1167.12
614.058,1168.78
614.19,1167.04
614.323,1165.98
614.456,1166.78
614.588,1166.06
614.721,1163.9
614.853,1166.26
614.986,1166.04
615.118,1163.52
615.251,1160.7
615.383,1162.38
615.516,1165.8
615.648,1160.28
615.781,1159.52
615.913,1156.78
616.046,1161.18
616.178,1153.14
616.311,1155.12
616.443,1157.6
616.576,1155.56
616.708,1157.38
616.841,1156.92
616.973,1156.6
617.106,1161.3
617.238,1161.38
617.371,1156.64
617.503,1159.42
617.636,1160.14
617.768,1157.84
617.901,1156.76
618.033,1157.6
618.166,1157.5
618.298,1158.46
618.43,1160.52
618.563,1156.68
618.695,1154.46
618.828,1155.94
618.96,1156.04
619.093,1153.32
619.225,1156.46
619.357,1155.62
619.49,1154.68
619.622,1156.0
619.755,1152.24
619.887,1153.46
620.019,1153.4
620.152,1151.76
620.284,1152.02
620.417,1150.46
620.549,1152.16
620.681,1149.44
620.814,1150.94
620.946,1150.88
621.078,1154.64
621.211,1150.56
621.343,1152.78
621.475,1154.34
621.608,1155.92
621.74,1159.88
621.872,1162.6
622.005,1166.14
622.137,1168.64
622.269,1172.4
622.402,1172.24
622.534,1171.54
622.666,1164.76
622.799,1160.2
622.931,1154.78
623.063,1154.06
623.195,1151.88
623.328,1149.96
623.46,1146.54
623.592,1146.16
623.725,1144.52
623.857,1145.7
623.989,1144.46
624.121,1147.2
624.254,1145.64
624.386,1144.74
624.518,1142.74
624.65,1143.08
624.783,1142.24
624.915,1145.7
625.047,1142.42
625.179,1144.92
625.312,1144.04
625.444,1142.1
625.576,1143.5
625.708,1145.38
625.841,1144.1
625.973,1144.48
626.105,1151.08
626.237,1155.76
626.369,1162.3
626.502,1176.04
626.634,1198.62
626.766,1245.56
626.898,1320.0
627.03,1423.78
627.163,1525.14
627.295,1555.28
627.427,1520.3
627.559,1461.98
627.691,1416.08
627.823,1388.66
627.956,1368.98
628.088,1367.18
628.22,1380.02
628.352,1436.56
628.484,1570.08
628.616,1653.26
628.748,1531.58
628.881,1427.56
629.013,1389.18
629.145,1375.56
629.277,1366.06
629.409,1352.44
629.541,1335.34
629.673,1313.62
629.805,1298.6
629.937,1283.9
630.07,1279.52
630.202,1274.2
630.334,1274.38
630.466,1271.74
630.598,1262.34
630.73,1246.54
630.862,1230.7
630.994,1207.72
631.126,1185.92
631.258,1169.26
631.39,1160.34
631.522,1155.54
631.655,1149.98
631.787,1146.18
631.919,1142.16
632.051,1139.14
632.183,1134.96
632.315,1133.12
632.447,1129.46
632.579,1128.32
632.711,1126.32
632.843,1121.86
632.975,1122.44
633.107,1120.82
633.239,1123.12
633.371,1121.74
633.503,1119.6
633.635,1116.52
633.767,1114.34
633.899,1113.14
634.031,1116.86
634.163,1117.94
634.295,1112.38
634.427,1112.22
634.559,1115.5
634.691,1112.76
634.823,1111.44
634.955,1110.26
635.087,1109.74
635.219,1111.24
635.351,1113.72
635.483,1110.1
635.615,1114.02
635.747,1112.56
635.879,1112.28
636.011,1111.62
636.143,1110.3
636.275,1111.66
636.406,1109.3
636.538,1111.9
636.67,1112.42
636.802,1111.38
636.934,1109.9
637.066,1109.6
637.198,1108.84
637.33,1108.84
637.462,1106.76
637.594,1107.92
637.726,1106.58
637.858,1107.8
637.989,1106.34
638.121,1109.32
638.253,1105.78
638.385,1106.06
638.517,1108.98
638.649,1104.26
638.781,1106.34
638.913,1106.7
639.045,1104.5
639.176,1104.7
639.308,1105.32
639.44,1105.46
639.572,1102.82
639.704,1104.96
639.836,1103.16
639.968,1104.08
640.1,1104.58
640.231,1104.12
640.363,1106.18
640.495,1101.74
640.627,1103.58
640.759,1102.12
640.891,1104.68
641.022,1102.48
641.154,1102.66
641.286,1104.32
641.418,1103.88
641.55,1102.9
641.682,1101.34
641.813,1102.84
641.945,1105.16
642.077,1101.8
642.209,1101.18
642.341,1102.92
642.472,1100.3
642.604,1101.46
642.736,1100.48
642.868,1099.96
643.0,1101.04
643.131,1098.34
643.263,1097.54
643.395,1095.96
643.527,1097.72
643.658,1095.42
643.79,1096.06
643.922,1092.92
644.054,1094.06
644.186,1092.8
644.317,1093.9
644.449,1094.82
644.581,1094.22
644.713,1094.24
644.844,1093.56
644.976,1092.62
645.108,1090.56
645.24,1093.06
645.371,1089.34
645.503,1090.34
645.635,1089.72
645.767,1089.92
645.898,1090.42
646.03,1090.4
646.162,1090.34
646.293,1089.14
646.425,1087.32
646.557,1088.44
646.689,1085.3
646.82,1088.8
646.952,1086.12
647.084,1087.92
647.215,1089.78
647.347,1089.3
647.479,1088.36
647.61,1087.92
647.742,1087.8
647.874,1085.42
648.006,1087.76
648.137,1083.4
648.269,1084.76
648.401,1083.16
648.532,1083.2
648.664,1080.4
648.796,1082.42
648.927,1084.16
649.059,1083.46
649.191,1081.34
649.322,1081.26
649.454,1078.84
649.586,1080.42
649.717,1078.46
649.849,1078.72
649.981,1077.4
650.112,1077.24
650.244,1077.62
650.375,1077.22
650.507,1075.54
650.639,1075.4
650.77,1076.42
650.902,1078.48
651.034,1077.2
651.165,1075.86
651.297,1075.08
651.429,1076.72
651.56,1075.96
651.692,1073.66
651.823,1075.16
651.955,1073.64
652.087,1073.74
652.218,1074.52
652.35,1076.34
652.481,1075.58
652.613,1072.22
652.745,1076.8
652.876,1075.66
653.008,1073.56
653.139,1076.54
653.271,1073.02
653.403,1073.16
653.534,1072.06
653.666,1074.36
653.797,1073.56
653.929,1074.04
654.061,1074.56
654.192,1072.78
654.324,1073.14
654.455,1071.06
654.587,1071.38
654.718,1072.06
654.85,1071.14
654.982,1070.74
655.113,1066.88
655.245,1068.64
655.376,1067.56
655.508,1068.44
655.639,1067.28
655.771,1066.68
655.902,1069.38
656.034,1067.52
656.166,1068.44
656.297,1066.02
656.429,1064.02
656.56,1066.14
656.692,1065.46
656.823,1066.68
656.955,1064.1
657.086,1064.7
657.218,1062.88
657.349,1062.26
657.481,1062.22
657.612,1060.86
657.744,1062.14
657.875,1059.92
658.007,1060.82
658.138,1060.48
658.27,1060.4
658.401,1060.98
658.533,1056.72
658.664,1057.86
658.796,1059.42
658.927,1054.96
659.059,1057.18
659.19,1058.98
659.322,1056.66
659.453,1057.34
659.585,1053.46
659.716,1052.78
659.848,1052.66
659.979,1054.34
660.111,1056.06
660.242,1054.34
660.374,1050.46
660.505,1049.2
660.637,1049.54
660.768,1048.52
660.9,1046.94
661.031,1047.82
661.163,1046.2
661.294,1043.32
661.426,1042.06
661.557,1040.32
661.689,1041.52
661.82,1038.14
661.951,1041.78
662.083,1039.94
662.214,1038.58
662.346,1037.68
662.477,1035.58
662.609,1036.32
662.74,1035.8
662.872,1035.28
663.003,1035.36
663.135,1035.04
