nm,Intensity
526.547,832.15
526.684,831.6
526.821,832.65
526.958,832.1
527.095,832.55
527.232,832.5
527.368,833.3
527.505,831.9
527.642,833.4
527.779,832.35
527.916,832.5
528.052,831.85
528.189,832.55
528.326,831.95
528.463,832.4
528.599,832.05
528.736,832.75
528.873,832.4
529.009,832.65
529.146,831.75
529.283,832.25
529.419,833.45
529.556,832.4
529.693,832.7
529.829,832.0
529.966,831.45
530.103,832.2
530.239,832.6
530.376,833.0
530.512,832.45
530.649,830.55
530.785,832.55
530.922,831.25
531.059,832.75
531.195,832.3
531.332,831.55
531.468,832.7
531.605,832.0
531.741,832.0
531.878,832.6
532.014,845.85
532.151,897.35
532.287,888.05
532.423,840.85
532.56,833.3
532.696,832.5
532.833,833.1
532.969,832.55
533.106,832.2
533.242,832.75
533.378,831.7
533.515,831.95
533.651,834.9
533.787,861.0
533.924,951.3
534.06,1059.95
534.196,1108.05
534.333,1111.65
534.469,1110.2
534.605,1108.6
534.742,1113.45
534.878,1110.65
535.014,1105.0
535.15,1105.1
535.287,1105.3
535.423,1112.1
535.559,1114.65
535.695,1116.8
535.832,1114.5
535.968,1113.7
536.104,1115.1
536.24,1113.5
536.376,1120.65
536.513,1117.5
536.649,1114.65
536.785,1124.7
536.921,1118.25
537.057,1126.7
537.193,1121.95
537.329,1121.0
537.465,1123.95
537.602,1128.75
537.738,1127.9
537.874,1131.1
538.01,1129.1
538.146,1134.95
538.282,1134.8
538.418,1136.3
538.554,1137.25
538.69,1140.5
538.826,1138.65
538.962,1138.85
539.098,1143.7
539.234,1144.35
539.37,1144.2
539.506,1145.5
539.642,1148.8
539.778,1147.05
539.914,1146.1
540.05,1152.15
540.186,1153.95
540.322,1156.45
540.458,1153.4
540.594,1158.3
540.729,1158.3
540.865,1160.45
541.001,1161.15
541.137,1163.25
541.273,1164.75
541.409,1165.85
541.545,1168.95
541.68,1169.2
541.816,1168.0
541.952,1171.9
542.088,1173.1
542.224,1171.15
542.36,1176.05
542.495,1168.2
542.631,1182.05
542.767,1178.85
542.903,1179.8
543.038,1182.2
543.174,1188.35
543.31,1184.5
543.446,1188.85
543.581,1190.7
543.717,1190.2
543.853,1186.5
543.988,1189.85
544.124,1197.3
544.26,1199.65
544.395,1198.1
544.531,1212.55
544.667,1209.45
544.802,1207.5
544.938,1205.4
545.074,1208.1
545.209,1208.95
545.345,1209.55
545.481,1210.0
545.616,1210.0
545.752,1212.45
545.887,1211.65
546.023,1215.35
546.158,1220.1
546.294,1219.55
546.43,1213.4
546.565,1219.7
546.701,1220.0
546.836,1220.3
546.972,1222.25
547.107,1221.65
547.243,1220.5
547.378,1224.65
547.514,1226.8
547.649,1226.55
547.785,1226.85
547.92,1229.85
548.056,1226.15
548.191,1224.15
548.326,1232.55
548.462,1232.0
548.597,1232.25
548.733,1233.35
548.868,1240.0
549.004,1241.9
549.139,1242.25
549.274,1240.65
549.41,1243.45
549.545,1242.5
549.68,1242.5
549.816,1243.2
549.951,1251.65
550.086,1247.65
550.222,1252.0
550.357,1247.45
550.492,1252.15
550.628,1256.9
550.763,1266.55
550.898,1257.55
551.034,1257.25
551.169,1256.25
551.304,1257.3
551.439,1257.95
551.575,1259.85
551.71,1267.95
551.845,1269.85
551.98,1264.4
552.116,1263.75
552.251,1270.1
552.386,1259.4
552.521,1264.05
552.656,1266.9
552.792,1270.2
552.927,1267.35
553.062,1270.5
553.197,1267.75
553.332,1272.05
553.467,1273.7
553.603,1275.1
553.738,1269.9
553.873,1272.8
554.008,1285.3
554.143,1280.15
554.278,1288.25
554.413,1284.85
554.548,1285.4
554.683,1283.7
554.819,1290.05
554.954,1289.4
555.089,1290.45
555.224,1285.15
555.359,1281.05
555.494,1288.4
555.629,1288.15
555.764,1288.85
555.899,1294.4
556.034,1295.95
556.169,1289.8
556.304,1296.65
556.439,1297.9
556.574,1301.25
556.709,1295.15
556.844,1299.15
556.979,1296.75
557.114,1311.85
557.249,1306.8
557.384,1305.55
557.519,1310.6
557.653,1312.65
557.788,1318.95
557.923,1312.5
558.058,1303.35
558.193,1304.3
558.328,1308.05
558.463,1304.9
558.598,1310.65
558.733,1306.2
558.867,1305.85
559.002,1304.2
559.137,1314.95
559.272,1312.95
559.407,1315.1
559.542,1322.7
559.677,1323.2
559.811,1320.6
559.946,1323.95
560.081,1325.15
560.216,1335.2
560.351,1332.2
560.485,1330.0
560.62,1333.35
560.755,1333.05
560.89,1332.1
561.024,1329.6
561.159,1335.7
561.294,1339.25
561.429,1343.6
561.563,1367.7
561.698,1370.05
561.833,1349.05
561.967,1353.1
562.102,1358.5
562.237,1371.45
562.371,1391.65
562.506,1395.75
562.641,1392.4
562.775,1375.0
562.91,1359.2
563.045,1354.55
563.179,1352.5
563.314,1353.55
563.449,1356.65
563.583,1358.45
563.718,1356.8
563.853,1361.5
563.987,1371.2
564.122,1368.95
564.256,1362.75
564.391,1370.75
564.525,1371.25
564.66,1373.15
564.795,1377.0
564.929,1380.75
565.064,1381.15
565.198,1384.3
565.333,1380.0
565.467,1385.05
565.602,1382.1
565.736,1397.95
565.871,1395.15
566.005,1384.9
566.14,1389.2
566.274,1392.85
566.409,1385.4
566.543,1382.3
566.678,1386.85
566.812,1386.8
566.947,1386.4
567.081,1391.1
567.216,1389.75
567.35,1389.95
567.484,1393.65
567.619,1388.8
567.753,1386.45
567.888,1397.8
568.022,1390.05
568.156,1390.85
568.291,1392.0
568.425,1392.5
568.56,1394.0
568.694,1399.05
568.828,1402.65
568.963,1396.15
569.097,1408.85
569.231,1409.8
569.366,1411.7
569.5,1415.4
569.634,1410.65
569.769,1410.1
569.903,1409.5
570.037,1407.3
570.172,1416.8
570.306,1413.7
570.44,1422.3
570.575,1414.3
570.709,1415.2
570.843,1422.35
570.977,1424.1
571.112,1426.95
571.246,1429.2
571.38,1425.4
571.514,1424.4
571.649,1428.9
571.783,1430.75
571.917,1434.65
572.051,1434.2
572.185,1429.95
572.32,1433.3
572.454,1431.9
572.588,1433.55
572.722,1434.8
572.856,1436.6
572.991,1441.75
573.125,1439.0
573.259,1441.85
573.393,1446.4
573.527,1448.3
573.661,1447.45
573.795,1447.25
573.93,1452.85
574.064,1452.25
574.198,1449.9
574.332,1456.65
574.466,1449.3
574.6,1453.4
574.734,1457.75
574.868,1452.0
575.002,1458.7
575.136,1454.8
575.271,1453.95
575.405,1458.0
575.539,1465.65
575.673,1462.2
575.807,1464.35
575.941,1467.1
576.075,1462.1
576.209,1463.4
576.343,1471.9
576.477,1469.6
576.611,1468.4
576.745,1466.25
576.879,1460.5
577.013,1469.05
577.147,1471.1
577.281,1477.2
577.415,1473.1
577.549,1482.6
577.683,1474.15
577.817,1481.55
577.951,1477.65
578.085,1478.65
578.218,1474.3
578.352,1488.65
578.486,1481.1
578.62,1483.75
578.754,1484.35
578.888,1481.85
579.022,1487.75
579.156,1486.85
579.29,1497.25
579.424,1492.2
579.557,1487.35
579.691,1494.8
579.825,1489.1
579.959,1489.65
580.093,1492.9
580.227,1494.7
580.361,1491.8
580.494,1490.25
580.628,1491.1
580.762,1493.3
580.896,1494.8
581.03,1494.55
581.164,1495.0
581.297,1501.75
581.431,1492.65
581.565,1500.9
581.699,1506.5
581.832,1512.6
581.966,1523.75
582.1,1540.85
582.234,1563.65
582.368,1555.35
582.501,1512.2
582.635,1512.2
582.769,1512.55
582.903,1513.6
583.036,1512.0
583.17,1516.6
583.304,1514.1
583.437,1512.65
583.571,1516.5
583.705,1516.4
583.838,1522.4
583.972,1516.95
584.106,1521.3
584.24,1518.05
584.373,1521.65
584.507,1518.6
584.641,1521.45
584.774,1516.55
584.908,1523.95
585.041,1517.2
585.175,1524.1
585.309,1519.4
585.442,1527.95
585.576,1538.75
585.71,1546.8
585.843,1550.5
585.977,1557.25
586.11,1562.6
586.244,1560.45
586.378,1551.15
586.511,1544.95
586.645,1546.0
586.778,1540.25
586.912,1545.75
587.045,1547.75
587.179,1545.75
587.313,1538.55
587.446,1539.2
587.58,1544.4
587.713,1546.45
587.847,1542.8
587.98,1543.0
588.114,1545.3
588.247,1532.2
588.381,1542.9
588.514,1536.1
588.648,1533.9
588.781,1533.1
588.915,1536.6
589.048,1542.3
589.182,1534.55
589.315,1534.2
589.449,1537.55
589.582,1541.25
589.715,1542.3
589.849,1539.3
589.982,1542.25
590.116,1538.75
590.249,1540.9
590.383,1538.0
590.516,1541.45
590.649,1546.65
590.783,1546.65
590.916,1543.65
591.05,1549.85
591.183,1545.6
591.316,1549.95
591.45,1557.35
591.583,1551.95
591.717,1545.55
591.85,1551.95
591.983,1551.8
592.117,1545.95
592.25,1538.9
592.383,1556.55
592.517,1543.25
592.65,1543.2
592.783,1550.25
592.917,1548.7
593.05,1541.2
593.183,1543.6
593.317,1541.5
593.45,1546.65
593.583,1546.45
593.717,1547.55
593.85,1559.0
593.983,1555.9
594.116,1550.25
594.25,1550.45
594.383,1552.4
594.516,1551.6
594.649,1545.45
594.783,1555.55
594.916,1556.35
595.049,1560.45
595.182,1553.35
595.316,1563.85
595.449,1560.75
595.582,1562.25
595.715,1560.5
595.849,1561.15
595.982,1564.8
596.115,1560.3
596.248,1557.1
596.381,1563.25
596.514,1568.95
596.648,1565.0
596.781,1556.7
596.914,1564.9
597.047,1565.75
597.18,1569.7
597.313,1567.5
597.447,1572.25
597.58,1570.75
597.713,1578.35
597.846,1568.6
597.979,1570.65
598.112,1577.6
598.245,1571.7
598.379,1574.75
598.512,1576.4
598.645,1579.1
598.778,1583.3
598.911,1575.2
599.044,1577.75
599.177,1582.1
599.31,1579.95
599.443,1575.45
599.576,1575.7
599.709,1579.5
599.842,1576.6
599.975,1577.5
600.109,1577.55
600.242,1578.95
600.375,1579.65
600.508,1580.4
600.641,1579.05
600.774,1571.25
600.907,1572.2
601.04,1579.55
601.173,1578.6
601.306,1583.3
601.439,1576.1
601.572,1577.25
601.705,1571.9
601.838,1569.1
601.971,1572.05
602.104,1576.65
602.237,1572.3
602.37,1577.1
602.503,1577.7
602.636,1578.7
602.768,1579.2
602.901,1579.55
603.034,1580.1
603.167,1576.35
603.3,1593.25
603.433,1586.65
603.566,1579.75
603.699,1588.0
603.832,1581.5
603.965,1572.8
604.098,1588.4
604.231,1589.65
604.364,1583.8
604.496,1579.45
604.629,1582.6
604.762,1573.9
604.895,1577.6
605.028,1572.75
605.161,1576.1
605.294,1567.0
605.427,1570.95
605.559,1569.7
605.692,1572.45
605.825,1564.45
605.958,1569.65
606.091,1561.45
606.224,1563.95
606.356,1568.3
606.489,1559.9
606.622,1559.4
606.755,1566.05
606.888,1563.9
607.02,1566.95
607.153,1563.5
607.286,1568.45
607.419,1567.85
607.552,1575.6
607.684,1565.35
607.817,1579.75
607.95,1576.95
608.083,1572.45
608.215,1587.3
608.348,1581.45
608.481,1581.0
608.614,1576.1
608.746,1584.1
608.879,1588.35
609.012,1586.5
609.145,1587.45
609.277,1589.1
609.41,1585.5
609.543,1585.6
609.675,1589.95
609.808,1579.05
609.941,1582.7
610.074,1583.35
610.206,1579.9
610.339,1584.4
610.472,1587.25
610.604,1581.8
610.737,1590.45
610.87,1585.3
611.002,1582.4
611.135,1581.15
611.268,1585.1
611.4,1584.7
611.533,1591.7
611.666,1593.5
611.798,1597.65
611.931,1599.1
612.063,1598.45
612.196,1603.75
612.329,1606.15
612.461,1611.1
612.594,1609.75
612.727,1610.0
612.859,1616.95
612.992,1620.85
613.124,1627.2
613.257,1621.05
613.39,1628.95
613.522,1626.65
613.655,1629.65
613.787,1625.5
613.92,1630.95
614.052,1630.55
614.185,1636.05
614.317,1634.0
614.45,1626.4
614.583,1631.5
614.715,1638.85
614.848,1630.4
614.98,1632.0
615.113,1628.55
615.245,1639.45
615.378,1635.3
615.51,1636.2
615.643,1629.5
615.775,1627.3
615.908,1631.1
616.04,1630.75
616.173,1629.7
616.305,1633.35
616.438,1631.0
616.57,1635.05
616.703,1641.9
616.835,1649.0
616.968,1644.25
617.1,1643.4
617.233,1648.2
617.365,1642.3
617.498,1655.05
617.63,1649.6
617.762,1645.5
617.895,1649.1
618.027,1653.6
618.16,1653.35
618.292,1660.55
618.425,1658.0
618.557,1661.35
618.689,1665.2
618.822,1662.35
618.954,1654.9
619.087,1657.3
619.219,1655.6
619.351,1655.5
619.484,1663.85
619.616,1658.7
619.749,1656.1
619.881,1658.85
620.013,1664.1
620.146,1661.5
620.278,1654.4
620.41,1655.15
620.543,1657.65
620.675,1668.7
620.808,1661.1
620.94,1659.1
621.072,1658.7
621.205,1661.8
621.337,1670.2
621.469,1666.5
621.602,1662.15
621.734,1666.0
621.866,1666.05
621.998,1664.85
622.131,1665.35
622.263,1682.7
622.395,1666.05
622.528,1673.75
622.66,1673.35
622.792,1679.1
622.925,1674.65
623.057,1673.6
623.189,1690.8
623.321,1691.35
623.454,1698.4
623.586,1686.45
623.718,1685.95
623.85,1688.45
623.983,1696.0
624.115,1687.4
624.247,1692.3
624.379,1697.05
624.512,1699.3
624.644,1699.15
624.776,1692.5
624.908,1702.1
625.041,1696.65
625.173,1698.15
625.305,1689.3
625.437,1691.5
625.569,1697.45
625.702,1702.6
625.834,1693.15
625.966,1701.8
626.098,1701.9
626.23,1703.5
626.363,1700.45
626.495,1701.25
626.627,1697.6
626.759,1709.4
626.891,1704.45
627.024,1696.85
627.156,1695.45
627.288,1702.75
627.42,1705.65
627.552,1704.0
627.684,1707.4
627.816,1707.15
627.949,1703.7
628.081,1711.0
628.213,1701.0
628.345,1702.55
628.477,1703.55
628.609,1714.9
628.741,1716.15
628.874,1719.15
629.006,1717.4
629.138,1717.05
629.27,1713.75
629.402,1716.65
629.534,1711.2
629.666,1715.0
629.798,1716.95
629.93,1715.2
630.062,1720.85
630.195,1719.6
630.327,1721.75
630.459,1722.3
630.591,1724.6
630.723,1721.55
630.855,1724.1
630.987,1730.4
631.119,1726.6
631.251,1728.1
631.383,1729.05
631.515,1726.25
631.647,1726.15
631.779,1727.7
631.911,1728.05
632.043,1730.75
632.175,1731.0
632.307,1734.55
632.439,1728.5
632.571,1733.05
632.703,1726.35
632.835,1728.85
632.967,1728.35
633.099,1730.4
633.231,1723.8
633.363,1725.6
633.495,1726.7
633.627,1725.6
633.759,1723.8
633.891,1721.85
634.023,1726.45
634.155,1724.9
634.287,1721.45
634.419,1726.5
634.551,1725.6
634.683,1717.7
634.815,1721.8
634.947,1734.65
635.079,1718.9
635.211,1732.05
635.343,1720.85
635.475,1727.3
635.607,1733.0
635.739,1733.9
635.871,1735.85
636.003,1738.65
636.135,1738.35
636.267,1740.5
636.398,1739.4
636.53,1739.3
636.662,1744.35
636.794,1738.25
636.926,1737.1
637.058,1737.35
637.19,1732.4
637.322,1742.2
637.454,1738.35
637.586,1729.75
637.717,1737.55
637.849,1729.2
637.981,1736.5
638.113,1737.05
638.245,1731.65
638.377,1738.5
638.509,1733.55
638.641,1734.9
638.773,1734.45
638.904,1730.2
639.036,1741.8
639.168,1737.95
639.3,1718.8
639.432,1734.4
639.564,1730.8
639.695,1731.3
639.827,1728.8
639.959,1727.7
640.091,1738.8
640.223,1737.65
640.355,1740.35
640.486,1733.1
640.618,1734.9
640.75,1732.45
640.882,1724.1
641.014,1732.15
641.146,1740.45
641.277,1733.05
641.409,1750.35
641.541,1737.45
641.673,1741.85
641.805,1733.85
641.936,1733.9
642.068,1736.45
642.2,1736.75
642.332,1735.0
642.464,1737.4
642.595,1737.75
642.727,1733.4
642.859,1728.75
642.991,1722.8
643.122,1728.55
643.254,1727.15
643.386,1721.55
643.518,1713.85
643.649,1724.9
643.781,1716.25
643.913,1713.45
644.045,1711.15
644.176,1713.85
644.308,1716.55
644.44,1716.45
644.572,1715.45
644.703,1711.05
644.835,1715.75
644.967,1710.75
645.099,1708.5
645.23,1713.1
645.362,1708.65
645.494,1708.35
645.625,1709.2
645.757,1716.85
645.889,1714.25
646.021,1705.2
646.152,1712.25
646.284,1709.4
646.416,1709.1
646.547,1709.4
646.679,1709.3
646.811,1723.2
646.942,1708.5
647.074,1708.9
647.206,1713.05
647.337,1717.1
647.469,1715.35
647.601,1713.7
647.732,1718.85
647.864,1714.55
647.996,1719.25
648.127,1705.9
648.259,1713.9
648.391,1716.4
648.522,1712.25
648.654,1706.6
648.786,1705.35
648.917,1706.9
649.049,1705.15
649.181,1702.15
649.312,1697.6
649.444,1698.55
649.576,1701.35
649.707,1702.6
649.839,1698.8
649.971,1698.3
650.102,1692.4
650.234,1694.1
650.365,1697.35
650.497,1695.45
650.629,1699.65
650.76,1688.2
650.892,1698.1
651.023,1688.3
651.155,1691.95
651.287,1687.7
651.418,1682.15
651.55,1691.05
651.682,1691.95
651.813,1703.7
651.945,1692.65
652.076,1692.15
652.208,1689.0
652.339,1692.9
652.471,1692.4
652.603,1687.8
652.734,1687.5
652.866,1690.95
652.997,1695.2
653.129,1682.25
653.261,1689.15
653.392,1686.6
653.524,1686.25
653.655,1688.85
653.787,1687.65
653.918,1685.8
654.05,1683.35
654.181,1690.8
654.313,1675.75
654.445,1683.25
654.576,1677.8
654.708,1685.25
654.839,1680.9
654.971,1677.5
655.102,1671.65
655.234,1674.45
655.365,1674.6
655.497,1683.05
655.628,1672.65
655.76,1680.3
655.892,1667.45
656.023,1673.4
656.155,1667.5
656.286,1662.05
656.418,1664.75
656.549,1664.05
656.681,1660.45
656.812,1663.0
656.944,1669.45
657.075,1664.75
657.207,1675.45
657.338,1661.5
657.47,1670.65
657.601,1662.9
657.733,1662.8
657.864,1663.8
657.996,1654.85
658.127,1659.85
658.259,1661.45
658.39,1656.35
658.522,1663.8
658.653,1658.9
658.785,1660.55
658.916,1659.5
659.048,1654.25
659.179,1659.6
659.311,1660.5
659.442,1658.6
659.574,1661.65
659.705,1654.85
659.836,1652.15
659.968,1655.05
660.099,1645.25
660.231,1649.2
660.362,1653.2
660.494,1643.15
660.625,1648.75
660.757,1652.35
660.888,1641.05
661.02,1641.25
661.151,1637.05
661.283,1641.0
661.414,1641.7
661.545,1631.15
661.677,1641.6
661.808,1633.9
661.94,1629.9
662.071,1630.7
662.203,1627.05
662.334,1627.1
662.466,1620.35
662.597,1633.65
662.728,1625.25
662.86,1630.4
662.991,1620.85
663.123,1622.9
