cm-1,Intensity
-123.878,1863.55
-120.866,1862.35
-117.855,1864.15
-114.845,1861.8
-111.836,1863.35
-108.828,1863.55
-105.821,1862.45
-102.815,1863.1
-99.8104,1861.95
-96.8065,1862.2
-93.8036,1863.3
-90.8016,1864.05
-87.8007,1863.75
-84.8008,1864.7
-81.8019,1863.5
-78.8039,1861.6
-75.807,1864.25
-72.8111,1862.85
-69.8161,1864.6
-66.8222,1862.65
-63.8293,1864.85
-60.8373,1864.35
-57.8464,1863.7
-54.8564,1863.55
-51.8675,1863.2
-48.8795,1863.85
-45.8926,1864.05
-42.9066,1866.9
-39.9216,1865.35
-36.9377,1865.2
-33.9547,1865.95
-30.9727,1868.65
-27.9917,1869.95
-25.0117,1870.0
-22.0326,1873.95
-19.0546,1876.5
-16.0776,1897.55
-13.1015,1971.25
-10.1265,2243.85
-7.1524,3077.4
-4.17932,3944.4
-1.20723,4075.3
1.76388,3456.3
4.734,2564.45
7.70313,2006.75
10.6713,1879.5
13.6384,1871.65
16.6046,1869.1
19.5698,1869.4
22.534,1870.8
25.4972,1871.5
28.4595,1873.85
31.4207,1874.85
34.381,1878.0
37.3403,1882.7
40.2986,1892.4
43.256,1909.3
46.2123,1977.3
49.1677,2184.55
52.1221,2738.65
55.0755,3781.7
58.0279,5311.05
60.9794,6942.15
63.9299,8054.05
66.8794,8741.0
69.8279,9018.8
72.7754,9060.35
75.722,8955.15
78.6676,8565.0
81.6122,8376.9
84.5559,8276.25
87.4985,8126.35
90.4402,8024.5
93.381,7959.8
96.3207,7836.5
99.2595,7693.1
102.197,7537.05
105.134,7460.1
108.07,7339.05
111.005,7431.05
113.939,7418.0
116.872,7342.05
119.804,7128.4
122.735,7010.7
125.665,7082.25
128.594,6894.75
131.522,6661.6
134.449,6564.15
137.375,6399.4
140.301,6389.6
143.225,6452.4
146.148,6389.5
149.07,6336.7
151.992,6362.65
154.912,6348.5
157.832,6217.35
160.75,6222.8
163.668,6334.3
166.584,6241.85
169.5,6195.2
172.414,6252.7
175.328,6279.8
178.241,6259.75
181.153,6274.35
184.063,6265.4
186.973,6251.2
189.882,6191.8
192.79,6201.15
195.697,6279.7
198.603,6411.1
201.508,6384.2
204.412,6333.7
207.315,6311.6
210.217,6333.8
213.119,6363.0
216.019,6293.25
218.918,6310.95
221.816,6369.35
224.714,6449.0
227.61,6463.75
230.506,6403.05
233.4,6337.65
236.294,6299.45
239.187,6371.3
242.078,6520.65
244.969,6654.55
247.859,6596.05
250.748,6520.05
253.636,6556.55
256.523,6647.15
259.409,6659.35
262.294,6707.4
265.178,6718.75
268.061,6788.8
270.943,6830.95
273.824,6801.2
276.705,6849.35
279.584,6825.15
282.463,6757.75
285.34,6737.1
288.217,6736.15
291.092,6811.3
293.967,6892.95
296.841,6856.05
299.713,6810.55
302.585,6739.9
305.456,6776.85
308.326,6750.85
311.195,6691.05
314.063,6716.8
316.93,6789.25
319.797,6883.7
322.662,6873.9
325.526,6790.75
328.389,6851.55
331.252,6759.2
334.113,6780.4
336.974,6812.0
339.834,6874.95
342.692,6959.55
345.55,6917.6
348.407,6887.4
351.263,6929.45
354.118,7064.65
356.972,7143.8
359.825,6978.6
362.677,7035.65
365.529,7097.75
368.379,7133.05
371.228,7048.15
374.077,7028.9
376.924,7076.85
379.771,7052.65
382.616,7131.0
385.461,7156.6
388.305,7082.75
391.148,7141.3
393.99,7125.55
396.831,7155.95
399.671,7236.55
402.51,7330.6
405.348,7303.1
408.186,7284.95
411.022,7201.0
413.858,7203.6
416.692,7174.55
419.526,7293.5
422.359,7393.15
425.19,7330.25
428.021,7415.9
430.851,7374.25
433.68,7415.65
436.508,7537.8
439.335,7484.7
442.162,7448.85
444.987,7429.7
447.811,7354.1
450.635,7300.35
453.458,7301.2
456.279,7418.5
459.1,7575.45
461.92,7591.7
464.739,7558.3
467.557,7506.75
470.374,7401.9
473.19,7542.9
476.005,7700.0
478.82,7698.05
481.633,7669.3
484.445,7653.25
487.257,7615.3
490.068,7603.4
492.878,7641.65
495.686,7707.3
498.494,7693.65
501.301,7631.65
504.107,7678.2
506.913,7810.35
509.717,7750.6
512.52,7667.15
515.323,7672.1
518.124,7789.35
520.925,7868.7
523.725,7829.35
526.524,7737.05
529.322,7752.95
532.119,7817.9
534.915,7846.7
537.71,7797.95
540.504,7876.05
543.298,7845.1
546.09,7835.45
548.882,7960.65
551.673,8025.4
554.462,8002.5
557.251,8060.3
560.039,8062.1
562.826,8131.15
565.613,8101.55
568.398,8236.9
571.182,8259.3
573.966,8190.4
576.748,8053.2
579.53,8006.1
582.311,8037.7
585.091,8115.4
587.87,8205.75
590.648,8188.35
593.425,8132.3
596.201,8166.1
598.977,8218.45
601.751,8299.6
604.525,8231.25
607.298,8113.0
610.069,8071.7
612.84,8082.35
615.61,8122.8
618.38,8262.4
621.148,8415.65
623.915,8730.05
626.682,9208.2
629.447,9649.8
632.212,9784.95
634.976,9328.2
637.739,8788.35
640.501,8539.75
643.262,8479.55
646.022,8546.5
648.781,8563.7
651.54,8449.45
654.297,8476.85
657.054,8582.4
659.81,8698.05
662.565,8679.0
665.319,8584.25
668.072,8492.05
670.824,8543.5
673.575,8604.6
676.326,8588.25
679.075,8613.05
681.824,8689.35
684.572,8736.05
687.319,8734.25
690.065,8676.05
692.81,8748.8
695.554,8915.4
698.298,8979.2
701.04,9013.9
703.782,8983.1
706.522,8895.75
709.262,8840.85
712.001,8848.4
714.739,8850.6
717.477,8869.5
720.213,8773.75
722.948,8704.45
725.683,8718.15
728.417,8736.4
731.15,8686.45
733.882,8824.65
736.613,8796.3
739.343,8797.95
742.072,8827.1
744.801,8893.85
747.528,9035.15
750.255,9073.7
752.981,9066.5
755.706,9080.5
758.43,8983.75
761.153,9002.8
763.875,8969.7
766.597,8866.4
769.317,9003.7
772.037,9268.7
774.756,9247.05
777.474,9229.4
780.191,9280.4
782.907,9258.9
785.623,9260.85
788.337,9399.8
791.051,9659.25
793.764,9717.3
796.475,9636.5
799.186,9634.3
801.897,9571.65
804.606,9514.5
807.314,9463.55
810.022,9526.3
812.729,9660.2
815.434,9689.45
818.139,9665.95
820.844,9736.05
823.547,9802.25
826.249,9809.85
828.951,9737.9
831.651,9727.5
834.351,9776.45
837.05,9819.3
839.748,10060.3
842.445,10307.3
845.142,10469.0
847.837,10816.0
850.532,11217.9
853.225,11555.3
855.918,11902.8
858.61,12101.5
861.302,11910.8
863.992,11537.0
866.681,10924.8
869.37,10379.9
872.058,10154.5
874.745,10229.8
877.431,10237.7
880.116,10241.0
882.8,10173.8
885.484,10189.7
888.166,10181.2
890.848,10193.5
893.529,10197.9
896.209,10157.7
898.888,10108.2
901.566,10038.2
904.244,9821.25
906.921,9868.45
909.596,9957.5
912.271,9957.25
914.945,9868.15
917.619,9920.15
920.291,10045.7
922.963,10159.9
925.633,10047.3
928.303,9957.6
930.972,9885.7
933.64,9994.95
936.308,10154.8
938.974,10115.3
941.64,9958.8
944.304,9994.05
946.968,10130.0
949.631,10127.7
952.294,10076.0
954.955,10185.7
957.615,10373.2
960.275,10381.8
962.934,10374.6
965.592,10309.7
968.249,10325.2
970.905,10347.8
973.561,10551.3
976.215,10601.5
978.869,10455.3
981.522,10472.4
984.174,10470.5
986.826,10652.1
989.476,10676.5
992.126,10723.5
994.774,10936.7
997.422,11104.3
1000.07,10949.8
1002.72,11020.0
1005.36,11002.8
1008.01,10899.2
1010.65,10856.5
1013.29,10844.6
1015.93,10751.5
1018.58,10665.0
1021.22,10690.0
1023.86,10802.6
1026.49,10717.5
1029.13,10822.7
1031.77,10827.9
1034.4,10850.2
1037.04,10712.2
1039.67,10630.0
1042.31,10596.8
1044.94,10890.3
1047.57,10908.2
1050.2,10927.2
1052.83,10801.0
1055.46,10830.8
1058.09,10862.1
1060.72,10783.7
1063.35,10783.4
1065.97,10953.5
1068.6,11088.5
1071.22,11068.8
1073.85,11162.3
1076.47,11227.0
1079.09,11354.7
1081.71,11547.9
1084.33,11599.8
1086.95,11807.4
1089.57,11976.4
1092.19,12168.7
1094.81,12598.0
1097.42,12302.8
1100.04,12096.9
1102.65,12172.0
1105.27,12276.3
1107.88,12315.6
1110.49,12272.6
1113.1,12304.5
1115.71,12344.9
1118.32,12336.7
1120.93,12299.6
1123.54,12147.7
1126.15,12036.0
1128.75,11841.5
1131.36,11715.7
1133.97,11741.8
1136.57,11745.3
1139.17,11753.2
1141.77,11673.7
1144.38,11561.0
1146.98,11430.0
1149.58,11323.5
1152.18,11311.8
1154.77,11421.5
1157.37,11426.5
1159.97,11536.8
1162.56,11658.0
1165.16,11575.0
1167.75,11490.5
1170.35,11867.5
1172.94,12069.0
1175.53,11975.3
1178.12,12175.3
1180.71,12155.0
1183.3,11966.7
1185.89,11965.0
1188.48,11962.4
1191.06,11827.2
1193.65,11834.8
1196.23,11892.0
1198.82,11737.3
1201.4,11721.5
1203.99,11974.0
1206.57,11943.6
1209.15,11819.8
1211.73,11721.2
1214.31,11787.3
1216.89,11874.5
1219.46,11849.8
1222.04,11827.5
1224.62,11857.8
1227.19,11924.9
1229.77,11849.2
1232.34,11860.7
1234.92,11947.5
1237.49,12067.3
1240.06,12068.6
1242.63,12086.5
1245.2,12170.3
1247.77,12111.2
1250.34,12256.8
1252.9,12399.7
1255.47,12520.0
1258.04,12737.0
1260.6,12628.1
1263.17,12674.6
1265.73,12901.4
1268.29,13319.4
1270.85,13594.3
1273.41,13840.9
1275.97,14155.7
1278.53,14430.5
1281.09,14730.8
1283.65,15100.4
1286.21,15455.8
1288.76,15562.2
1291.32,15810.4
1293.87,15474.1
1296.43,14903.4
1298.98,14601.6
1301.53,14327.1
1304.08,14099.6
1306.63,13694.2
1309.18,13528.8
1311.73,13428.9
1314.28,13260.8
1316.83,13122.0
1319.38,12962.7
1321.92,12894.5
1324.47,12903.3
1327.01,12825.7
1329.55,12761.8
1332.1,12715.0
1334.64,12684.2
1337.18,12679.3
1339.72,12776.9
1342.26,12648.0
1344.8,12346.5
1347.34,12483.3
1349.87,12631.0
1352.41,12734.3
1354.95,12624.3
1357.48,12638.0
1360.01,12763.2
1362.55,12549.0
1365.08,12499.9
1367.61,12495.9
1370.14,12608.0
1372.67,12574.0
1375.2,12843.8
1377.73,12961.0
1380.26,12767.3
1382.78,12593.5
1385.31,12585.8
1387.84,12701.5
1390.36,12965.2
1392.88,12876.3
1395.41,12701.8
1397.93,12640.5
1400.45,12927.5
1402.97,13138.6
1405.49,13206.0
1408.01,13067.0
1410.53,13133.0
1413.05,13346.8
1415.56,13413.8
1418.08,13432.2
1420.59,13480.2
1423.11,13357.6
1425.62,13171.0
1428.14,13106.2
1430.65,13042.8
1433.16,13066.7
1435.67,13239.9
1438.18,13288.5
1440.69,13236.0
1443.2,13119.8
1445.7,13518.5
1448.21,13532.5
1450.72,13444.0
1453.22,13317.3
1455.72,13395.5
1458.23,13439.3
1460.73,13398.8
1463.23,13340.5
1465.73,13431.8
1468.23,13415.0
1470.73,13329.7
1473.23,13318.5
1475.73,13233.5
1478.23,13163.0
1480.72,13020.1
1483.22,13043.9
1485.72,13105.6
1488.21,13221.0
1490.7,13203.6
1493.2,13157.7
1495.69,13017.3
1498.18,12956.5
1500.67,12999.4
1503.16,13173.9
1505.65,13214.7
1508.14,13265.5
1510.62,13020.5
1513.11,12911.4
1515.59,12926.1
1518.08,13177.0
1520.56,13358.0
1523.05,13198.7
1525.53,13324.3
1528.01,13329.8
1530.49,13338.6
1532.97,13444.0
1535.45,13480.1
1537.93,13405.8
1540.41,13347.4
1542.89,13351.5
1545.36,13192.8
1547.84,13189.6
1550.31,13457.3
1552.79,13530.8
1555.26,13530.5
1557.73,13654.4
1560.21,13598.8
1562.68,13532.7
1565.15,13505.6
1567.62,13635.6
1570.09,13633.2
1572.56,13787.0
1575.02,13856.6
1577.49,13944.8
1579.95,13922.7
1582.42,13888.8
1584.88,13860.8
1587.35,14096.5
1589.81,14164.0
1592.27,14097.5
1594.73,14187.0
1597.19,14866.2
1599.65,15734.5
1602.11,16978.8
1604.57,18752.0
1607.03,20919.7
1609.49,23441.7
1611.94,25289.6
1614.4,25487.3
1616.85,24230.6
1619.31,21297.3
1621.76,18446.3
1624.21,16557.3
1626.66,15418.8
1629.11,14691.0
1631.56,14294.2
1634.01,14012.0
1636.46,13790.3
1638.91,13806.1
1641.36,14038.0
1643.8,14016.1
1646.25,14064.7
1648.69,13980.3
1651.14,14020.2
1653.58,13915.5
1656.02,13809.1
1658.46,13816.3
1660.9,14027.7
1663.35,13987.2
1665.78,13824.8
1668.22,13773.8
1670.66,14040.3
1673.1,14093.6
1675.54,14005.3
1677.97,14007.0
1680.41,13988.0
1682.84,13853.3
1685.27,13942.8
1687.71,14120.5
1690.14,14086.5
1692.57,13919.6
1695.0,13805.1
1697.43,14123.3
1699.86,14484.1
1702.29,14789.5
1704.71,14731.3
1707.14,14791.7
1709.57,15151.3
1711.99,15937.8
1714.42,16900.8
1716.84,17596.8
1719.26,18305.7
1721.69,19240.6
1724.11,20049.3
1726.53,20690.7
1728.95,20600.3
1731.37,20249.1
1733.79,19549.8
1736.21,18595.8
1738.62,17751.2
1741.04,17117.6
1743.46,16455.3
1745.87,15797.7
1748.28,15376.0
1750.7,15276.1
1753.11,14814.8
1755.52,14219.2
1757.93,14307.5
1760.34,14657.8
1762.75,14595.9
1765.16,14392.5
1767.57,14449.0
1769.98,14208.3
1772.39,14030.7
1774.79,14261.4
1777.2,14387.4
1779.6,14471.0
1782.01,14643.2
1784.41,14426.9
1786.81,14316.7
1789.21,14260.1
1791.62,14234.0
1794.02,14174.5
1796.41,14050.0
1798.81,14264.6
1801.21,14371.0
1803.61,14372.4
1806.01,14180.0
1808.4,14311.1
1810.8,14435.3
1813.19,14203.2
1815.59,14258.2
1817.98,14470.9
1820.37,14494.7
1822.76,14200.8
1825.15,14116.0
1827.54,14148.8
1829.93,14202.2
1832.32,14068.7
1834.71,14186.3
1837.1,14326.3
1839.48,14278.9
1841.87,14209.5
1844.25,14042.5
1846.64,14049.9
1849.02,14114.6
1851.4,14268.7
1853.79,14305.2
1856.17,14289.3
1858.55,14284.5
1860.93,14066.8
1863.31,14282.2
1865.69,14334.8
1868.06,14193.5
1870.44,14165.7
1872.82,14358.4
1875.19,14348.2
1877.57,14618.5
1879.94,14633.6
1882.31,14548.0
1884.69,14446.9
1887.06,14396.0
1889.43,14209.2
1891.8,14129.0
1894.17,14497.3
1896.54,14570.2
1898.91,14512.9
1901.28,14482.0
1903.64,14476.1
1906.01,14671.8
1908.38,14699.7
1910.74,14442.1
1913.1,14445.8
1915.47,14631.8
1917.83,14587.5
1920.19,14467.2
1922.55,14410.3
1924.91,14535.1
1927.27,14671.2
1929.63,14609.0
1931.99,14392.7
1934.35,14460.0
1936.71,14596.0
1939.06,14430.2
1941.42,14519.2
1943.77,14631.8
1946.13,14696.7
1948.48,14445.5
1950.83,14470.4
1953.19,14541.8
1955.54,14495.8
1957.89,14603.5
1960.24,14628.9
1962.59,14754.1
1964.93,14715.2
1967.28,14577.5
1969.63,14404.0
1971.98,14641.8
1974.32,14677.5
1976.67,14496.0
1979.01,14350.8
1981.35,14322.2
1983.7,14476.5
1986.04,14581.3
1988.38,14677.8
1990.72,14689.5
1993.06,14791.3
1995.4,14975.0
1997.74,14929.8
2000.08,14752.8
2002.41,14929.1
2004.75,14936.5
2007.09,15126.9
2009.42,15076.8
2011.75,15030.8
2014.09,15139.3
2016.42,14729.3
2018.75,14861.3
2021.08,15096.3
2023.42,15035.3
2025.75,14776.4
2028.08,14945.0
2030.4,14907.8
2032.73,14970.8
2035.06,15102.3
2037.39,15135.5
2039.71,14803.2
2042.04,14785.4
2044.36,14922.3
2046.69,14950.8
2049.01,14930.6
2051.33,15092.6
2053.65,14927.1
2055.97,14881.2
2058.29,15248.3
2060.61,15409.2
2062.93,15333.5
2065.25,15241.0
2067.57,15252.9
2069.88,14762.5
2072.2,14648.2
2074.52,14788.9
2076.83,14887.5
2079.15,15206.5
2081.46,15433.1
2083.77,15342.3
2086.08,15003.2
2088.39,14934.7
2090.7,15256.3
2093.01,15470.1
2095.32,15210.0
2097.63,15070.3
2099.94,15285.5
2102.25,15177.0
2104.55,15047.3
2106.86,15211.8
2109.16,15344.9
2111.47,15555.0
2113.77,15516.7
2116.08,15237.3
2118.38,15329.6
2120.68,15402.0
2122.98,15442.0
2125.28,15281.3
2127.58,15321.3
2129.88,15201.5
2132.18,15274.3
2134.47,15576.8
2136.77,15468.2
2139.07,15309.0
2141.36,15386.3
2143.66,15314.3
2145.95,15289.8
2148.24,15583.3
2150.54,15862.4
2152.83,15878.8
2155.12,15482.8
2157.41,15379.8
2159.7,15378.8
2161.99,15613.0
2164.28,15731.3
2166.57,15466.5
2168.85,15515.0
2171.14,15497.0
2173.43,15493.8
2175.71,15815.0
2178.0,15756.8
2180.28,15693.2
2182.56,15569.7
2184.84,15532.7
2187.13,15643.7
2189.41,15680.0
2191.69,15574.3
2193.97,15594.4
2196.25,15888.7
2198.52,16122.3
2200.8,15863.6
2203.08,15482.5
2205.36,15498.3
2207.63,15777.3
2209.91,15883.0
2212.18,16010.0
2214.45,16260.6
2216.73,15980.9
2219.0,15705.3
2221.27,15563.5
2223.54,15777.0
2225.81,15855.2
2228.08,15936.4
2230.35,16138.3
2232.62,16122.9
2234.89,15862.8
2237.15,15702.6
2239.42,15612.5
2241.68,15905.0
2243.95,16265.3
2246.21,16216.1
2248.48,15999.2
2250.74,15729.5
2253.0,15751.3
2255.26,16017.2
2257.52,16138.3
2259.78,15984.0
2262.04,15844.2
2264.3,16046.7
2266.56,16063.8
2268.82,16064.0
2271.07,16098.3
2273.33,16078.5
2275.58,16084.7
2277.84,16024.2
2280.09,15940.8
2282.35,16138.0
2284.6,16398.3
2286.85,16186.0
2289.1,16258.3
2291.35,16250.5
2293.6,16135.3
2295.85,16203.0
2298.1,16479.1
2300.35,16499.3
2302.6,16251.3
2304.84,16220.3
2307.09,16230.3
2309.33,16444.2
2311.58,16475.0
2313.82,16505.4
2316.07,16734.2
2318.31,16639.9
2320.55,16415.3
2322.79,16379.5
2325.03,16495.8
2327.27,16404.4
2329.51,16517.4
2331.75,16393.8
2333.99,16189.9
2336.23,16374.0
2338.46,16441.3
2340.7,16517.2
2342.93,16688.3
2345.17,16907.0
2347.4,16857.8
2349.64,16821.6
2351.87,16643.8
2354.1,16417.8
2356.33,16466.2
2358.56,16975.6
2360.79,17218.7
2363.02,17071.5
2365.25,16442.0
2367.48,16566.4
2369.71,16682.9
2371.93,16858.8
2374.16,16842.4
2376.38,16930.8
2378.61,16837.3
2380.83,16917.3
2383.06,16791.1
2385.28,16827.8
2387.5,16787.9
2389.72,16878.4
2391.94,17069.9
2394.16,17214.5
2396.38,17319.3
2398.6,16903.7
2400.82,16693.3
2403.04,16982.6
2405.26,17071.8
2407.47,17204.3
2409.69,17465.1
2411.9,17430.2
2414.12,17264.7
2416.33,17434.6
2418.54,17420.6
2420.76,17266.2
2422.97,17044.8
2425.18,16980.1
2427.39,17265.8
2429.6,17600.7
2431.81,17452.3
2434.02,17342.2
2436.22,17606.0
2438.43,17535.9
2440.64,17565.7
2442.84,17546.1
2445.05,17304.5
2447.25,17399.5
2449.46,17571.8
2451.66,17403.3
2453.86,17243.6
2456.06,17343.4
2458.27,17606.4
2460.47,17444.3
2462.67,17646.8
2464.87,17685.8
2467.06,17771.7
2469.26,17756.2
2471.46,17793.3
2473.66,17732.8
2475.85,17760.8
2478.05,17475.6
2480.24,17548.5
2482.44,17790.7
2484.63,17688.5
2486.82,17629.2
2489.02,17680.6
2491.21,17896.7
2493.4,17735.6
2495.59,17595.9
2497.78,17948.6
2499.97,18301.7
2502.16,18318.6
2504.34,18119.3
2506.53,17918.2
2508.72,17970.0
2510.9,18009.6
2513.09,18191.3
2515.27,18250.5
2517.46,18262.3
2519.64,17908.9
2521.82,18025.8
2524.0,18368.4
2526.19,18583.6
2528.37,18558.8
2530.55,18419.9
2532.73,18621.2
2534.9,18689.6
2537.08,18235.0
2539.26,18270.9
2541.44,18632.4
2543.61,18477.5
2545.79,18350.4
2547.96,18323.4
2550.14,18399.5
2552.31,18591.9
2554.48,18687.9
2556.66,18694.8
2558.83,18731.3
2561.0,18609.5
2563.17,18527.1
2565.34,18483.6
2567.51,18287.2
2569.68,18303.6
2571.85,18775.7
2574.01,19086.6
2576.18,18980.4
2578.35,18785.7
2580.51,18597.5
2582.68,18799.8
2584.84,19006.2
2587.0,18943.2
2589.17,18713.8
2591.33,18954.3
2593.49,18865.8
2595.65,18657.1
2597.81,19125.2
2599.97,19530.9
2602.13,19587.5
2604.29,19452.9
2606.45,18886.6
2608.6,18841.1
2610.76,19140.1
2612.92,19021.7
2615.07,19208.3
2617.23,19308.2
2619.38,19540.3
2621.53,19727.3
2623.69,19699.4
2625.84,19514.3
2627.99,19295.9
2630.14,19073.8
2632.29,19073.0
2634.44,19533.6
2636.59,19618.8
2638.74,19362.5
2640.89,19657.1
2643.03,20016.4
2645.18,19981.4
2647.33,20067.2
2649.47,19837.8
2651.62,19674.7
2653.76,19533.9
2655.9,19762.7
2658.05,19862.3
2660.19,19889.9
2662.33,19794.2
2664.47,19914.4
2666.61,19881.8
2668.75,19650.4
2670.89,19535.0
2673.03,20002.1
2675.17,20057.2
2677.3,20182.3
2679.44,20477.0
2681.58,20390.3
2683.71,19878.1
2685.84,19794.2
2687.98,19931.8
2690.11,19963.8
2692.25,20264.4
2694.38,20401.7
2696.51,20523.3
2698.64,20297.0
2700.77,20188.9
2702.9,20366.1
2705.03,20471.3
2707.16,20326.1
2709.29,20081.2
2711.41,20071.0
2713.54,20513.9
2715.67,20383.0
2717.79,20394.0
2719.92,20279.0
2722.04,20206.2
2724.16,20551.7
2726.29,20397.5
2728.41,20201.7
2730.53,20223.4
2732.65,20483.1
2734.77,20243.0
2736.89,20593.5
2739.01,20926.1
2741.13,21054.8
2743.25,21135.9
2745.36,21028.8
2747.48,20713.9
2749.6,20935.5
2751.71,21094.5
2753.83,21194.3
2755.94,21116.1
2758.06,21443.6
2760.17,21299.2
2762.28,21077.4
2764.39,20814.8
2766.5,20789.7
2768.61,20962.8
2770.72,21015.6
2772.83,21236.5
2774.94,21138.1
2777.05,21191.0
2779.16,21254.6
2781.27,21610.1
2783.37,21654.6
2785.48,21354.8
2787.58,21072.1
2789.69,20904.9
2791.79,21195.4
2793.89,21763.8
2796.0,21831.2
2798.1,21509.6
2800.2,21200.8
2802.3,21517.7
2804.4,21578.9
2806.5,21582.3
2808.6,21639.1
2810.7,21379.5
2812.8,21501.9
2814.89,21670.4
2816.99,21622.3
2819.09,21926.0
2821.18,22185.4
2823.28,21676.5
2825.37,21303.4
2827.46,21666.4
2829.56,22003.8
2831.65,21718.5
2833.74,21478.8
2835.83,21804.2
2837.92,21802.3
2840.01,22113.5
2842.1,21899.5
2844.19,21559.3
2846.28,21328.8
2848.37,21465.9
2850.45,21778.2
2852.54,21979.2
2854.63,22248.5
2856.71,22221.1
2858.8,21700.8
2860.88,22062.4
2862.96,22528.3
2865.05,22311.4
2867.13,22141.2
2869.21,22275.6
2871.29,22521.8
2873.37,22589.1
2875.45,22413.3
2877.53,22597.9
2879.61,22657.8
2881.69,22534.8
2883.76,22418.1
2885.84,22498.3
2887.92,22608.1
2889.99,22401.3
2892.07,22363.6
2894.14,22868.8
2896.22,23240.3
2898.29,23546.9
2900.36,23581.2
2902.43,23094.6
2904.5,23139.2
2906.58,22975.3
2908.65,23289.8
2910.72,23511.3
2912.78,23220.8
2914.85,22728.3
2916.92,22479.9
2918.99,22719.5
2921.05,23103.6
2923.12,23291.2
2925.19,23142.1
2927.25,22759.6
2929.32,22409.8
2931.38,22631.4
2933.44,23295.7
2935.5,23658.4
2937.57,23407.1
2939.63,23368.2
2941.69,23490.9
2943.75,23492.3
2945.81,23796.2
2947.87,24229.2
2949.93,23823.8
2951.98,23896.4
2954.04,24397.0
2956.1,24404.3
2958.15,24166.5
2960.21,24073.3
2962.26,24022.0
2964.32,24061.1
2966.37,24217.3
2968.42,24555.2
2970.48,24755.8
2972.53,24306.7
2974.58,24166.8
2976.63,24252.7
2978.68,24525.7
2980.73,24541.9
2982.78,24550.4
2984.83,24133.0
2986.87,24254.7
2988.92,24973.2
2990.97,25060.7
2993.01,24350.8
2995.06,23839.6
2997.1,23952.8
2999.15,23961.3
3001.19,24272.4
3003.24,24307.9
3005.28,24392.9
3007.32,24686.7
3009.36,24132.3
3011.4,24010.8
3013.44,24316.9
3015.48,24967.0
3017.52,24729.1
3019.56,24392.2
3021.6,24244.5
3023.63,23936.3
3025.67,24109.1
3027.71,24294.0
3029.74,24310.0
3031.78,24345.7
3033.81,24097.9
3035.85,24224.0
3037.88,24355.4
3039.91,24407.9
3041.94,24597.1
3043.97,24526.9
3046.01,23825.7
3048.04,23581.3
3050.07,24228.6
3052.09,24492.2
3054.12,24206.8
3056.15,23576.3
3058.18,23780.6
3060.2,24451.3
3062.23,24995.2
3064.26,25118.2
3066.28,24726.2
3068.31,25150.3
3070.33,25427.5
3072.35,25932.4
3074.38,25840.3
3076.4,26168.5
3078.42,26913.8
3080.44,26613.2
3082.46,25896.3
3084.48,25824.3
3086.5,25996.8
3088.52,26300.4
3090.54,25978.3
3092.55,25217.8
3094.57,24995.5
3096.59,24594.8
3098.6,24521.3
3100.62,24820.3
3102.63,25476.5
3104.65,25193.2
3106.66,24705.9
3108.67,24393.2
3110.69,24568.6
3112.7,24551.8
3114.71,24363.3
3116.72,24473.2
3118.73,24527.2
3120.74,24491.1
3122.75,24474.9
3124.76,24627.7
3126.77,25260.8
3128.77,25044.2
3130.78,24344.9
3132.79,24021.3
3134.79,24090.2
3136.8,24540.7
3138.8,24236.6
3140.8,23904.9
3142.81,24405.3
3144.81,24983.7
3146.81,25151.9
3148.81,24928.9
3150.82,24500.3
3152.82,24586.7
3154.82,24830.8
3156.82,25033.9
3158.81,25137.3
3160.81,24880.9
3162.81,24802.8
3164.81,24422.4
3166.8,24065.9
3168.8,24339.6
3170.79,24340.7
3172.79,24374.6
3174.78,24384.0
3176.78,24639.3
3178.77,25005.8
3180.76,25059.9
3182.75,24903.3
3184.75,24187.6
3186.74,23950.6
3188.73,24153.3
3190.72,24427.7
3192.71,24864.2
3194.69,24610.3
3196.68,24285.6
3198.67,24172.8
3200.66,24135.9
3202.64,24269.2
3204.63,24696.6
3206.61,24899.8
3208.6,25075.6
3210.58,24766.6
3212.57,24611.8
3214.55,24259.7
3216.53,24310.9
3218.51,25108.1
3220.49,25159.6
3222.47,24829.2
3224.46,24665.2
3226.43,25263.9
3228.41,25394.7
3230.39,24678.3
3232.37,24601.2
3234.35,24688.4
3236.32,24681.2
3238.3,24474.4
3240.28,24737.2
3242.25,25161.8
3244.23,24978.2
3246.2,24119.3
3248.17,24118.8
3250.15,24382.3
3252.12,24597.3
3254.09,24935.3
3256.06,24932.6
3258.03,24806.6
3260.0,24632.7
3261.97,24732.6
3263.94,25197.6
3265.91,25423.5
3267.88,24997.3
3269.84,24488.0
3271.81,24056.9
3273.78,24245.9
3275.74,24311.3
3277.71,24644.6
3279.67,25004.8
3281.64,25183.6
3283.6,24791.3
3285.56,24620.3
3287.52,24930.8
3289.49,24952.8
3291.45,25261.4
3293.41,25237.9
3295.37,25011.7
3297.33,24904.3
3299.29,24753.3
3301.25,24473.7
3303.2,24212.6
3305.16,24386.5
3307.12,24681.2
3309.07,24573.9
3311.03,24877.8
3312.99,25295.9
3314.94,25111.8
3316.89,24528.4
3318.85,24321.3
3320.8,24676.8
3322.75,25114.0
3324.7,25012.8
3326.66,24384.2
3328.61,24263.3
3330.56,24264.1
3332.51,24097.4
3334.46,24264.6
3336.4,24311.2
3338.35,24195.8
3340.3,24678.2
3342.25,24946.3
3344.19,25131.6
3346.14,24653.2
3348.08,23967.1
3350.03,24061.7
3351.97,24195.8
3353.92,23972.2
3355.86,24557.4
3357.8,25034.3
3359.74,24749.5
3361.69,24237.7
3363.63,24233.8
3365.57,23778.1
3367.51,23802.2
3369.45,23856.3
3371.39,23764.3
3373.32,23604.1
3375.26,24249.6
3377.2,24742.9
3379.13,24807.8
3381.07,24656.2
3383.01,24061.7
3384.94,23310.1
3386.88,23370.2
3388.81,23967.4
3390.74,24126.2
3392.68,24263.2
3394.61,24218.6
3396.54,24377.2
3398.47,24117.5
3400.4,23799.2
3402.33,23498.3
3404.26,23313.8
3406.19,23300.8
3408.12,23859.7
3410.05,24503.3
3411.97,24407.8
3413.9,23657.0
3415.83,24410.5
3417.75,25210.2
3419.68,24582.1
3421.6,23884.1
3423.53,23848.3
3425.45,23667.4
3427.37,23157.8
3429.3,22931.9
3431.22,23350.9
3433.14,23734.5
3435.06,23726.5
3436.98,23824.8
3438.9,24185.5
3440.82,24181.6
3442.74,23842.8
3444.66,23950.3
3446.57,23646.5
3448.49,23482.2
3450.41,23666.8
3452.32,23996.9
3454.24,23892.2
3456.15,23868.1
3458.07,24297.2
3459.98,24269.1
3461.9,23852.2
3463.81,23602.6
3465.72,23251.1
3467.63,23310.4
3469.54,23498.8
3471.46,23140.1
3473.37,22979.5
3475.28,23213.6
3477.18,23137.8
3479.09,22733.7
3481.0,23019.1
3482.91,23058.1
3484.82,22736.3
3486.72,22504.2
3488.63,22577.4
3490.53,22736.6
3492.44,23186.8
3494.34,23120.6
3496.25,23050.3
3498.15,22915.9
3500.05,22629.6
3501.96,23070.7
3503.86,23481.2
3505.76,23084.5
3507.66,22653.2
3509.56,22578.1
3511.46,22683.7
3513.36,23270.3
3515.26,23169.3
3517.15,22507.8
3519.05,22304.7
3520.95,21718.9
3522.85,21695.8
3524.74,22422.1
3526.64,22647.8
3528.53,23042.6
3530.43,23240.3
3532.32,22978.8
3534.21,22802.2
3536.11,22682.2
3538.0,22245.5
3539.89,22312.4
3541.78,22546.2
3543.67,22828.8
3545.56,22569.7
3547.45,22353.7
3549.34,22399.9
3551.23,22154.1
3553.12,21725.9
3555.0,22126.0
3556.89,22567.8
3558.78,22538.6
3560.66,21699.3
3562.55,21978.8
3564.43,22299.1
3566.32,22372.9
3568.2,22146.7
3570.09,21757.1
3571.97,21516.9
3573.85,21759.8
3575.73,21806.7
3577.61,21689.3
3579.49,21764.7
3581.37,21870.4
3583.25,21920.8
3585.13,21549.2
3587.01,21343.3
3588.89,21674.3
3590.77,21901.8
3592.64,21902.6
3594.52,21085.7
3596.4,20656.8
3598.27,21033.4
3600.15,21557.0
3602.02,22129.8
3603.9,21664.9
3605.77,21640.1
3607.64,22024.9
3609.51,21480.1
3611.39,20985.3
3613.26,20941.0
3615.13,20896.4
3617.0,20578.2
3618.87,20513.8
3620.74,21139.9
3622.61,20815.3
3624.48,20823.3
3626.34,20696.9
3628.21,20729.8
3630.08,20796.6
3631.94,20647.3
3633.81,20073.8
3635.67,19837.6
3637.54,20964.3
3639.4,21044.8
3641.27,20713.7
3643.13,20489.6
3644.99,20842.9
3646.85,20564.3
3648.72,20285.3
3650.58,20189.3
3652.44,20383.7
3654.3,20289.9
3656.16,20523.3
3658.02,20950.1
3659.87,20676.3
3661.73,20279.1
3663.59,20944.7
3665.45,21221.2
