cm-1,A
4000.0,-0.0013
3999.0,-0.0013
3998.0,-0.0013
3997.0,-0.0014
3996.0,-0.0014
3995.0,-0.0014
3994.0,-0.0014
3993.0,-0.0014
3992.0,-0.0014
3991.0,-0.0013
3990.0,-0.0014
3989.0,-0.0014
3988.0,-0.0013
3987.0,-0.0013
3986.0,-0.0013
3985.0,-0.0013
3984.0,-0.0013
3983.0,-0.0013
3982.0,-0.0014
3981.0,-0.0014
3980.0,-0.0014
3979.0,-0.0014
3978.0,-0.0014
3977.0,-0.0013
3976.0,-0.0013
3975.0,-0.0012
3974.0,-0.0012
3973.0,-0.0013
3972.0,-0.0013
3971.0,-0.0013
3970.0,-0.0013
3969.0,-0.0012
3968.0,-0.0012
3967.0,-0.0012
3966.0,-0.0013
3965.0,-0.0013
3964.0,-0.0013
3963.0,-0.0014
3962.0,-0.0014
3961.0,-0.0013
3960.0,-0.0013
3959.0,-0.0013
3958.0,-0.0013
3957.0,-0.0013
3956.0,-0.0013
3955.0,-0.0013
3954.0,-0.0013
3953.0,-0.0013
3952.0,-0.0014
3951.0,-0.0014
3950.0,-0.0015
3949.0,-0.0015
3948.0,-0.0015
3947.0,-0.0014
3946.0,-0.0014
3945.0,-0.0013
3944.0,-0.0013
3943.0,-0.0013
3942.0,-0.0013
3941.0,-0.0013
3940.0,-0.0013
3939.0,-0.0012
3938.0,-0.0012
3937.0,-0.0013
3936.0,-0.0013
3935.0,-0.0013
3934.0,-0.0014
3933.0,-0.0014
3932.0,-0.0014
3931.0,-0.0014
3930.0,-0.0013
3929.0,-0.0012
3928.0,-0.0012
3927.0,-0.0012
3926.0,-0.0012
3925.0,-0.0012
3924.0,-0.0012
3923.0,-0.0012
3922.0,-0.0012
3921.0,-0.0012
3920.0,-0.0013
3919.0,-0.0013
3918.0,-0.0013
3917.0,-0.0014
3916.0,-0.0014
3915.0,-0.0014
3914.0,-0.0014
3913.0,-0.0013
3912.0,-0.0013
3911.0,-0.0013
3910.0,-0.0013
3909.0,-0.0013
3908.0,-0.0012
3907.0,-0.0012
3906.0,-0.001
3905.0,-0.0009
3904.0,-0.0008
3903.0,-0.0008
3902.0,-0.0009
3901.0,-0.0011
3900.0,-0.0012
3899.0,-0.0012
3898.0,-0.0012
3897.0,-0.0012
3896.0,-0.0012
3895.0,-0.0012
3894.0,-0.0012
3893.0,-0.0013
3892.0,-0.0014
3891.0,-0.0014
3890.0,-0.0014
3889.0,-0.0014
3888.0,-0.0013
3887.0,-0.0012
3886.0,-0.0012
3885.0,-0.0013
3884.0,-0.0014
3883.0,-0.0014
3882.0,-0.0013
3881.0,-0.0012
3880.0,-0.0011
3879.0,-0.0011
3878.0,-0.0012
3877.0,-0.0012
3876.0,-0.0012
3875.0,-0.0012
3874.0,-0.0012
3873.0,-0.0012
3872.0,-0.0011
3871.0,-0.0011
3870.0,-0.0011
3869.0,-0.0011
3868.0,-0.001
3867.0,-0.0009
3866.0,-0.0008
3865.0,-0.0008
3864.0,-0.0009
3863.0,-0.001
3862.0,-0.0011
3861.0,-0.0011
3860.0,-0.0011
3859.0,-0.001
3858.0,-0.001
3857.0,-0.001
3856.0,-0.001
3855.0,-0.0011
3854.0,-0.0011
3853.0,-0.0011
3852.0,-0.001
3851.0,-0.001
3850.0,-0.001
3849.0,-0.0011
3848.0,-0.0011
3847.0,-0.0012
3846.0,-0.0012
3845.0,-0.0012
3844.0,-0.0013
3843.0,-0.0014
3842.0,-0.0015
3841.0,-0.0015
3840.0,-0.0014
3839.0,-0.0013
3838.0,-0.0012
3837.0,-0.0012
3836.0,-0.0013
3835.0,-0.0013
3834.0,-0.0013
3833.0,-0.0012
3832.0,-0.0011
3831.0,-0.001
3830.0,-0.001
3829.0,-0.001
3828.0,-0.0011
3827.0,-0.0011
3826.0,-0.0011
3825.0,-0.0011
3824.0,-0.0011
3823.0,-0.0011
3822.0,-0.001
3821.0,-0.001
3820.0,-0.001
3819.0,-0.001
3818.0,-0.001
3817.0,-0.001
3816.0,-0.001
3815.0,-0.0011
3814.0,-0.0012
3813.0,-0.0013
3812.0,-0.0013
3811.0,-0.0013
3810.0,-0.0013
3809.0,-0.0014
3808.0,-0.0014
3807.0,-0.0015
3806.0,-0.0015
3805.0,-0.0016
3804.0,-0.0015
3803.0,-0.0014
3802.0,-0.0013
3801.0,-0.0013
3800.0,-0.0013
3799.0,-0.0012
3798.0,-0.0012
3797.0,-0.0011
3796.0,-0.0011
3795.0,-0.0011
3794.0,-0.0011
3793.0,-0.0011
3792.0,-0.0012
3791.0,-0.0012
3790.0,-0.0013
3789.0,-0.0013
3788.0,-0.0014
3787.0,-0.0014
3786.0,-0.0015
3785.0,-0.0014
3784.0,-0.0014
3783.0,-0.0013
3782.0,-0.0013
3781.0,-0.0013
3780.0,-0.0013
3779.0,-0.0013
3778.0,-0.0013
3777.0,-0.0012
3776.0,-0.0012
3775.0,-0.0012
3774.0,-0.0012
3773.0,-0.0013
3772.0,-0.0013
3771.0,-0.0014
3770.0,-0.0014
3769.0,-0.0013
3768.0,-0.0012
3767.0,-0.0012
3766.0,-0.0012
3765.0,-0.0012
3764.0,-0.0013
3763.0,-0.0013
3762.0,-0.0013
3761.0,-0.0013
3760.0,-0.0014
3759.0,-0.0014
3758.0,-0.0014
3757.0,-0.0013
3756.0,-0.0012
3755.0,-0.0012
3754.0,-0.0011
3753.0,-0.001
3752.0,-0.0008
3751.0,-0.0007
3750.0,-0.0007
3749.0,-0.0006
3748.0,-0.0007
3747.0,-0.0007
3746.0,-0.0007
3745.0,-0.0007
3744.0,-0.0007
3743.0,-0.0007
3742.0,-0.0007
3741.0,-0.0006
3740.0,-0.0005
3739.0,-0.0005
3738.0,-0.0004
3737.0,-0.0004
3736.0,-0.0003
3735.0,-0.0003
3734.0,-0.0003
3733.0,-0.0004
3732.0,-0.0005
3731.0,-0.0005
3730.0,-0.0006
3729.0,-0.0005
3728.0,-0.0005
3727.0,-0.0006
3726.0,-0.0006
3725.0,-0.0007
3724.0,-0.0008
3723.0,-0.0008
3722.0,-0.0008
3721.0,-0.0008
3720.0,-0.0008
3719.0,-0.0008
3718.0,-0.0009
3717.0,-0.001
3716.0,-0.001
3715.0,-0.001
3714.0,-0.001
3713.0,-0.0009
3712.0,-0.0008
3711.0,-0.0006
3710.0,-0.0005
3709.0,-0.0005
3708.0,-0.0005
3707.0,-0.0006
3706.0,-0.0007
3705.0,-0.0008
3704.0,-0.0009
3703.0,-0.001
3702.0,-0.001
3701.0,-0.001
3700.0,-0.001
3699.0,-0.0009
3698.0,-0.0009
3697.0,-0.0009
3696.0,-0.0008
3695.0,-0.0008
3694.0,-0.0008
3693.0,-0.0007
3692.0,-0.0007
3691.0,-0.0009
3690.0,-0.0011
3689.0,-0.0012
3688.0,-0.0012
3687.0,-0.0011
3686.0,-0.0011
3685.0,-0.0011
3684.0,-0.0011
3683.0,-0.0011
3682.0,-0.0011
3681.0,-0.0011
3680.0,-0.0012
3679.0,-0.0013
3678.0,-0.0014
3677.0,-0.0014
3676.0,-0.0013
3675.0,-0.0012
3674.0,-0.0011
3673.0,-0.001
3672.0,-0.0008
3671.0,-0.0008
3670.0,-0.0008
3669.0,-0.0009
3668.0,-0.001
3667.0,-0.0011
3666.0,-0.0012
3665.0,-0.0012
3664.0,-0.0013
3663.0,-0.0013
3662.0,-0.0013
3661.0,-0.0013
3660.0,-0.0013
3659.0,-0.0013
3658.0,-0.0013
3657.0,-0.0013
3656.0,-0.0013
3655.0,-0.0013
3654.0,-0.0012
3653.0,-0.0012
3652.0,-0.0012
3651.0,-0.0012
3650.0,-0.0012
3649.0,-0.0012
3648.0,-0.001
3647.0,-0.0009
3646.0,-0.0009
3645.0,-0.0009
3644.0,-0.001
3643.0,-0.0011
3642.0,-0.0011
3641.0,-0.0011
3640.0,-0.001
3639.0,-0.001
3638.0,-0.0009
3637.0,-0.0009
3636.0,-0.0008
3635.0,-0.0007
3634.0,-0.0007
3633.0,-0.0008
3632.0,-0.0008
3631.0,-0.0007
3630.0,-0.0006
3629.0,-0.0006
3628.0,-0.0007
3627.0,-0.0008
3626.0,-0.0009
3625.0,-0.001
3624.0,-0.0011
3623.0,-0.0011
3622.0,-0.0011
3621.0,-0.0011
3620.0,-0.0011
3619.0,-0.001
3618.0,-0.001
3617.0,-0.001
3616.0,-0.001
3615.0,-0.001
3614.0,-0.0009
3613.0,-0.0009
3612.0,-0.0009
3611.0,-0.0009
3610.0,-0.0009
3609.0,-0.001
3608.0,-0.0009
3607.0,-0.0009
3606.0,-0.0008
3605.0,-0.0008
3604.0,-0.0008
3603.0,-0.0008
3602.0,-0.0007
3601.0,-0.0007
3600.0,-0.0008
3599.0,-0.0008
3598.0,-0.0009
3597.0,-0.0009
3596.0,-0.0008
3595.0,-0.0007
3594.0,-0.0007
3593.0,-0.0008
3592.0,-0.0009
3591.0,-0.0011
3590.0,-0.0012
3589.0,-0.0013
3588.0,-0.0013
3587.0,-0.0012
3586.0,-0.0011
3585.0,-0.0011
3584.0,-0.0011
3583.0,-0.0011
3582.0,-0.0011
3581.0,-0.0011
3580.0,-0.0011
3579.0,-0.0011
3578.0,-0.0011
3577.0,-0.0011
3576.0,-0.001
3575.0,-0.0011
3574.0,-0.0011
3573.0,-0.0012
3572.0,-0.0012
3571.0,-0.0012
3570.0,-0.0012
3569.0,-0.0013
3568.0,-0.0013
3567.0,-0.0013
3566.0,-0.0013
3565.0,-0.0012
3564.0,-0.0011
3563.0,-0.0011
3562.0,-0.0011
3561.0,-0.0011
3560.0,-0.0011
3559.0,-0.0011
3558.0,-0.0011
3557.0,-0.0011
3556.0,-0.0011
3555.0,-0.0011
3554.0,-0.0012
3553.0,-0.0012
3552.0,-0.0012
3551.0,-0.0012
3550.0,-0.0012
3549.0,-0.0012
3548.0,-0.0012
3547.0,-0.0011
3546.0,-0.0011
3545.0,-0.0011
3544.0,-0.0011
3543.0,-0.0012
3542.0,-0.0012
3541.0,-0.0011
3540.0,-0.0011
3539.0,-0.001
3538.0,-0.0011
3537.0,-0.0011
3536.0,-0.0012
3535.0,-0.0013
3534.0,-0.0013
3533.0,-0.0013
3532.0,-0.0013
3531.0,-0.0013
3530.0,-0.0013
3529.0,-0.0013
3528.0,-0.0013
3527.0,-0.0013
3526.0,-0.0014
3525.0,-0.0013
3524.0,-0.0013
3523.0,-0.0012
3522.0,-0.0012
3521.0,-0.0013
3520.0,-0.0013
3519.0,-0.0014
3518.0,-0.0014
3517.0,-0.0014
3516.0,-0.0013
3515.0,-0.0012
3514.0,-0.0012
3513.0,-0.0012
3512.0,-0.0012
3511.0,-0.0012
3510.0,-0.0013
3509.0,-0.0014
3508.0,-0.0015
3507.0,-0.0015
3506.0,-0.0015
3505.0,-0.0014
3504.0,-0.0014
3503.0,-0.0014
3502.0,-0.0013
3501.0,-0.0013
3500.0,-0.0012
3499.0,-0.0012
3498.0,-0.0012
3497.0,-0.0012
3496.0,-0.0012
3495.0,-0.0013
3494.0,-0.0013
3493.0,-0.0013
3492.0,-0.0012
3491.0,-0.0012
3490.0,-0.0012
3489.0,-0.0012
3488.0,-0.0012
3487.0,-0.0012
3486.0,-0.0011
3485.0,-0.0012
3484.0,-0.0012
3483.0,-0.0013
3482.0,-0.0013
3481.0,-0.0013
3480.0,-0.0012
3479.0,-0.0011
3478.0,-0.001
3477.0,-0.0011
3476.0,-0.0011
3475.0,-0.0012
3474.0,-0.0012
3473.0,-0.0013
3472.0,-0.0013
3471.0,-0.0013
3470.0,-0.0013
3469.0,-0.0013
3468.0,-0.0013
3467.0,-0.0012
3466.0,-0.0012
3465.0,-0.0012
3464.0,-0.0012
3463.0,-0.0012
3462.0,-0.0013
3461.0,-0.0013
3460.0,-0.0013
3459.0,-0.0012
3458.0,-0.0012
3457.0,-0.0011
3456.0,-0.0011
3455.0,-0.0012
3454.0,-0.0012
3453.0,-0.0012
3452.0,-0.0012
3451.0,-0.0012
3450.0,-0.0011
3449.0,-0.0011
3448.0,-0.001
3447.0,-0.001
3446.0,-0.001
3445.0,-0.0011
3444.0,-0.0012
3443.0,-0.0014
3442.0,-0.0015
3441.0,-0.0015
3440.0,-0.0014
3439.0,-0.0013
3438.0,-0.0013
3437.0,-0.0012
3436.0,-0.0011
3435.0,-0.0011
3434.0,-0.0011
3433.0,-0.0012
3432.0,-0.0012
3431.0,-0.0011
3430.0,-0.0011
3429.0,-0.0011
3428.0,-0.0012
3427.0,-0.0012
3426.0,-0.0012
3425.0,-0.0012
3424.0,-0.0011
3423.0,-0.0011
3422.0,-0.0012
3421.0,-0.0012
3420.0,-0.0013
3419.0,-0.0013
3418.0,-0.0014
3417.0,-0.0013
3416.0,-0.0013
3415.0,-0.0013
3414.0,-0.0012
3413.0,-0.0012
3412.0,-0.0012
3411.0,-0.0013
3410.0,-0.0013
3409.0,-0.0013
3408.0,-0.0012
3407.0,-0.0012
3406.0,-0.0012
3405.0,-0.0013
3404.0,-0.0013
3403.0,-0.0013
3402.0,-0.0013
3401.0,-0.0013
3400.0,-0.0013
3399.0,-0.0013
3398.0,-0.0013
3397.0,-0.0014
3396.0,-0.0015
3395.0,-0.0014
3394.0,-0.0014
3393.0,-0.0013
3392.0,-0.0012
3391.0,-0.0012
3390.0,-0.0012
3389.0,-0.0013
3388.0,-0.0013
3387.0,-0.0012
3386.0,-0.0012
3385.0,-0.0012
3384.0,-0.0012
3383.0,-0.0012
3382.0,-0.0012
3381.0,-0.0012
3380.0,-0.0012
3379.0,-0.0012
3378.0,-0.0012
3377.0,-0.0011
3376.0,-0.0011
3375.0,-0.001
3374.0,-0.0011
3373.0,-0.0011
3372.0,-0.0012
3371.0,-0.0013
3370.0,-0.0013
3369.0,-0.0014
3368.0,-0.0014
3367.0,-0.0014
3366.0,-0.0014
3365.0,-0.0013
3364.0,-0.0012
3363.0,-0.0012
3362.0,-0.0012
3361.0,-0.0012
3360.0,-0.0011
3359.0,-0.001
3358.0,-0.001
3357.0,-0.001
3356.0,-0.001
3355.0,-0.001
3354.0,-0.001
3353.0,-0.0011
3352.0,-0.0012
3351.0,-0.0013
3350.0,-0.0013
3349.0,-0.0013
3348.0,-0.0012
3347.0,-0.0011
3346.0,-0.0011
3345.0,-0.0011
3344.0,-0.0012
3343.0,-0.0012
3342.0,-0.0012
3341.0,-0.0012
3340.0,-0.0011
3339.0,-0.0011
3338.0,-0.0011
3337.0,-0.001
3336.0,-0.001
3335.0,-0.001
3334.0,-0.0011
3333.0,-0.0012
3332.0,-0.0012
3331.0,-0.0012
3330.0,-0.0012
3329.0,-0.0011
3328.0,-0.0011
3327.0,-0.0011
3326.0,-0.0011
3325.0,-0.0011
3324.0,-0.0011
3323.0,-0.0011
3322.0,-0.0011
3321.0,-0.0011
3320.0,-0.0012
3319.0,-0.0012
3318.0,-0.0012
3317.0,-0.0012
3316.0,-0.0011
3315.0,-0.0011
3314.0,-0.0011
3313.0,-0.0012
3312.0,-0.0013
3311.0,-0.0012
3310.0,-0.0012
3309.0,-0.0011
3308.0,-0.0011
3307.0,-0.0011
3306.0,-0.0011
3305.0,-0.0011
3304.0,-0.0011
3303.0,-0.0012
3302.0,-0.0012
3301.0,-0.0013
3300.0,-0.0013
3299.0,-0.0013
3298.0,-0.0013
3297.0,-0.0013
3296.0,-0.0013
3295.0,-0.0012
3294.0,-0.0012
3293.0,-0.0011
3292.0,-0.0011
3291.0,-0.0011
3290.0,-0.0011
3289.0,-0.0012
3288.0,-0.0012
3287.0,-0.0012
3286.0,-0.0012
3285.0,-0.0012
3284.0,-0.0012
3283.0,-0.0012
3282.0,-0.0012
3281.0,-0.0012
3280.0,-0.0012
3279.0,-0.0012
3278.0,-0.0012
3277.0,-0.0012
3276.0,-0.0012
3275.0,-0.0013
3274.0,-0.0013
3273.0,-0.0013
3272.0,-0.0013
3271.0,-0.0012
3270.0,-0.0012
3269.0,-0.0012
3268.0,-0.0012
3267.0,-0.0013
3266.0,-0.0014
3265.0,-0.0014
3264.0,-0.0014
3263.0,-0.0014
3262.0,-0.0014
3261.0,-0.0013
3260.0,-0.0013
3259.0,-0.0013
3258.0,-0.0013
3257.0,-0.0013
3256.0,-0.0013
3255.0,-0.0013
3254.0,-0.0013
3253.0,-0.0013
3252.0,-0.0012
3251.0,-0.0012
3250.0,-0.0012
3249.0,-0.0012
3248.0,-0.0013
3247.0,-0.0014
3246.0,-0.0014
3245.0,-0.0013
3244.0,-0.0012
3243.0,-0.0011
3242.0,-0.0011
3241.0,-0.0012
3240.0,-0.0012
3239.0,-0.0012
3238.0,-0.0012
3237.0,-0.0012
3236.0,-0.0011
3235.0,-0.0011
3234.0,-0.0012
3233.0,-0.0012
3232.0,-0.0013
3231.0,-0.0013
3230.0,-0.0012
3229.0,-0.0012
3228.0,-0.0011
3227.0,-0.0012
3226.0,-0.0012
3225.0,-0.0012
3224.0,-0.0012
3223.0,-0.0011
3222.0,-0.0011
3221.0,-0.0011
3220.0,-0.0012
3219.0,-0.0012
3218.0,-0.0013
3217.0,-0.0013
3216.0,-0.0013
3215.0,-0.0013
3214.0,-0.0013
3213.0,-0.0013
3212.0,-0.0013
3211.0,-0.0013
3210.0,-0.0012
3209.0,-0.0012
3208.0,-0.0011
3207.0,-0.0011
3206.0,-0.0011
3205.0,-0.0011
3204.0,-0.0011
3203.0,-0.0012
3202.0,-0.0012
3201.0,-0.0013
3200.0,-0.0013
3199.0,-0.0013
3198.0,-0.0013
3197.0,-0.0013
3196.0,-0.0012
3195.0,-0.0013
3194.0,-0.0013
3193.0,-0.0013
3192.0,-0.0013
3191.0,-0.0013
3190.0,-0.0013
3189.0,-0.0014
3188.0,-0.0013
3187.0,-0.0013
3186.0,-0.0012
3185.0,-0.0012
3184.0,-0.0012
3183.0,-0.0012
3182.0,-0.0012
3181.0,-0.0012
3180.0,-0.0012
3179.0,-0.0013
3178.0,-0.0013
3177.0,-0.0013
3176.0,-0.0013
3175.0,-0.0012
3174.0,-0.0011
3173.0,-0.001
3172.0,-0.0011
3171.0,-0.0012
3170.0,-0.0013
3169.0,-0.0014
3168.0,-0.0014
3167.0,-0.0014
3166.0,-0.0014
3165.0,-0.0014
3164.0,-0.0014
3163.0,-0.0014
3162.0,-0.0013
3161.0,-0.0012
3160.0,-0.0012
3159.0,-0.0012
3158.0,-0.0012
3157.0,-0.0013
3156.0,-0.0012
3155.0,-0.0012
3154.0,-0.0012
3153.0,-0.0012
3152.0,-0.0012
3151.0,-0.0012
3150.0,-0.0012
3149.0,-0.0012
3148.0,-0.0012
3147.0,-0.0012
3146.0,-0.0012
3145.0,-0.0012
3144.0,-0.0012
3143.0,-0.0012
3142.0,-0.0012
3141.0,-0.0012
3140.0,-0.0012
3139.0,-0.0012
3138.0,-0.0012
3137.0,-0.0012
3136.0,-0.0013
3135.0,-0.0013
3134.0,-0.0013
3133.0,-0.0013
3132.0,-0.0013
3131.0,-0.0013
3130.0,-0.0013
3129.0,-0.0013
3128.0,-0.0013
3127.0,-0.0013
3126.0,-0.0012
3125.0,-0.0012
3124.0,-0.0011
3123.0,-0.0011
3122.0,-0.0011
3121.0,-0.0012
3120.0,-0.0012
3119.0,-0.0012
3118.0,-0.0012
3117.0,-0.0012
3116.0,-0.0012
3115.0,-0.0012
3114.0,-0.0012
3113.0,-0.0012
3112.0,-0.0012
3111.0,-0.0012
3110.0,-0.0012
3109.0,-0.0013
3108.0,-0.0013
3107.0,-0.0013
3106.0,-0.0013
3105.0,-0.0013
3104.0,-0.0012
3103.0,-0.0012
3102.0,-0.0011
3101.0,-0.0011
3100.0,-0.0012
3099.0,-0.0013
3098.0,-0.0013
3097.0,-0.0013
3096.0,-0.0013
3095.0,-0.0013
3094.0,-0.0013
3093.0,-0.0013
3092.0,-0.0013
3091.0,-0.0013
3090.0,-0.0013
3089.0,-0.0013
3088.0,-0.0012
3087.0,-0.0012
3086.0,-0.0011
3085.0,-0.0011
3084.0,-0.0011
3083.0,-0.0011
3082.0,-0.0011
3081.0,-0.0012
3080.0,-0.0012
3079.0,-0.0012
3078.0,-0.0012
3077.0,-0.0012
3076.0,-0.0012
3075.0,-0.0012
3074.0,-0.0012
3073.0,-0.0012
3072.0,-0.0013
3071.0,-0.0014
3070.0,-0.0014
3069.0,-0.0014
3068.0,-0.0014
3067.0,-0.0014
3066.0,-0.0014
3065.0,-0.0013
3064.0,-0.0013
3063.0,-0.0012
3062.0,-0.0012
3061.0,-0.0012
3060.0,-0.0013
3059.0,-0.0013
3058.0,-0.0013
3057.0,-0.0013
3056.0,-0.0013
3055.0,-0.0014
3054.0,-0.0014
3053.0,-0.0014
3052.0,-0.0013
3051.0,-0.0014
3050.0,-0.0014
3049.0,-0.0013
3048.0,-0.0013
3047.0,-0.0012
3046.0,-0.0012
3045.0,-0.0012
3044.0,-0.0012
3043.0,-0.0013
3042.0,-0.0013
3041.0,-0.0013
3040.0,-0.0013
3039.0,-0.0013
3038.0,-0.0012
3037.0,-0.0012
3036.0,-0.0012
3035.0,-0.0012
3034.0,-0.0012
3033.0,-0.0012
3032.0,-0.0012
3031.0,-0.0012
3030.0,-0.0011
3029.0,-0.0011
3028.0,-0.0011
3027.0,-0.0011
3026.0,-0.0011
3025.0,-0.0011
3024.0,-0.0011
3023.0,-0.0011
3022.0,-0.0011
3021.0,-0.0012
3020.0,-0.0012
3019.0,-0.0013
3018.0,-0.0013
3017.0,-0.0013
3016.0,-0.0013
3015.0,-0.0013
3014.0,-0.0013
3013.0,-0.0012
3012.0,-0.0012
3011.0,-0.0012
3010.0,-0.0012
3009.0,-0.0013
3008.0,-0.0013
3007.0,-0.0013
3006.0,-0.0013
3005.0,-0.0012
3004.0,-0.0012
3003.0,-0.0012
3002.0,-0.0012
3001.0,-0.0012
3000.0,-0.0011
2999.0,-0.0011
2998.0,-0.0011
2997.0,-0.0011
2996.0,-0.0011
2995.0,-0.0012
2994.0,-0.0012
2993.0,-0.0013
2992.0,-0.0013
2991.0,-0.0013
2990.0,-0.0013
2989.0,-0.0013
2988.0,-0.0013
2987.0,-0.0013
2986.0,-0.0013
2985.0,-0.0013
2984.0,-0.0013
2983.0,-0.0013
2982.0,-0.0013
2981.0,-0.0013
2980.0,-0.0013
2979.0,-0.0013
2978.0,-0.0012
2977.0,-0.0012
2976.0,-0.0012
2975.0,-0.0012
2974.0,-0.0012
2973.0,-0.0012
2972.0,-0.0012
2971.0,-0.0013
2970.0,-0.0013
2969.0,-0.0012
2968.0,-0.0012
2967.0,-0.0012
2966.0,-0.0012
2965.0,-0.0012
2964.0,-0.0012
2963.0,-0.0012
2962.0,-0.0011
2961.0,-0.0011
2960.0,-0.0011
2959.0,-0.0012
2958.0,-0.0011
2957.0,-0.0011
2956.0,-0.001
2955.0,-0.001
2954.0,-0.001
2953.0,-0.001
2952.0,-0.0011
2951.0,-0.0011
2950.0,-0.001
2949.0,-0.001
2948.0,-0.001
2947.0,-0.001
2946.0,-0.001
2945.0,-0.0009
2944.0,-0.0009
2943.0,-0.0008
2942.0,-0.0007
2941.0,-0.0006
2940.0,-0.0005
2939.0,-0.0004
2938.0,-0.0004
2937.0,-0.0003
2936.0,-0.0001
2935.0,0.0
2934.0,0.0003
2933.0,0.0005
2932.0,0.0007
2931.0,0.0009
2930.0,0.0012
2929.0,0.0014
2928.0,0.0017
2927.0,0.002
2926.0,0.0023
2925.0,0.0026
2924.0,0.003
2923.0,0.0036
2922.0,0.0042
2921.0,0.0047
2920.0,0.0053
2919.0,0.0057
2918.0,0.006
2917.0,0.0061
2916.0,0.0061
2915.0,0.0058
2914.0,0.0054
2913.0,0.0049
2912.0,0.0044
2911.0,0.0039
2910.0,0.0035
2909.0,0.0031
2908.0,0.0029
2907.0,0.0027
2906.0,0.0026
2905.0,0.0025
2904.0,0.0023
2903.0,0.0021
2902.0,0.002
2901.0,0.002
2900.0,0.0019
2899.0,0.0019
2898.0,0.0018
2897.0,0.0017
2896.0,0.0016
2895.0,0.0016
2894.0,0.0015
2893.0,0.0014
2892.0,0.0013
2891.0,0.0012
2890.0,0.0011
2889.0,0.001
2888.0,0.0009
2887.0,0.0009
2886.0,0.0009
2885.0,0.0008
2884.0,0.0008
2883.0,0.0007
2882.0,0.0006
2881.0,0.0006
2880.0,0.0005
2879.0,0.0004
2878.0,0.0003
2877.0,0.0001
2876.0,-0.0
2875.0,-0.0001
2874.0,-0.0002
2873.0,-0.0002
2872.0,-0.0001
2871.0,-0.0002
2870.0,-0.0002
2869.0,-0.0002
2868.0,-0.0003
2867.0,-0.0003
2866.0,-0.0003
2865.0,-0.0002
2864.0,-0.0002
2863.0,-0.0001
2862.0,0.0001
2861.0,0.0002
2860.0,0.0004
2859.0,0.0005
2858.0,0.0008
2857.0,0.0011
2856.0,0.0016
2855.0,0.0021
2854.0,0.0027
2853.0,0.0034
2852.0,0.0041
2851.0,0.0048
2850.0,0.0054
2849.0,0.0056
2848.0,0.0055
2847.0,0.0051
2846.0,0.0045
2845.0,0.0038
2844.0,0.0032
2843.0,0.0027
2842.0,0.0023
2841.0,0.002
2840.0,0.0017
2839.0,0.0015
2838.0,0.0012
2837.0,0.0011
2836.0,0.0009
2835.0,0.0007
2834.0,0.0006
2833.0,0.0005
2832.0,0.0004
2831.0,0.0003
2830.0,0.0002
2829.0,0.0001
2828.0,-0.0
2827.0,-0.0001
2826.0,-0.0001
2825.0,-0.0001
2824.0,-0.0001
2823.0,-0.0001
2822.0,-0.0002
2821.0,-0.0002
2820.0,-0.0002
2819.0,-0.0002
2818.0,-0.0001
2817.0,-0.0001
2816.0,-0.0
2815.0,-0.0001
2814.0,-0.0001
2813.0,-0.0002
2812.0,-0.0002
2811.0,-0.0003
2810.0,-0.0003
2809.0,-0.0004
2808.0,-0.0004
2807.0,-0.0004
2806.0,-0.0005
2805.0,-0.0005
2804.0,-0.0005
2803.0,-0.0005
2802.0,-0.0004
2801.0,-0.0004
2800.0,-0.0004
2799.0,-0.0004
2798.0,-0.0005
2797.0,-0.0005
2796.0,-0.0005
2795.0,-0.0005
2794.0,-0.0005
2793.0,-0.0006
2792.0,-0.0006
2791.0,-0.0006
2790.0,-0.0006
2789.0,-0.0007
2788.0,-0.0007
2787.0,-0.0006
2786.0,-0.0006
2785.0,-0.0006
2784.0,-0.0006
2783.0,-0.0006
2782.0,-0.0006
2781.0,-0.0006
2780.0,-0.0006
2779.0,-0.0006
2778.0,-0.0006
2777.0,-0.0006
2776.0,-0.0006
2775.0,-0.0006
2774.0,-0.0006
2773.0,-0.0006
2772.0,-0.0006
2771.0,-0.0006
2770.0,-0.0006
2769.0,-0.0007
2768.0,-0.0006
2767.0,-0.0006
2766.0,-0.0007
2765.0,-0.0007
2764.0,-0.0008
2763.0,-0.0008
2762.0,-0.0008
2761.0,-0.0008
2760.0,-0.0008
2759.0,-0.0008
2758.0,-0.0008
2757.0,-0.0007
2756.0,-0.0007
2755.0,-0.0006
2754.0,-0.0006
2753.0,-0.0006
2752.0,-0.0006
2751.0,-0.0006
2750.0,-0.0006
2749.0,-0.0006
2748.0,-0.0007
2747.0,-0.0008
2746.0,-0.0008
2745.0,-0.0008
2744.0,-0.0008
2743.0,-0.0007
2742.0,-0.0007
2741.0,-0.0007
2740.0,-0.0007
2739.0,-0.0008
2738.0,-0.0008
2737.0,-0.0008
2736.0,-0.0008
2735.0,-0.0008
2734.0,-0.0008
2733.0,-0.0008
2732.0,-0.0008
2731.0,-0.0008
2730.0,-0.0008
2729.0,-0.0008
2728.0,-0.0007
2727.0,-0.0007
2726.0,-0.0008
2725.0,-0.0008
2724.0,-0.0009
2723.0,-0.0009
2722.0,-0.0009
2721.0,-0.0009
2720.0,-0.0008
2719.0,-0.0008
2718.0,-0.0007
2717.0,-0.0007
2716.0,-0.0007
2715.0,-0.0007
2714.0,-0.0007
2713.0,-0.0007
2712.0,-0.0007
2711.0,-0.0007
2710.0,-0.0007
2709.0,-0.0008
2708.0,-0.0009
2707.0,-0.001
2706.0,-0.001
2705.0,-0.0009
2704.0,-0.0008
2703.0,-0.0008
2702.0,-0.0008
2701.0,-0.0008
2700.0,-0.0008
2699.0,-0.0008
2698.0,-0.0008
2697.0,-0.0008
2696.0,-0.0008
2695.0,-0.0007
2694.0,-0.0007
2693.0,-0.0007
2692.0,-0.0007
2691.0,-0.0007
2690.0,-0.0007
2689.0,-0.0007
2688.0,-0.0007
2687.0,-0.0008
2686.0,-0.0008
2685.0,-0.0007
2684.0,-0.0007
2683.0,-0.0007
2682.0,-0.0006
2681.0,-0.0006
2680.0,-0.0007
2679.0,-0.0007
2678.0,-0.0007
2677.0,-0.0007
2676.0,-0.0007
2675.0,-0.0007
2674.0,-0.0007
2673.0,-0.0008
2672.0,-0.0008
2671.0,-0.0008
2670.0,-0.0008
2669.0,-0.0008
2668.0,-0.0008
2667.0,-0.0009
2666.0,-0.0009
2665.0,-0.0008
2664.0,-0.0008
2663.0,-0.0008
2662.0,-0.0008
2661.0,-0.0007
2660.0,-0.0007
2659.0,-0.0007
2658.0,-0.0007
2657.0,-0.0007
2656.0,-0.0007
2655.0,-0.0008
2654.0,-0.0008
2653.0,-0.0008
2652.0,-0.0009
2651.0,-0.0009
2650.0,-0.0009
2649.0,-0.0008
2648.0,-0.0008
2647.0,-0.0008
2646.0,-0.0008
2645.0,-0.0008
2644.0,-0.0008
2643.0,-0.0008
2642.0,-0.0008
2641.0,-0.0008
2640.0,-0.0009
2639.0,-0.0009
2638.0,-0.0008
2637.0,-0.0008
2636.0,-0.0008
2635.0,-0.0008
2634.0,-0.0008
2633.0,-0.0008
2632.0,-0.0009
2631.0,-0.0009
2630.0,-0.0009
2629.0,-0.0008
2628.0,-0.0008
2627.0,-0.0008
2626.0,-0.0007
2625.0,-0.0007
2624.0,-0.0008
2623.0,-0.0008
2622.0,-0.0008
2621.0,-0.0007
2620.0,-0.0007
2619.0,-0.0007
2618.0,-0.0007
2617.0,-0.0008
2616.0,-0.0008
2615.0,-0.0008
2614.0,-0.0008
2613.0,-0.0008
2612.0,-0.0007
2611.0,-0.0008
2610.0,-0.0008
2609.0,-0.0008
2608.0,-0.0008
2607.0,-0.0008
2606.0,-0.0008
2605.0,-0.0008
2604.0,-0.0008
2603.0,-0.0008
2602.0,-0.0008
2601.0,-0.0008
2600.0,-0.0008
2599.0,-0.0009
2598.0,-0.0009
2597.0,-0.0009
2596.0,-0.0009
2595.0,-0.0008
2594.0,-0.0008
2593.0,-0.0008
2592.0,-0.0009
2591.0,-0.0009
2590.0,-0.0009
2589.0,-0.0009
2588.0,-0.0009
2587.0,-0.0008
2586.0,-0.0008
2585.0,-0.0008
2584.0,-0.0007
2583.0,-0.0007
2582.0,-0.0007
2581.0,-0.0007
2580.0,-0.0007
2579.0,-0.0008
2578.0,-0.0009
2577.0,-0.001
2576.0,-0.0011
2575.0,-0.001
2574.0,-0.0009
2573.0,-0.0009
2572.0,-0.0008
2571.0,-0.0008
2570.0,-0.0008
2569.0,-0.0008
2568.0,-0.0008
2567.0,-0.0009
2566.0,-0.0009
2565.0,-0.0009
2564.0,-0.0009
2563.0,-0.0009
2562.0,-0.0008
2561.0,-0.0008
2560.0,-0.0008
2559.0,-0.0007
2558.0,-0.0007
2557.0,-0.0007
2556.0,-0.0008
2555.0,-0.0008
2554.0,-0.0009
2553.0,-0.0009
2552.0,-0.0009
2551.0,-0.0009
2550.0,-0.0009
2549.0,-0.0009
2548.0,-0.0009
2547.0,-0.0008
2546.0,-0.0008
2545.0,-0.0008
2544.0,-0.0009
2543.0,-0.0009
2542.0,-0.0009
2541.0,-0.0009
2540.0,-0.0009
2539.0,-0.0009
2538.0,-0.0009
2537.0,-0.0008
2536.0,-0.0008
2535.0,-0.0008
2534.0,-0.0007
2533.0,-0.0007
2532.0,-0.0007
2531.0,-0.0008
2530.0,-0.0008
2529.0,-0.0008
2528.0,-0.0009
2527.0,-0.0009
2526.0,-0.0009
2525.0,-0.0009
2524.0,-0.0009
2523.0,-0.001
2522.0,-0.001
2521.0,-0.001
2520.0,-0.001
2519.0,-0.0009
2518.0,-0.0009
2517.0,-0.0009
2516.0,-0.0009
2515.0,-0.0009
2514.0,-0.0009
2513.0,-0.0009
2512.0,-0.0008
2511.0,-0.0007
2510.0,-0.0007
2509.0,-0.0008
2508.0,-0.0008
2507.0,-0.0009
2506.0,-0.0009
2505.0,-0.0009
2504.0,-0.0008
2503.0,-0.0008
2502.0,-0.0008
2501.0,-0.0008
2500.0,-0.0009
2499.0,-0.0009
2498.0,-0.0009
2497.0,-0.0008
2496.0,-0.0008
2495.0,-0.0007
2494.0,-0.0007
2493.0,-0.0007
2492.0,-0.0007
2491.0,-0.0008
2490.0,-0.0008
2489.0,-0.0008
2488.0,-0.0008
2487.0,-0.0008
2486.0,-0.0008
2485.0,-0.0007
2484.0,-0.0007
2483.0,-0.0007
2482.0,-0.0008
2481.0,-0.0008
2480.0,-0.0008
2479.0,-0.0008
2478.0,-0.0009
2477.0,-0.0008
2476.0,-0.0008
2475.0,-0.0008
2474.0,-0.0007
2473.0,-0.0007
2472.0,-0.0007
2471.0,-0.0007
2470.0,-0.0007
2469.0,-0.0008
2468.0,-0.0008
2467.0,-0.0008
2466.0,-0.0008
2465.0,-0.0008
2464.0,-0.0008
2463.0,-0.0009
2462.0,-0.0009
2461.0,-0.0009
2460.0,-0.0008
2459.0,-0.0008
2458.0,-0.0008
2457.0,-0.0008
2456.0,-0.0009
2455.0,-0.0009
2454.0,-0.0009
2453.0,-0.0009
2452.0,-0.0009
2451.0,-0.0009
2450.0,-0.0009
2449.0,-0.0009
2448.0,-0.0009
2447.0,-0.0009
2446.0,-0.0009
2445.0,-0.0009
2444.0,-0.0009
2443.0,-0.0009
2442.0,-0.0009
2441.0,-0.0009
2440.0,-0.0009
2439.0,-0.0009
2438.0,-0.0009
2437.0,-0.0009
2436.0,-0.0008
2435.0,-0.0008
2434.0,-0.0008
2433.0,-0.0009
2432.0,-0.0009
2431.0,-0.0009
2430.0,-0.0008
2429.0,-0.0008
2428.0,-0.0008
2427.0,-0.0008
2426.0,-0.0008
2425.0,-0.0008
2424.0,-0.0008
2423.0,-0.0008
2422.0,-0.0008
2421.0,-0.0008
2420.0,-0.0009
2419.0,-0.0009
2418.0,-0.0009
2417.0,-0.0009
2416.0,-0.0008
2415.0,-0.0007
2414.0,-0.0007
2413.0,-0.0008
2412.0,-0.0008
2411.0,-0.0008
2410.0,-0.0008
2409.0,-0.0007
2408.0,-0.0007
2407.0,-0.0007
2406.0,-0.0008
2405.0,-0.0008
2404.0,-0.0008
2403.0,-0.0008
2402.0,-0.0008
2401.0,-0.0008
2400.0,-0.0008
2399.0,-0.0008
2398.0,-0.0008
2397.0,-0.0008
2396.0,-0.0008
2395.0,-0.0008
2394.0,-0.0008
2393.0,-0.0008
2392.0,-0.0008
2391.0,-0.0007
2390.0,-0.0007
2389.0,-0.0006
2388.0,-0.0005
2387.0,-0.0005
2386.0,-0.0003
2385.0,-0.0001
2384.0,0.0002
2383.0,0.0004
2382.0,0.0006
2381.0,0.0008
2380.0,0.001
2379.0,0.0012
2378.0,0.0013
2377.0,0.0016
2376.0,0.0019
2375.0,0.0021
2374.0,0.0022
2373.0,0.0023
2372.0,0.0026
2371.0,0.0031
2370.0,0.0034
2369.0,0.0032
2368.0,0.0022
2367.0,0.0009
2366.0,0.0001
2365.0,0.0003
2364.0,0.0013
2363.0,0.0021
2362.0,0.0016
2361.0,0.0
2360.0,-0.0016
2359.0,-0.0021
2358.0,-0.0016
2357.0,-0.0003
2356.0,0.0011
2355.0,0.0018
2354.0,0.0018
2353.0,0.0012
2352.0,0.0009
2351.0,0.0009
2350.0,0.0012
2349.0,0.0016
2348.0,0.0022
2347.0,0.0029
2346.0,0.0038
2345.0,0.0046
2344.0,0.0049
2343.0,0.0048
2342.0,0.0044
2341.0,0.0039
2340.0,0.0032
2339.0,0.0025
2338.0,0.0019
2337.0,0.0018
2336.0,0.0021
2335.0,0.0027
2334.0,0.003
2333.0,0.0028
2332.0,0.0025
2331.0,0.0024
2330.0,0.0023
2329.0,0.0021
2328.0,0.002
2327.0,0.002
2326.0,0.002
2325.0,0.0022
2324.0,0.0023
2323.0,0.0023
2322.0,0.0022
2321.0,0.002
2320.0,0.0018
2319.0,0.0016
2318.0,0.0014
2317.0,0.0013
2316.0,0.0012
2315.0,0.0012
2314.0,0.0013
2313.0,0.0014
2312.0,0.0014
2311.0,0.0014
2310.0,0.0014
2309.0,0.0013
2308.0,0.0012
2307.0,0.0011
2306.0,0.001
2305.0,0.0009
2304.0,0.0008
2303.0,0.0009
2302.0,0.0009
2301.0,0.0009
2300.0,0.0008
2299.0,0.0007
2298.0,0.0007
2297.0,0.0007
2296.0,0.0007
2295.0,0.0007
2294.0,0.0006
2293.0,0.0004
2292.0,0.0002
2291.0,0.0
2290.0,-0.0001
2289.0,-0.0001
2288.0,-0.0002
2287.0,-0.0003
2286.0,-0.0004
2285.0,-0.0004
2284.0,-0.0004
2283.0,-0.0004
2282.0,-0.0004
2281.0,-0.0004
2280.0,-0.0003
2279.0,-0.0003
2278.0,-0.0003
2277.0,-0.0003
2276.0,-0.0003
2275.0,-0.0003
2274.0,-0.0003
2273.0,-0.0003
2272.0,-0.0003
2271.0,-0.0004
2270.0,-0.0004
2269.0,-0.0003
2268.0,-0.0003
2267.0,-0.0004
2266.0,-0.0004
2265.0,-0.0004
2264.0,-0.0004
2263.0,-0.0004
2262.0,-0.0004
2261.0,-0.0004
2260.0,-0.0005
2259.0,-0.0005
2258.0,-0.0005
2257.0,-0.0005
2256.0,-0.0005
2255.0,-0.0005
2254.0,-0.0006
2253.0,-0.0006
2252.0,-0.0006
2251.0,-0.0006
2250.0,-0.0006
2249.0,-0.0005
2248.0,-0.0005
2247.0,-0.0005
2246.0,-0.0005
2245.0,-0.0005
2244.0,-0.0006
2243.0,-0.0006
2242.0,-0.0007
2241.0,-0.0007
2240.0,-0.0007
2239.0,-0.0007
2238.0,-0.0006
2237.0,-0.0006
2236.0,-0.0006
2235.0,-0.0006
2234.0,-0.0006
2233.0,-0.0007
2232.0,-0.0007
2231.0,-0.0007
2230.0,-0.0006
2229.0,-0.0006
2228.0,-0.0006
2227.0,-0.0006
2226.0,-0.0006
2225.0,-0.0007
2224.0,-0.0007
2223.0,-0.0007
2222.0,-0.0007
2221.0,-0.0008
2220.0,-0.0008
2219.0,-0.0008
2218.0,-0.0008
2217.0,-0.0007
2216.0,-0.0007
2215.0,-0.0007
2214.0,-0.0007
2213.0,-0.0007
2212.0,-0.0007
2211.0,-0.0007
2210.0,-0.0006
2209.0,-0.0006
2208.0,-0.0007
2207.0,-0.0007
2206.0,-0.0007
2205.0,-0.0007
2204.0,-0.0008
2203.0,-0.0008
2202.0,-0.0008
2201.0,-0.0007
2200.0,-0.0007
2199.0,-0.0007
2198.0,-0.0006
2197.0,-0.0006
2196.0,-0.0006
2195.0,-0.0006
2194.0,-0.0006
2193.0,-0.0006
2192.0,-0.0006
2191.0,-0.0006
2190.0,-0.0006
2189.0,-0.0006
2188.0,-0.0006
2187.0,-0.0006
2186.0,-0.0007
2185.0,-0.0007
2184.0,-0.0007
2183.0,-0.0007
2182.0,-0.0007
2181.0,-0.0006
2180.0,-0.0006
2179.0,-0.0006
2178.0,-0.0006
2177.0,-0.0007
2176.0,-0.0007
2175.0,-0.0007
2174.0,-0.0006
2173.0,-0.0006
2172.0,-0.0006
2171.0,-0.0006
2170.0,-0.0006
2169.0,-0.0006
2168.0,-0.0006
2167.0,-0.0006
2166.0,-0.0006
2165.0,-0.0005
2164.0,-0.0005
2163.0,-0.0005
2162.0,-0.0005
2161.0,-0.0005
2160.0,-0.0005
2159.0,-0.0005
2158.0,-0.0006
2157.0,-0.0006
2156.0,-0.0006
2155.0,-0.0006
2154.0,-0.0006
2153.0,-0.0006
2152.0,-0.0006
2151.0,-0.0006
2150.0,-0.0006
2149.0,-0.0006
2148.0,-0.0005
2147.0,-0.0005
2146.0,-0.0005
2145.0,-0.0006
2144.0,-0.0006
2143.0,-0.0006
2142.0,-0.0006
2141.0,-0.0006
2140.0,-0.0005
2139.0,-0.0005
2138.0,-0.0005
2137.0,-0.0005
2136.0,-0.0005
2135.0,-0.0005
2134.0,-0.0005
2133.0,-0.0005
2132.0,-0.0006
2131.0,-0.0005
2130.0,-0.0005
2129.0,-0.0005
2128.0,-0.0005
2127.0,-0.0005
2126.0,-0.0006
2125.0,-0.0006
2124.0,-0.0006
2123.0,-0.0006
2122.0,-0.0006
2121.0,-0.0006
2120.0,-0.0006
2119.0,-0.0006
2118.0,-0.0006
2117.0,-0.0006
2116.0,-0.0006
2115.0,-0.0006
2114.0,-0.0006
2113.0,-0.0006
2112.0,-0.0006
2111.0,-0.0006
2110.0,-0.0006
2109.0,-0.0006
2108.0,-0.0006
2107.0,-0.0006
2106.0,-0.0006
2105.0,-0.0006
2104.0,-0.0006
2103.0,-0.0005
2102.0,-0.0005
2101.0,-0.0005
2100.0,-0.0005
2099.0,-0.0005
2098.0,-0.0005
2097.0,-0.0006
2096.0,-0.0006
2095.0,-0.0006
2094.0,-0.0006
2093.0,-0.0006
2092.0,-0.0005
2091.0,-0.0005
2090.0,-0.0005
2089.0,-0.0005
2088.0,-0.0005
2087.0,-0.0005
2086.0,-0.0005
2085.0,-0.0006
2084.0,-0.0006
2083.0,-0.0006
2082.0,-0.0006
2081.0,-0.0006
2080.0,-0.0005
2079.0,-0.0005
2078.0,-0.0005
2077.0,-0.0004
2076.0,-0.0004
2075.0,-0.0004
2074.0,-0.0004
2073.0,-0.0004
2072.0,-0.0004
2071.0,-0.0005
2070.0,-0.0005
2069.0,-0.0006
2068.0,-0.0006
2067.0,-0.0006
2066.0,-0.0006
2065.0,-0.0005
2064.0,-0.0005
2063.0,-0.0005
2062.0,-0.0005
2061.0,-0.0005
2060.0,-0.0005
2059.0,-0.0004
2058.0,-0.0004
2057.0,-0.0004
2056.0,-0.0005
2055.0,-0.0005
2054.0,-0.0006
2053.0,-0.0005
2052.0,-0.0005
2051.0,-0.0004
2050.0,-0.0004
2049.0,-0.0004
2048.0,-0.0004
2047.0,-0.0004
2046.0,-0.0004
2045.0,-0.0003
2044.0,-0.0003
2043.0,-0.0003
2042.0,-0.0003
2041.0,-0.0004
2040.0,-0.0004
2039.0,-0.0004
2038.0,-0.0004
2037.0,-0.0003
2036.0,-0.0003
2035.0,-0.0003
2034.0,-0.0003
2033.0,-0.0003
2032.0,-0.0003
2031.0,-0.0003
2030.0,-0.0004
2029.0,-0.0004
2028.0,-0.0005
2027.0,-0.0005
2026.0,-0.0004
2025.0,-0.0004
2024.0,-0.0004
2023.0,-0.0004
2022.0,-0.0004
2021.0,-0.0004
2020.0,-0.0003
2019.0,-0.0003
2018.0,-0.0003
2017.0,-0.0003
2016.0,-0.0003
2015.0,-0.0003
2014.0,-0.0003
2013.0,-0.0003
2012.0,-0.0004
2011.0,-0.0004
2010.0,-0.0004
2009.0,-0.0004
2008.0,-0.0004
2007.0,-0.0004
2006.0,-0.0004
2005.0,-0.0004
2004.0,-0.0004
2003.0,-0.0004
2002.0,-0.0004
2001.0,-0.0004
2000.0,-0.0004
1999.0,-0.0003
1998.0,-0.0004
1997.0,-0.0004
1996.0,-0.0004
1995.0,-0.0004
1994.0,-0.0004
1993.0,-0.0003
1992.0,-0.0003
1991.0,-0.0003
1990.0,-0.0004
1989.0,-0.0004
1988.0,-0.0004
1987.0,-0.0004
1986.0,-0.0004
1985.0,-0.0004
1984.0,-0.0004
1983.0,-0.0004
1982.0,-0.0004
1981.0,-0.0004
1980.0,-0.0004
1979.0,-0.0003
1978.0,-0.0003
1977.0,-0.0003
1976.0,-0.0002
1975.0,-0.0002
1974.0,-0.0002
1973.0,-0.0003
1972.0,-0.0003
1971.0,-0.0003
1970.0,-0.0003
1969.0,-0.0003
1968.0,-0.0003
1967.0,-0.0003
1966.0,-0.0003
1965.0,-0.0003
1964.0,-0.0003
1963.0,-0.0003
1962.0,-0.0003
1961.0,-0.0003
1960.0,-0.0003
1959.0,-0.0002
1958.0,-0.0002
1957.0,-0.0002
1956.0,-0.0002
1955.0,-0.0002
1954.0,-0.0002
1953.0,-0.0002
1952.0,-0.0002
1951.0,-0.0002
1950.0,-0.0002
1949.0,-0.0002
1948.0,-0.0002
1947.0,-0.0002
1946.0,-0.0002
1945.0,-0.0001
1944.0,-0.0001
1943.0,-0.0001
1942.0,-0.0001
1941.0,-0.0002
1940.0,-0.0002
1939.0,-0.0002
1938.0,-0.0003
1937.0,-0.0003
1936.0,-0.0002
1935.0,-0.0002
1934.0,-0.0001
1933.0,-0.0001
1932.0,-0.0001
1931.0,-0.0001
1930.0,-0.0001
1929.0,-0.0001
1928.0,-0.0002
1927.0,-0.0002
1926.0,-0.0002
1925.0,-0.0002
1924.0,-0.0002
1923.0,-0.0002
1922.0,-0.0001
1921.0,-0.0001
1920.0,-0.0001
1919.0,-0.0001
1918.0,-0.0001
1917.0,-0.0001
1916.0,-0.0001
1915.0,-0.0001
1914.0,-0.0001
1913.0,-0.0
1912.0,-0.0001
1911.0,-0.0001
1910.0,-0.0001
1909.0,-0.0001
1908.0,-0.0001
1907.0,-0.0001
1906.0,-0.0001
1905.0,-0.0
1904.0,-0.0
1903.0,-0.0
1902.0,-0.0
1901.0,-0.0001
1900.0,-0.0
1899.0,-0.0
1898.0,-0.0
1897.0,-0.0
1896.0,-0.0
1895.0,-0.0
1894.0,-0.0
1893.0,-0.0001
1892.0,-0.0001
1891.0,-0.0002
1890.0,-0.0001
1889.0,-0.0001
1888.0,-0.0001
1887.0,-0.0001
1886.0,-0.0
1885.0,-0.0
1884.0,0.0
1883.0,0.0
1882.0,0.0
1881.0,-0.0
1880.0,0.0
1879.0,0.0
1878.0,0.0
1877.0,0.0
1876.0,0.0
1875.0,0.0
1874.0,0.0
1873.0,-0.0
1872.0,-0.0
1871.0,-0.0001
1870.0,-0.0001
1869.0,-0.0001
1868.0,-0.0001
1867.0,-0.0001
1866.0,-0.0001
1865.0,-0.0
1864.0,0.0
1863.0,0.0001
1862.0,0.0001
1861.0,0.0
1860.0,0.0
1859.0,-0.0
1858.0,-0.0
1857.0,0.0
1856.0,0.0
1855.0,0.0001
1854.0,0.0
1853.0,0.0
1852.0,0.0
1851.0,0.0
1850.0,0.0
1849.0,0.0
1848.0,0.0
1847.0,-0.0
1846.0,0.0
1845.0,0.0001
1844.0,0.0001
1843.0,0.0001
1842.0,0.0001
1841.0,0.0001
1840.0,0.0001
1839.0,0.0001
1838.0,0.0001
1837.0,0.0001
1836.0,0.0001
1835.0,0.0002
1834.0,0.0002
1833.0,0.0001
1832.0,0.0001
1831.0,0.0001
1830.0,0.0001
1829.0,0.0001
1828.0,0.0001
1827.0,0.0002
1826.0,0.0002
1825.0,0.0002
1824.0,0.0002
1823.0,0.0002
1822.0,0.0002
1821.0,0.0003
1820.0,0.0002
1819.0,0.0002
1818.0,0.0002
1817.0,0.0001
1816.0,0.0001
1815.0,0.0001
1814.0,0.0002
1813.0,0.0002
1812.0,0.0002
1811.0,0.0002
1810.0,0.0002
1809.0,0.0002
1808.0,0.0003
1807.0,0.0003
1806.0,0.0002
1805.0,0.0002
1804.0,0.0003
1803.0,0.0003
1802.0,0.0003
1801.0,0.0003
1800.0,0.0003
1799.0,0.0003
1798.0,0.0003
1797.0,0.0003
1796.0,0.0003
1795.0,0.0003
1794.0,0.0003
1793.0,0.0003
1792.0,0.0004
1791.0,0.0004
1790.0,0.0003
1789.0,0.0003
1788.0,0.0002
1787.0,0.0002
1786.0,0.0002
1785.0,0.0003
1784.0,0.0003
1783.0,0.0003
1782.0,0.0003
1781.0,0.0003
1780.0,0.0003
1779.0,0.0003
1778.0,0.0003
1777.0,0.0004
1776.0,0.0004
1775.0,0.0004
1774.0,0.0003
1773.0,0.0003
1772.0,0.0003
1771.0,0.0003
1770.0,0.0003
1769.0,0.0004
1768.0,0.0004
1767.0,0.0003
1766.0,0.0003
1765.0,0.0003
1764.0,0.0003
1763.0,0.0003
1762.0,0.0003
1761.0,0.0003
1760.0,0.0003
1759.0,0.0004
1758.0,0.0004
1757.0,0.0004
1756.0,0.0004
1755.0,0.0004
1754.0,0.0004
1753.0,0.0004
1752.0,0.0005
1751.0,0.0005
1750.0,0.0006
1749.0,0.0006
1748.0,0.0006
1747.0,0.0006
1746.0,0.0006
1745.0,0.0005
1744.0,0.0005
1743.0,0.0005
1742.0,0.0006
1741.0,0.0006
1740.0,0.0007
1739.0,0.0007
1738.0,0.0006
1737.0,0.0006
1736.0,0.0006
1735.0,0.0006
1734.0,0.0005
1733.0,0.0005
1732.0,0.0005
1731.0,0.0005
1730.0,0.0005
1729.0,0.0005
1728.0,0.0005
1727.0,0.0006
1726.0,0.0006
1725.0,0.0006
1724.0,0.0006
1723.0,0.0006
1722.0,0.0006
1721.0,0.0006
1720.0,0.0007
1719.0,0.0007
1718.0,0.0007
1717.0,0.0007
1716.0,0.0007
1715.0,0.0007
1714.0,0.0007
1713.0,0.0007
1712.0,0.0007
1711.0,0.0006
1710.0,0.0007
1709.0,0.0007
1708.0,0.0007
1707.0,0.0007
1706.0,0.0007
1705.0,0.0007
1704.0,0.0008
1703.0,0.0009
1702.0,0.0009
1701.0,0.0009
1700.0,0.0008
1699.0,0.0008
1698.0,0.0008
1697.0,0.0008
1696.0,0.0008
1695.0,0.0009
1694.0,0.0009
1693.0,0.001
1692.0,0.001
1691.0,0.001
1690.0,0.0009
1689.0,0.0009
1688.0,0.0009
1687.0,0.0009
1686.0,0.0009
1685.0,0.001
1684.0,0.001
1683.0,0.001
1682.0,0.001
1681.0,0.001
1680.0,0.001
1679.0,0.001
1678.0,0.001
1677.0,0.001
1676.0,0.0011
1675.0,0.0011
1674.0,0.0011
1673.0,0.001
1672.0,0.0009
1671.0,0.0009
1670.0,0.0009
1669.0,0.001
1668.0,0.001
1667.0,0.001
1666.0,0.0011
1665.0,0.0011
1664.0,0.001
1663.0,0.001
1662.0,0.001
1661.0,0.001
1660.0,0.001
1659.0,0.0011
1658.0,0.0011
1657.0,0.0011
1656.0,0.0011
1655.0,0.001
1654.0,0.001
1653.0,0.001
1652.0,0.001
1651.0,0.0011
1650.0,0.0012
1649.0,0.0012
1648.0,0.0012
1647.0,0.0012
1646.0,0.0012
1645.0,0.0012
1644.0,0.0013
1643.0,0.0013
1642.0,0.0013
1641.0,0.0013
1640.0,0.0012
1639.0,0.0012
1638.0,0.0011
1637.0,0.0012
1636.0,0.0013
1635.0,0.0013
1634.0,0.0013
1633.0,0.0013
1632.0,0.0013
1631.0,0.0013
1630.0,0.0013
1629.0,0.0013
1628.0,0.0012
1627.0,0.0012
1626.0,0.0011
1625.0,0.0011
1624.0,0.0011
1623.0,0.0012
1622.0,0.0012
1621.0,0.0012
1620.0,0.0012
1619.0,0.0012
1618.0,0.0013
1617.0,0.0013
1616.0,0.0013
1615.0,0.0013
1614.0,0.0013
1613.0,0.0013
1612.0,0.0013
1611.0,0.0013
1610.0,0.0013
1609.0,0.0013
1608.0,0.0013
1607.0,0.0013
1606.0,0.0013
1605.0,0.0013
1604.0,0.0014
1603.0,0.0014
1602.0,0.0013
1601.0,0.0013
1600.0,0.0013
1599.0,0.0013
1598.0,0.0013
1597.0,0.0013
1596.0,0.0013
1595.0,0.0013
1594.0,0.0013
1593.0,0.0013
1592.0,0.0014
1591.0,0.0014
1590.0,0.0015
1589.0,0.0015
1588.0,0.0014
1587.0,0.0013
1586.0,0.0013
1585.0,0.0013
1584.0,0.0013
1583.0,0.0013
1582.0,0.0013
1581.0,0.0014
1580.0,0.0014
1579.0,0.0015
1578.0,0.0015
1577.0,0.0016
1576.0,0.0016
1575.0,0.0015
1574.0,0.0015
1573.0,0.0015
1572.0,0.0015
1571.0,0.0016
1570.0,0.0017
1569.0,0.0017
1568.0,0.0016
1567.0,0.0016
1566.0,0.0015
1565.0,0.0015
1564.0,0.0014
1563.0,0.0014
1562.0,0.0014
1561.0,0.0014
1560.0,0.0015
1559.0,0.0015
1558.0,0.0014
1557.0,0.0014
1556.0,0.0014
1555.0,0.0014
1554.0,0.0014
1553.0,0.0015
1552.0,0.0015
1551.0,0.0015
1550.0,0.0015
1549.0,0.0015
1548.0,0.0014
1547.0,0.0014
1546.0,0.0014
1545.0,0.0014
1544.0,0.0014
1543.0,0.0014
1542.0,0.0014
1541.0,0.0014
1540.0,0.0015
1539.0,0.0016
1538.0,0.0016
1537.0,0.0016
1536.0,0.0016
1535.0,0.0015
1534.0,0.0015
1533.0,0.0015
1532.0,0.0015
1531.0,0.0016
1530.0,0.0016
1529.0,0.0016
1528.0,0.0016
1527.0,0.0016
1526.0,0.0016
1525.0,0.0017
1524.0,0.0017
1523.0,0.0017
1522.0,0.0017
1521.0,0.0016
1520.0,0.0015
1519.0,0.0015
1518.0,0.0016
1517.0,0.0016
1516.0,0.0016
1515.0,0.0016
1514.0,0.0017
1513.0,0.0016
1512.0,0.0016
1511.0,0.0016
1510.0,0.0015
1509.0,0.0014
1508.0,0.0014
1507.0,0.0015
1506.0,0.0015
1505.0,0.0016
1504.0,0.0016
1503.0,0.0017
1502.0,0.0017
1501.0,0.0017
1500.0,0.0017
1499.0,0.0017
1498.0,0.0017
1497.0,0.0017
1496.0,0.0017
1495.0,0.0016
1494.0,0.0016
1493.0,0.0016
1492.0,0.0016
1491.0,0.0017
1490.0,0.0017
1489.0,0.0017
1488.0,0.0016
1487.0,0.0016
1486.0,0.0016
1485.0,0.0016
1484.0,0.0016
1483.0,0.0016
1482.0,0.0016
1481.0,0.0016
1480.0,0.0016
1479.0,0.0016
1478.0,0.0017
1477.0,0.0021
1476.0,0.0027
1475.0,0.0036
1474.0,0.0046
1473.0,0.0054
1472.0,0.0055
1471.0,0.0051
1470.0,0.0048
1469.0,0.0047
1468.0,0.0046
1467.0,0.0047
1466.0,0.0051
1465.0,0.0059
1464.0,0.0068
1463.0,0.0073
1462.0,0.0072
1461.0,0.0068
1460.0,0.0061
1459.0,0.0053
1458.0,0.0045
1457.0,0.0039
1456.0,0.0036
1455.0,0.0036
1454.0,0.0035
1453.0,0.0034
1452.0,0.0033
1451.0,0.0032
1450.0,0.0032
1449.0,0.0032
1448.0,0.0031
1447.0,0.003
1446.0,0.0029
1445.0,0.0028
1444.0,0.0028
1443.0,0.0028
1442.0,0.0028
1441.0,0.0028
1440.0,0.0028
1439.0,0.0028
1438.0,0.0028
1437.0,0.0028
1436.0,0.0027
1435.0,0.0027
1434.0,0.0027
1433.0,0.0027
1432.0,0.0027
1431.0,0.0027
1430.0,0.0026
1429.0,0.0025
1428.0,0.0025
1427.0,0.0025
1426.0,0.0025
1425.0,0.0025
1424.0,0.0026
1423.0,0.0026
1422.0,0.0026
1421.0,0.0026
1420.0,0.0026
1419.0,0.0025
1418.0,0.0025
1417.0,0.0025
1416.0,0.0025
1415.0,0.0025
1414.0,0.0025
1413.0,0.0025
1412.0,0.0025
1411.0,0.0025
1410.0,0.0024
1409.0,0.0025
1408.0,0.0025
1407.0,0.0025
1406.0,0.0024
1405.0,0.0024
1404.0,0.0024
1403.0,0.0024
1402.0,0.0024
1401.0,0.0024
1400.0,0.0025
1399.0,0.0025
1398.0,0.0025
1397.0,0.0025
1396.0,0.0025
1395.0,0.0025
1394.0,0.0025
1393.0,0.0025
1392.0,0.0025
1391.0,0.0025
1390.0,0.0025
1389.0,0.0025
1388.0,0.0026
1387.0,0.0026
1386.0,0.0026
1385.0,0.0026
1384.0,0.0026
1383.0,0.0026
1382.0,0.0026
1381.0,0.0026
1380.0,0.0026
1379.0,0.0026
1378.0,0.0026
1377.0,0.0026
1376.0,0.0026
1375.0,0.0026
1374.0,0.0027
1373.0,0.0027
1372.0,0.0027
1371.0,0.0027
1370.0,0.0028
1369.0,0.0028
1368.0,0.0028
1367.0,0.0028
1366.0,0.0027
1365.0,0.0027
1364.0,0.0027
1363.0,0.0027
1362.0,0.0027
1361.0,0.0028
1360.0,0.0028
1359.0,0.0028
1358.0,0.0028
1357.0,0.0028
1356.0,0.0028
1355.0,0.0028
1354.0,0.0028
1353.0,0.0028
1352.0,0.0027
1351.0,0.0028
1350.0,0.0028
1349.0,0.0028
1348.0,0.0028
1347.0,0.0028
1346.0,0.0028
1345.0,0.0028
1344.0,0.0028
1343.0,0.0028
1342.0,0.0028
1341.0,0.0028
1340.0,0.0028
1339.0,0.0028
1338.0,0.0028
1337.0,0.0028
1336.0,0.0028
1335.0,0.0028
1334.0,0.0028
1333.0,0.0028
1332.0,0.0028
1331.0,0.0028
1330.0,0.0027
1329.0,0.0027
1328.0,0.0027
1327.0,0.0027
1326.0,0.0027
1325.0,0.0028
1324.0,0.0028
1323.0,0.0028
1322.0,0.0028
1321.0,0.0028
1320.0,0.0029
1319.0,0.0029
1318.0,0.0029
1317.0,0.0029
1316.0,0.0029
1315.0,0.0029
1314.0,0.0029
1313.0,0.0029
1312.0,0.0029
1311.0,0.003
1310.0,0.003
1309.0,0.003
1308.0,0.003
1307.0,0.003
1306.0,0.003
1305.0,0.003
1304.0,0.003
1303.0,0.003
1302.0,0.003
1301.0,0.003
1300.0,0.003
1299.0,0.003
1298.0,0.003
1297.0,0.003
1296.0,0.003
1295.0,0.003
1294.0,0.003
1293.0,0.003
1292.0,0.003
1291.0,0.003
1290.0,0.003
1289.0,0.003
1288.0,0.003
1287.0,0.003
1286.0,0.003
1285.0,0.003
1284.0,0.003
1283.0,0.003
1282.0,0.003
1281.0,0.0031
1280.0,0.0031
1279.0,0.0032
1278.0,0.0032
1277.0,0.0032
1276.0,0.0032
1275.0,0.0032
1274.0,0.0032
1273.0,0.0032
1272.0,0.0032
1271.0,0.0031
1270.0,0.0031
1269.0,0.003
1268.0,0.003
1267.0,0.003
1266.0,0.0031
1265.0,0.0031
1264.0,0.0032
1263.0,0.0032
1262.0,0.0032
1261.0,0.0032
1260.0,0.0032
1259.0,0.0032
1258.0,0.0032
1257.0,0.0032
1256.0,0.0032
1255.0,0.0032
1254.0,0.0032
1253.0,0.0033
1252.0,0.0033
1251.0,0.0033
1250.0,0.0033
1249.0,0.0033
1248.0,0.0033
1247.0,0.0033
1246.0,0.0033
1245.0,0.0033
1244.0,0.0033
1243.0,0.0033
1242.0,0.0033
1241.0,0.0033
1240.0,0.0033
1239.0,0.0033
1238.0,0.0033
1237.0,0.0033
1236.0,0.0033
1235.0,0.0033
1234.0,0.0034
1233.0,0.0034
1232.0,0.0034
1231.0,0.0034
1230.0,0.0034
1229.0,0.0034
1228.0,0.0035
1227.0,0.0035
1226.0,0.0035
1225.0,0.0035
1224.0,0.0035
1223.0,0.0035
1222.0,0.0035
1221.0,0.0035
1220.0,0.0035
1219.0,0.0035
1218.0,0.0035
1217.0,0.0034
1216.0,0.0034
1215.0,0.0034
1214.0,0.0035
1213.0,0.0036
1212.0,0.0037
1211.0,0.0037
1210.0,0.0037
1209.0,0.0037
1208.0,0.0036
1207.0,0.0036
1206.0,0.0036
1205.0,0.0036
1204.0,0.0036
1203.0,0.0037
1202.0,0.0037
1201.0,0.0038
1200.0,0.0038
1199.0,0.0038
1198.0,0.0038
1197.0,0.0038
1196.0,0.0038
1195.0,0.0038
1194.0,0.0038
1193.0,0.0037
1192.0,0.0037
1191.0,0.0038
1190.0,0.0038
1189.0,0.0038
1188.0,0.0038
1187.0,0.0038
1186.0,0.0038
1185.0,0.0038
1184.0,0.0039
1183.0,0.0039
1182.0,0.0039
1181.0,0.0039
1180.0,0.004
1179.0,0.004
1178.0,0.004
1177.0,0.004
1176.0,0.004
1175.0,0.004
1174.0,0.004
1173.0,0.004
1172.0,0.004
1171.0,0.004
1170.0,0.004
1169.0,0.004
1168.0,0.004
1167.0,0.004
1166.0,0.0041
1165.0,0.0041
1164.0,0.0041
1163.0,0.004
1162.0,0.004
1161.0,0.0041
1160.0,0.0041
1159.0,0.0041
1158.0,0.0042
1157.0,0.0042
1156.0,0.0042
1155.0,0.0043
1154.0,0.0043
1153.0,0.0043
1152.0,0.0042
1151.0,0.0042
1150.0,0.0042
1149.0,0.0042
1148.0,0.0042
1147.0,0.0043
1146.0,0.0043
1145.0,0.0043
1144.0,0.0043
1143.0,0.0043
1142.0,0.0043
1141.0,0.0043
1140.0,0.0042
1139.0,0.0042
1138.0,0.0042
1137.0,0.0043
1136.0,0.0043
1135.0,0.0043
1134.0,0.0043
1133.0,0.0043
1132.0,0.0043
1131.0,0.0043
1130.0,0.0043
1129.0,0.0043
1128.0,0.0043
1127.0,0.0043
1126.0,0.0043
1125.0,0.0043
1124.0,0.0043
1123.0,0.0043
1122.0,0.0044
1121.0,0.0044
1120.0,0.0044
1119.0,0.0044
1118.0,0.0044
1117.0,0.0044
1116.0,0.0044
1115.0,0.0044
1114.0,0.0045
1113.0,0.0045
1112.0,0.0045
1111.0,0.0045
1110.0,0.0045
1109.0,0.0045
1108.0,0.0046
1107.0,0.0046
1106.0,0.0047
1105.0,0.0047
1104.0,0.0047
1103.0,0.0047
1102.0,0.0047
1101.0,0.0047
1100.0,0.0047
1099.0,0.0048
1098.0,0.0048
1097.0,0.0048
1096.0,0.0047
1095.0,0.0047
1094.0,0.0048
1093.0,0.0048
1092.0,0.0048
1091.0,0.0048
1090.0,0.0048
1089.0,0.0048
1088.0,0.0048
1087.0,0.0048
1086.0,0.0048
1085.0,0.0048
1084.0,0.0048
1083.0,0.0049
1082.0,0.0049
1081.0,0.0049
1080.0,0.0048
1079.0,0.0048
1078.0,0.0048
1077.0,0.0049
1076.0,0.0049
1075.0,0.0049
1074.0,0.0049
1073.0,0.0049
1072.0,0.0048
1071.0,0.0048
1070.0,0.0048
1069.0,0.0048
1068.0,0.0048
1067.0,0.0048
1066.0,0.0048
1065.0,0.0048
1064.0,0.0049
1063.0,0.0049
1062.0,0.0049
1061.0,0.005
1060.0,0.0051
1059.0,0.0052
1058.0,0.0052
1057.0,0.0052
1056.0,0.0051
1055.0,0.0051
1054.0,0.0051
1053.0,0.0051
1052.0,0.0051
1051.0,0.0051
1050.0,0.0052
1049.0,0.0052
1048.0,0.0052
1047.0,0.0052
1046.0,0.0051
1045.0,0.0051
1044.0,0.0051
1043.0,0.0051
1042.0,0.0051
1041.0,0.0051
1040.0,0.0051
1039.0,0.0051
1038.0,0.0051
1037.0,0.0052
1036.0,0.0052
1035.0,0.0052
1034.0,0.0052
1033.0,0.0052
1032.0,0.0053
1031.0,0.0053
1030.0,0.0053
1029.0,0.0054
1028.0,0.0054
1027.0,0.0054
1026.0,0.0054
1025.0,0.0054
1024.0,0.0053
1023.0,0.0053
1022.0,0.0053
1021.0,0.0053
1020.0,0.0054
1019.0,0.0054
1018.0,0.0054
1017.0,0.0054
1016.0,0.0054
1015.0,0.0054
1014.0,0.0055
1013.0,0.0055
1012.0,0.0055
1011.0,0.0055
1010.0,0.0055
1009.0,0.0055
1008.0,0.0054
1007.0,0.0054
1006.0,0.0054
1005.0,0.0054
1004.0,0.0054
1003.0,0.0055
1002.0,0.0055
1001.0,0.0055
1000.0,0.0054
999.0,0.0054
998.0,0.0054
997.0,0.0054
996.0,0.0055
995.0,0.0056
994.0,0.0056
993.0,0.0055
992.0,0.0055
991.0,0.0055
990.0,0.0055
989.0,0.0055
988.0,0.0055
987.0,0.0056
986.0,0.0056
985.0,0.0056
984.0,0.0056
983.0,0.0056
982.0,0.0056
981.0,0.0056
980.0,0.0056
979.0,0.0056
978.0,0.0056
977.0,0.0056
976.0,0.0056
975.0,0.0057
974.0,0.0057
973.0,0.0057
972.0,0.0058
971.0,0.0058
970.0,0.0058
969.0,0.0058
968.0,0.0058
967.0,0.0057
966.0,0.0058
965.0,0.0058
964.0,0.0058
963.0,0.0059
962.0,0.0059
961.0,0.0059
960.0,0.0059
959.0,0.0059
958.0,0.0059
957.0,0.0059
956.0,0.0059
955.0,0.0059
954.0,0.0059
953.0,0.0059
952.0,0.0059
951.0,0.0059
950.0,0.0059
949.0,0.0059
948.0,0.0059
947.0,0.006
946.0,0.006
945.0,0.006
944.0,0.006
943.0,0.006
942.0,0.0061
941.0,0.0062
940.0,0.0062
939.0,0.0062
938.0,0.0063
937.0,0.0063
936.0,0.0062
935.0,0.0062
934.0,0.0062
933.0,0.0062
932.0,0.0063
931.0,0.0063
930.0,0.0062
929.0,0.0062
928.0,0.0061
927.0,0.0062
926.0,0.0062
925.0,0.0063
924.0,0.0063
923.0,0.0064
922.0,0.0064
921.0,0.0064
920.0,0.0063
919.0,0.0062
918.0,0.0062
917.0,0.0062
916.0,0.0063
915.0,0.0063
914.0,0.0064
913.0,0.0066
912.0,0.0066
911.0,0.0066
910.0,0.0066
909.0,0.0066
908.0,0.0065
907.0,0.0065
906.0,0.0066
905.0,0.0066
904.0,0.0066
903.0,0.0065
902.0,0.0065
901.0,0.0064
900.0,0.0064
899.0,0.0065
898.0,0.0066
897.0,0.0068
896.0,0.0068
895.0,0.0068
894.0,0.0067
893.0,0.0066
892.0,0.0066
891.0,0.0065
890.0,0.0065
889.0,0.0065
888.0,0.0065
887.0,0.0066
886.0,0.0066
885.0,0.0067
884.0,0.0068
883.0,0.0068
882.0,0.0068
881.0,0.0068
880.0,0.0068
879.0,0.0068
878.0,0.0069
877.0,0.007
876.0,0.0071
875.0,0.0072
874.0,0.0073
873.0,0.0072
872.0,0.0071
871.0,0.0071
870.0,0.0071
869.0,0.0071
868.0,0.007
867.0,0.007
866.0,0.0069
865.0,0.0069
864.0,0.0069
863.0,0.0068
862.0,0.0068
861.0,0.0068
860.0,0.0069
859.0,0.007
858.0,0.007
857.0,0.0069
856.0,0.0068
855.0,0.0069
854.0,0.0069
853.0,0.0071
852.0,0.0072
851.0,0.0072
850.0,0.0072
849.0,0.0072
848.0,0.0071
847.0,0.0071
846.0,0.007
845.0,0.007
844.0,0.007
843.0,0.007
842.0,0.0069
841.0,0.0069
840.0,0.0069
839.0,0.0071
838.0,0.0072
837.0,0.0072
836.0,0.0072
835.0,0.0072
834.0,0.0072
833.0,0.0072
832.0,0.0071
831.0,0.0071
830.0,0.0071
829.0,0.0072
828.0,0.0073
827.0,0.0072
826.0,0.0071
825.0,0.007
824.0,0.007
823.0,0.007
822.0,0.0071
821.0,0.0072
820.0,0.0073
819.0,0.0073
818.0,0.0072
817.0,0.0072
816.0,0.0073
815.0,0.0074
814.0,0.0075
813.0,0.0075
812.0,0.0075
811.0,0.0075
810.0,0.0075
809.0,0.0076
808.0,0.0075
807.0,0.0073
806.0,0.0071
805.0,0.007
804.0,0.0071
803.0,0.0072
802.0,0.0074
801.0,0.0074
800.0,0.0074
799.0,0.0073
798.0,0.0073
797.0,0.0073
796.0,0.0073
795.0,0.0073
794.0,0.0073
793.0,0.0074
792.0,0.0075
791.0,0.0075
790.0,0.0075
789.0,0.0074
788.0,0.0074
787.0,0.0074
786.0,0.0073
785.0,0.0073
784.0,0.0074
783.0,0.0076
782.0,0.0076
781.0,0.0076
780.0,0.0077
779.0,0.0077
778.0,0.0078
777.0,0.0078
776.0,0.0078
775.0,0.0078
774.0,0.0077
773.0,0.0077
772.0,0.0077
771.0,0.0078
770.0,0.0078
769.0,0.0077
768.0,0.0077
767.0,0.0076
766.0,0.0077
765.0,0.0079
764.0,0.008
763.0,0.008
762.0,0.0079
761.0,0.0078
760.0,0.0078
759.0,0.0079
758.0,0.0078
757.0,0.0077
756.0,0.0076
755.0,0.0076
754.0,0.0077
753.0,0.0078
752.0,0.0078
751.0,0.0077
750.0,0.0077
749.0,0.0076
748.0,0.0077
747.0,0.0077
746.0,0.0076
745.0,0.0075
744.0,0.0074
743.0,0.0073
742.0,0.0072
741.0,0.0071
740.0,0.007
739.0,0.007
738.0,0.007
737.0,0.0071
736.0,0.0074
735.0,0.0081
734.0,0.0096
733.0,0.0121
732.0,0.0153
731.0,0.0181
730.0,0.0195
729.0,0.0192
728.0,0.0179
727.0,0.0163
726.0,0.0152
725.0,0.0146
724.0,0.0149
723.0,0.0162
722.0,0.0191
721.0,0.0234
720.0,0.0277
719.0,0.03
718.0,0.0296
717.0,0.0274
716.0,0.0246
715.0,0.0221
714.0,0.0201
713.0,0.0187
712.0,0.0177
711.0,0.0169
710.0,0.0162
709.0,0.0156
708.0,0.015
707.0,0.0145
706.0,0.0142
705.0,0.014
704.0,0.0137
703.0,0.0135
702.0,0.0135
701.0,0.0136
700.0,0.0138
699.0,0.014
698.0,0.0141
697.0,0.0139
696.0,0.0138
695.0,0.0137
694.0,0.0138
693.0,0.0138
692.0,0.0135
691.0,0.0131
690.0,0.0127
689.0,0.0127
688.0,0.013
687.0,0.0133
686.0,0.0134
685.0,0.0134
684.0,0.0132
683.0,0.0131
682.0,0.013
681.0,0.0128
680.0,0.0128
679.0,0.013
678.0,0.0132
677.0,0.0133
676.0,0.0131
675.0,0.0128
674.0,0.0126
673.0,0.0125
672.0,0.0125
671.0,0.0126
670.0,0.0126
669.0,0.0123
668.0,0.011
667.0,0.0101
666.0,0.0103
665.0,0.0108
664.0,0.0113
663.0,0.0118
662.0,0.0123
661.0,0.0129
660.0,0.0134
659.0,0.0137
658.0,0.0136
657.0,0.013
656.0,0.0121
655.0,0.0113
654.0,0.0108
653.0,0.0106
652.0,0.0108
651.0,0.0111
650.0,0.0117
649.0,0.0122
648.0,0.0124
647.0,0.0121
646.0,0.0115
645.0,0.0112
644.0,0.0112
643.0,0.0115
642.0,0.0118
641.0,0.012
640.0,0.0122
639.0,0.0122
638.0,0.0121
637.0,0.012
636.0,0.012
635.0,0.0121
634.0,0.0122
633.0,0.0124
632.0,0.0127
631.0,0.0128
630.0,0.0126
629.0,0.0123
628.0,0.0123
627.0,0.0128
626.0,0.0134
625.0,0.0135
624.0,0.0128
623.0,0.0117
622.0,0.0106
621.0,0.0102
620.0,0.0105
619.0,0.0112
618.0,0.0116
617.0,0.0115
616.0,0.0112
615.0,0.0111
614.0,0.0114
613.0,0.0123
612.0,0.0133
611.0,0.0139
610.0,0.0138
609.0,0.0131
608.0,0.0122
607.0,0.0118
606.0,0.0119
605.0,0.0124
604.0,0.0125
603.0,0.0121
602.0,0.0112
601.0,0.0102
600.0,0.0098
