nm,Intensity
791.588,4833.4
791.862,4804.3
792.136,4775.0
792.411,4731.7
792.685,4704.0
792.959,4677.5
793.233,4665.8
793.507,4640.9
793.781,4652.3
794.056,4639.8
794.33,4631.9
794.604,4628.0
794.878,4640.8
795.152,4635.4
795.426,4646.8
795.701,4674.4
795.975,4662.1
796.249,4662.2
796.523,4644.0
796.797,4631.0
797.071,4638.8
797.345,4632.8
797.619,4613.4
797.894,4603.8
798.168,4590.3
798.442,4615.1
798.716,4600.0
798.99,4602.8
799.264,4610.1
799.538,4590.0
799.812,4607.8
800.086,4602.9
800.36,4599.8
800.634,4599.1
800.908,4597.5
801.182,4583.1
801.456,4592.0
801.73,4575.1
802.004,4583.1
802.278,4572.8
802.552,4560.1
802.826,4556.5
803.1,4538.0
803.374,4524.3
803.648,4538.5
803.922,4547.7
804.196,4528.7
804.47,4532.9
804.744,4527.0
805.018,4558.1
805.292,4548.2
805.566,4532.7
805.84,4514.7
806.114,4526.8
806.388,4521.2
806.662,4503.3
806.936,4501.2
807.209,4498.7
807.483,4483.1
807.757,4486.3
808.031,4477.0
808.305,4485.0
808.579,4477.7
808.853,4465.2
809.127,4479.4
809.4,4489.4
809.674,4504.4
809.948,4534.0
810.222,4570.9
810.496,4579.0
810.77,4578.0
811.043,4533.7
811.317,4480.9
811.591,4474.3
811.865,4477.0
812.139,4467.5
812.412,4459.9
812.686,4470.8
812.96,4481.9
813.234,4469.2
813.507,4477.9
813.781,4493.5
814.055,4497.3
814.329,4492.7
814.602,4462.9
814.876,4433.3
815.15,4427.0
815.424,4403.1
815.697,4424.2
815.971,4401.0
816.245,4414.0
816.518,4407.5
816.792,4394.0
817.066,4376.6
817.34,4377.3
817.613,4398.9
817.887,4388.3
818.161,4401.2
818.434,4391.1
818.708,4403.6
818.981,4383.6
819.255,4402.6
819.529,4398.2
819.802,4385.4
820.076,4392.5
820.35,4374.0
820.623,4354.6
820.897,4355.2
821.17,4364.2
821.444,4373.6
821.718,4348.8
821.991,4350.1
822.265,4341.6
822.538,4330.2
822.812,4333.5
823.085,4354.1
823.359,4349.9
823.632,4358.6
823.906,4352.2
824.18,4353.8
824.453,4350.8
824.727,4364.6
825.0,4348.6
825.274,4349.0
825.547,4330.5
825.821,4324.5
826.094,4319.6
826.367,4333.1
826.641,4331.4
826.914,4315.8
827.188,4295.2
827.461,4305.9
827.735,4311.1
828.008,4300.0
828.282,4303.5
828.555,4309.0
828.828,4310.4
829.102,4323.6
829.375,4310.2
829.649,4305.2
829.922,4295.1
830.195,4297.0
830.469,4287.4
830.742,4281.7
831.016,4283.7
831.289,4297.0
831.562,4283.6
831.836,4270.2
832.109,4284.8
832.382,4287.0
832.656,4274.9
832.929,4269.4
833.202,4281.7
833.476,4303.2
833.749,4306.9
834.022,4278.1
834.295,4283.7
834.569,4270.8
834.842,4275.7
835.115,4276.6
835.388,4259.9
835.662,4263.5
835.935,4258.8
836.208,4269.9
836.481,4275.5
836.755,4255.6
837.028,4273.1
837.301,4311.7
837.574,4360.3
837.848,4406.9
838.121,4449.4
838.394,4421.3
838.667,4364.5
838.94,4319.2
839.213,4301.7
839.487,4307.0
839.76,4332.1
840.033,4357.8
840.306,4371.6
840.579,4362.6
840.852,4313.2
841.125,4285.6
841.399,4271.0
841.672,4244.3
841.945,4252.3
842.218,4250.9
842.491,4238.2
842.764,4239.3
843.037,4243.0
843.31,4232.8
843.583,4235.3
843.856,4230.5
844.129,4222.7
844.402,4226.8
844.675,4227.8
844.948,4229.6
845.221,4232.4
845.495,4222.7
845.768,4209.8
846.041,4215.7
846.314,4209.7
846.586,4208.1
846.859,4222.5
847.132,4240.5
847.405,4236.9
847.678,4231.8
847.951,4238.1
848.224,4219.4
848.497,4230.4
848.77,4222.7
849.043,4235.6
849.316,4250.4
849.589,4266.1
849.862,4263.9
850.135,4261.4
850.408,4245.8
850.681,4231.3
850.953,4225.0
851.226,4243.9
851.499,4232.1
851.772,4237.0
852.045,4223.9
852.318,4240.1
852.591,4225.5
852.863,4208.9
853.136,4210.4
853.409,4215.8
853.682,4216.1
853.955,4227.1
854.227,4224.2
854.5,4216.1
854.773,4218.8
855.046,4202.3
855.318,4212.5
855.591,4213.7
855.864,4198.3
856.137,4199.1
856.409,4203.9
856.682,4183.1
856.955,4185.2
857.228,4186.2
857.5,4185.9
857.773,4193.2
858.046,4196.7
858.318,4194.4
858.591,4184.5
858.864,4187.1
859.137,4179.8
859.409,4188.9
859.682,4199.7
859.954,4191.0
860.227,4192.7
860.5,4167.8
860.772,4195.8
861.045,4202.8
861.318,4193.1
861.59,4185.9
861.863,4209.4
862.135,4231.5
862.408,4254.0
862.681,4251.1
862.953,4263.6
863.226,4275.0
863.498,4261.5
863.771,4258.1
864.043,4250.6
864.316,4228.6
864.588,4205.0
864.861,4208.1
865.133,4198.8
865.406,4186.9
865.678,4177.1
865.951,4179.6
866.223,4180.2
866.496,4181.7
866.768,4191.6
867.041,4185.5
867.313,4197.7
867.586,4201.7
867.858,4202.4
868.131,4183.7
868.403,4173.7
868.675,4176.1
868.948,4180.6
869.22,4166.5
869.493,4173.0
869.765,4173.3
870.037,4165.4
870.31,4167.9
870.582,4160.0
870.854,4163.7
871.127,4159.0
871.399,4165.3
871.672,4170.9
871.944,4167.0
872.216,4167.7
872.488,4170.6
872.761,4162.3
873.033,4175.8
873.305,4190.3
873.578,4181.0
873.85,4193.2
874.122,4185.5
874.394,4192.3
874.667,4186.0
874.939,4180.1
875.211,4188.6
875.483,4210.2
875.756,4238.4
876.028,4253.2
876.3,4238.7
876.572,4243.4
876.845,4232.9
877.117,4207.4
877.389,4203.4
877.661,4181.4
877.933,4171.0
878.205,4175.6
878.478,4175.0
878.75,4171.3
879.022,4169.5
879.294,4154.6
879.566,4157.0
879.838,4143.8
880.11,4135.4
880.382,4131.8
880.654,4125.2
880.927,4116.0
881.199,4115.6
881.471,4114.0
881.743,4110.4
882.015,4105.1
882.287,4113.2
882.559,4111.9
882.831,4110.4
883.103,4123.8
883.375,4124.0
883.647,4139.6
883.919,4143.6
884.191,4150.1
884.463,4161.5
884.735,4157.8
885.007,4183.5
885.279,4194.8
885.551,4228.9
885.823,4230.2
886.095,4226.6
886.367,4221.8
886.639,4202.7
886.91,4186.6
887.182,4167.9
887.454,4146.9
887.726,4128.7
887.998,4119.6
888.27,4104.2
888.542,4092.0
888.814,4077.0
889.085,4067.3
889.357,4071.6
889.629,4071.5
889.901,4072.1
890.173,4069.2
890.445,4077.3
890.716,4079.4
890.988,4091.0
891.26,4096.3
891.532,4092.3
891.804,4086.6
892.075,4091.9
892.347,4096.4
892.619,4085.3
892.891,4072.3
893.162,4064.4
893.434,4054.4
893.706,4044.9
893.978,4041.0
894.249,4045.7
894.521,4049.4
894.793,4041.6
895.064,4035.2
895.336,4029.9
895.608,4037.8
895.879,4036.0
896.151,4036.8
896.423,4037.4
896.694,4039.7
896.966,4031.3
897.237,4026.9
897.509,4025.6
897.781,4031.0
898.052,4027.4
898.324,4031.1
898.595,4023.1
898.867,4029.2
899.139,4010.7
899.41,4009.9
899.682,4007.5
899.953,4013.4
900.225,4009.9
900.496,4012.4
900.768,4012.9
901.039,4012.2
901.311,4007.3
901.582,4005.0
901.854,3997.0
902.125,3999.0
902.397,3997.1
902.668,3994.4
902.94,3992.2
903.211,3994.8
903.482,3994.5
903.754,3993.9
904.025,3987.3
904.297,3991.9
904.568,3985.3
904.839,3992.8
905.111,3990.5
905.382,3982.4
905.654,3983.6
905.925,3978.4
906.196,3969.4
906.468,3975.0
906.739,3970.1
907.01,3972.2
907.282,3972.2
907.553,3970.3
907.824,3972.8
908.096,3960.7
908.367,3964.1
908.638,3962.7
908.909,3957.6
909.181,3960.7
909.452,3962.4
909.723,3958.7
909.994,3960.6
910.266,3964.2
910.537,3954.1
910.808,3955.5
911.079,3949.7
911.35,3958.8
911.622,3945.0
911.893,3942.5
912.164,3947.8
912.435,3937.8
912.706,3946.4
912.977,3950.1
913.249,3948.1
913.52,3944.2
913.791,3943.7
914.062,3944.5
914.333,3938.8
914.604,3939.6
914.875,3933.7
915.146,3937.3
915.417,3934.3
915.688,3933.5
915.959,3924.0
916.231,3926.5
916.502,3923.7
916.773,3926.7
917.044,3929.1
917.315,3932.2
917.586,3928.1
917.857,3925.4
918.128,3923.2
918.399,3923.8
918.67,3927.0
918.941,3929.9
919.211,3918.3
919.482,3917.5
919.753,3911.9
920.024,3909.3
920.295,3913.6
920.566,3913.3
920.837,3914.2
921.108,3913.6
921.379,3908.4
921.65,3910.1
921.921,3903.2
922.191,3907.5
922.462,3908.3
922.733,3907.7
923.004,3904.2
923.275,3903.8
923.546,3903.5
923.816,3902.4
924.087,3904.8
924.358,3893.2
924.629,3896.5
924.9,3894.0
925.17,3897.8
925.441,3894.1
925.712,3896.5
925.983,3892.2
926.253,3891.0
926.524,3891.2
926.795,3887.8
927.065,3887.8
927.336,3883.1
927.607,3885.2
927.877,3889.2
928.148,3884.3
928.419,3887.5
928.689,3883.6
928.96,3883.7
929.231,3882.7
929.501,3880.5
929.772,3875.3
930.043,3877.8
930.313,3869.0
930.584,3871.7
930.854,3871.8
931.125,3876.9
931.396,3877.9
931.666,3873.4
931.937,3874.7
932.207,3871.5
932.478,3871.3
932.748,3869.0
933.019,3867.3
933.289,3867.9
933.56,3864.4
933.83,3868.2
934.101,3863.0
934.371,3868.4
934.642,3861.5
934.912,3861.1
935.183,3868.4
935.453,3862.2
935.723,3857.8
935.994,3864.8
936.264,3857.2
936.535,3857.3
936.805,3855.6
937.075,3859.1
937.346,3853.7
937.616,3853.5
937.886,3853.7
938.157,3852.5
938.427,3852.5
938.697,3853.1
938.968,3853.1
939.238,3854.9
939.508,3854.4
939.779,3849.2
940.049,3852.8
940.319,3849.4
940.59,3848.5
940.86,3851.9
941.13,3845.3
941.4,3848.2
941.671,3844.8
941.941,3849.2
942.211,3842.6
942.481,3848.8
942.751,3842.5
943.022,3840.9
943.292,3839.2
943.562,3840.8
943.832,3844.4
944.102,3837.9
944.372,3840.2
944.642,3839.2
944.913,3838.4
945.183,3837.5
945.453,3842.8
945.723,3840.8
945.993,3835.7
946.263,3837.3
946.533,3835.8
946.803,3834.8
947.073,3833.2
947.343,3831.8
947.613,3831.0
947.883,3829.1
948.153,3829.7
948.423,3831.5
948.693,3832.7
948.963,3834.7
949.233,3829.7
949.503,3824.0
949.773,3826.9
950.043,3824.9
950.313,3823.1
950.583,3829.0
950.853,3827.1
951.123,3828.7
951.393,3827.4
951.663,3825.0
951.933,3827.8
952.202,3825.8
952.472,3822.6
952.742,3827.0
953.012,3825.4
953.282,3821.7
953.552,3824.5
953.822,3818.7
954.091,3823.6
954.361,3819.1
954.631,3824.0
954.901,3822.9
955.17,3824.8
955.44,3819.2
955.71,3822.9
955.98,3816.5
956.25,3822.8
956.519,3821.0
956.789,3817.5
957.059,3814.2
957.328,3816.4
957.598,3816.8
957.868,3817.0
958.137,3817.2
958.407,3817.6
958.677,3810.3
958.946,3814.2
959.216,3813.5
959.486,3812.6
959.755,3813.5
960.025,3811.9
960.294,3813.9
960.564,3813.4
960.834,3814.0
961.103,3811.2
961.373,3810.3
961.642,3809.4
961.912,3809.5
962.181,3812.5
962.451,3810.3
962.72,3808.8
962.99,3812.7
963.259,3809.6
963.529,3806.4
963.798,3809.7
964.068,3808.0
964.337,3807.5
964.607,3802.0
964.876,3805.6
965.146,3807.7
965.415,3806.3
965.684,3803.7
965.954,3803.8
966.223,3803.1
966.493,3804.5
966.762,3806.1
967.031,3805.9
967.301,3805.1
967.57,3805.2
967.839,3806.0
968.109,3802.0
968.378,3806.1
968.647,3804.9
968.917,3802.2
969.186,3801.8
969.455,3801.6
969.724,3801.1
969.994,3800.3
970.263,3800.9
970.532,3800.2
970.801,3801.9
971.071,3796.9
971.34,3800.4
971.609,3796.1
971.878,3798.8
972.147,3795.5
972.417,3794.6
972.686,3800.2
972.955,3797.3
973.224,3798.7
973.493,3798.0
973.762,3795.1
974.031,3797.8
974.3,3796.3
974.57,3799.0
974.839,3796.6
975.108,3795.3
975.377,3794.2
975.646,3798.9
975.915,3792.4
976.184,3793.8
976.453,3792.5
976.722,3790.5
976.991,3793.1
977.26,3794.4
977.529,3793.3
977.798,3793.7
978.067,3793.9
978.336,3793.8
978.605,3792.1
978.874,3793.6
979.143,3793.8
979.412,3790.8
979.68,3790.4
979.949,3790.9
980.218,3793.9
980.487,3789.9
980.756,3791.2
981.025,3790.2
981.294,3790.5
981.563,3788.2
981.831,3789.4
982.1,3789.9
982.369,3788.4
982.638,3786.5
982.907,3787.0
983.175,3789.4
983.444,3788.3
983.713,3788.9
983.982,3789.0
984.25,3789.6
984.519,3789.4
984.788,3786.7
985.057,3786.4
985.325,3787.1
985.594,3790.0
985.863,3785.9
986.131,3787.7
986.4,3788.9
986.669,3785.2
986.937,3785.7
987.206,3784.6
987.475,3787.2
987.743,3787.4
988.012,3786.5
988.28,3785.8
988.549,3786.5
988.817,3786.0
989.086,3785.7
989.355,3782.9
989.623,3786.4
989.892,3785.8
990.16,3785.6
990.429,3784.3
990.697,3785.7
990.966,3786.7
991.234,3784.8
991.503,3784.8
991.771,3785.3
992.04,3783.3
992.308,3784.8
992.576,3784.5
992.845,3783.4
993.113,3783.2
993.382,3781.8
993.65,3783.6
993.918,3782.3
994.187,3782.7
994.455,3782.7
994.723,3780.6
994.992,3784.3
995.26,3782.9
995.528,3781.2
995.797,3781.1
996.065,3781.3
996.333,3779.8
996.602,3785.2
996.87,3784.4
997.138,3784.4
997.406,3783.2
997.675,3783.1
997.943,3785.7
998.211,3784.3
998.479,3783.2
998.747,3783.8
999.016,3784.6
999.284,3780.2
999.552,3782.5
999.82,3783.2
1000.09,3781.9
1000.36,3781.1
1000.62,3779.4
1000.89,3780.2
1001.16,3778.0
1001.43,3780.2
1001.7,3778.5
1001.97,3776.9
1002.23,3777.5
1002.5,3779.3
1002.77,3775.0
1003.04,3774.4
1003.31,3775.7
1003.57,3774.4
1003.84,3777.0
1004.11,3776.7
1004.38,3772.3
1004.65,3774.5
1004.91,3776.6
1005.18,3776.2
1005.45,3774.0
1005.72,3777.0
1005.98,3775.5
1006.25,3775.6
1006.52,3775.4
1006.79,3774.1
1007.06,3776.3
1007.32,3773.8
1007.59,3777.3
1007.86,3774.4
1008.13,3777.9
1008.4,3781.9
1008.66,3782.9
1008.93,3785.4
1009.2,3787.9
1009.47,3789.6
1009.73,3789.5
1010.0,3792.0
1010.27,3792.5
1010.54,3791.8
1010.81,3793.4
1011.07,3797.2
1011.34,3799.6
1011.61,3803.6
1011.88,3805.8
1012.14,3806.4
1012.41,3807.5
1012.68,3809.4
1012.95,3806.7
1013.21,3811.0
1013.48,3812.6
1013.75,3816.4
1014.02,3821.1
1014.29,3819.3
1014.55,3817.4
1014.82,3816.8
1015.09,3817.1
1015.36,3818.8
1015.62,3822.5
1015.89,3819.5
1016.16,3813.5
1016.43,3812.0
1016.69,3808.1
1016.96,3808.6
1017.23,3806.3
1017.5,3805.8
1017.76,3805.2
1018.03,3802.1
1018.3,3801.2
1018.57,3799.7
1018.83,3796.7
1019.1,3794.3
1019.37,3791.0
1019.63,3792.3
1019.9,3789.1
1020.17,3788.0
1020.44,3786.8
1020.7,3786.3
1020.97,3785.4
1021.24,3785.5
1021.51,3787.6
1021.77,3787.8
1022.04,3787.5
1022.31,3787.0
1022.58,3786.0
1022.84,3784.7
1023.11,3782.7
1023.38,3780.2
1023.64,3781.5
1023.91,3780.2
1024.18,3778.8
1024.45,3775.8
1024.71,3772.7
1024.98,3771.8
1025.25,3771.0
1025.51,3768.6
1025.78,3766.6
1026.05,3766.6
1026.32,3767.3
1026.58,3768.6
1026.85,3765.9
1027.12,3766.5
1027.38,3766.3
1027.65,3765.7
1027.92,3767.0
1028.19,3766.9
1028.45,3766.0
1028.72,3765.1
1028.99,3765.4
1029.25,3765.6
1029.52,3766.1
1029.79,3766.1
1030.05,3765.2
1030.32,3764.0
1030.59,3764.3
1030.85,3764.6
1031.12,3765.2
1031.39,3764.5
1031.66,3765.7
1031.92,3765.4
1032.19,3765.0
1032.46,3765.2
1032.72,3764.4
1032.99,3765.8
1033.26,3765.6
1033.52,3766.4
1033.79,3764.8
1034.06,3765.8
1034.32,3762.3
1034.59,3765.2
1034.86,3763.7
1035.12,3763.1
1035.39,3762.1
1035.66,3762.0
1035.92,3764.2
1036.19,3763.7
1036.46,3763.4
1036.72,3764.9
1036.99,3763.3
1037.26,3764.2
1037.52,3764.8
1037.79,3764.8
1038.06,3763.2
1038.32,3761.9
1038.59,3762.7
1038.86,3764.6
1039.12,3760.7
1039.39,3762.3
1039.66,3763.0
1039.92,3761.3
1040.19,3764.7
1040.46,3762.5
1040.72,3762.6
1040.99,3763.1
1041.26,3761.5
1041.52,3762.6
1041.79,3763.1
1042.06,3762.4
1042.32,3761.7
1042.59,3762.5
1042.86,3761.1
1043.12,3759.8
1043.39,3762.6
1043.65,3763.9
1043.92,3761.6
1044.19,3762.9
1044.45,3760.8
1044.72,3763.4
1044.99,3762.5
1045.25,3763.9
1045.52,3762.2
1045.79,3762.6
1046.05,3761.7
1046.32,3760.8
1046.58,3761.0
1046.85,3760.6
1047.12,3762.2
1047.38,3762.6
1047.65,3762.4
1047.92,3762.1
1048.18,3762.1
1048.45,3762.3
1048.71,3761.0
1048.98,3762.5
1049.25,3761.8
1049.51,3762.1
1049.78,3760.3
1050.04,3760.9
1050.31,3761.2
1050.58,3762.0
1050.84,3761.6
1051.11,3762.1
1051.37,3761.2
1051.64,3761.4
1051.91,3761.6
1052.17,3764.3
1052.44,3760.9
1052.7,3761.8
1052.97,3761.2
1053.24,3760.9
1053.5,3761.4
1053.77,3761.3
1054.03,3760.7
1054.3,3759.4
1054.57,3760.1
1054.83,3762.4
1055.1,3760.8
1055.36,3762.6
1055.63,3761.0
1055.9,3761.5
1056.16,3760.1
1056.43,3760.6
1056.69,3760.3
1056.96,3762.6
1057.23,3759.9
1057.49,3759.5
1057.76,3762.4
1058.02,3762.2
1058.29,3761.4
1058.55,3759.1
1058.82,3760.2
1059.09,3761.2
1059.35,3762.8
1059.62,3761.7
1059.88,3759.3
1060.15,3761.7
1060.41,3763.6
1060.68,3762.1
1060.95,3761.0
1061.21,3763.1
1061.48,3761.2
1061.74,3761.2
1062.01,3761.0
1062.27,3760.6
1062.54,3760.1
1062.8,3761.2
1063.07,3760.1
1063.34,3760.0
1063.6,3758.5
1063.87,3760.4
1064.13,3762.0
1064.4,3760.4
1064.66,3762.4
1064.93,3762.5
1065.19,3759.5
1065.46,3760.6
1065.73,3760.2
1065.99,3761.6
1066.26,3760.1
1066.52,3760.3
1066.79,3761.1
1067.05,3759.0
1067.32,3762.0
1067.58,3761.6
1067.85,3761.3
1068.11,3760.7
