cm-1,A
4000.0,-0.0003
3999.0,-0.0003
3998.0,-0.0004
3997.0,-0.0003
3996.0,-0.0003
3995.0,-0.0003
3994.0,-0.0003
3993.0,-0.0003
3992.0,-0.0003
3991.0,-0.0002
3990.0,-0.0002
3989.0,-0.0001
3988.0,0.0
3987.0,0.0001
3986.0,0.0001
3985.0,0.0001
3984.0,0.0001
3983.0,0.0001
3982.0,0.0
3981.0,-0.0
3980.0,-0.0
3979.0,0.0
3978.0,0.0001
3977.0,0.0001
3976.0,0.0001
3975.0,0.0
3974.0,0.0
3973.0,0.0
3972.0,-0.0
3971.0,-0.0001
3970.0,-0.0002
3969.0,-0.0002
3968.0,-0.0002
3967.0,-0.0002
3966.0,-0.0001
3965.0,-0.0
3964.0,-0.0
3963.0,-0.0001
3962.0,-0.0001
3961.0,-0.0002
3960.0,-0.0002
3959.0,-0.0002
3958.0,-0.0001
3957.0,-0.0001
3956.0,0.0
3955.0,0.0001
3954.0,0.0001
3953.0,0.0001
3952.0,0.0001
3951.0,0.0001
3950.0,0.0001
3949.0,0.0002
3948.0,0.0002
3947.0,0.0002
3946.0,0.0002
3945.0,0.0002
3944.0,0.0002
3943.0,0.0002
3942.0,0.0001
3941.0,0.0002
3940.0,0.0002
3939.0,0.0002
3938.0,0.0001
3937.0,0.0
3936.0,-0.0
3935.0,-0.0001
3934.0,-0.0001
3933.0,-0.0001
3932.0,0.0
3931.0,0.0001
3930.0,0.0003
3929.0,0.0004
3928.0,0.0004
3927.0,0.0004
3926.0,0.0004
3925.0,0.0004
3924.0,0.0003
3923.0,0.0003
3922.0,0.0003
3921.0,0.0003
3920.0,0.0002
3919.0,0.0001
3918.0,0.0001
3917.0,0.0001
3916.0,0.0001
3915.0,0.0001
3914.0,0.0002
3913.0,0.0002
3912.0,0.0002
3911.0,0.0002
3910.0,0.0001
3909.0,0.0001
3908.0,0.0001
3907.0,0.0001
3906.0,0.0001
3905.0,0.0
3904.0,-0.0
3903.0,-0.0001
3902.0,-0.0001
3901.0,-0.0
3900.0,0.0001
3899.0,0.0002
3898.0,0.0003
3897.0,0.0003
3896.0,0.0003
3895.0,0.0003
3894.0,0.0002
3893.0,0.0001
3892.0,0.0001
3891.0,0.0001
3890.0,0.0001
3889.0,0.0
3888.0,0.0
3887.0,0.0
3886.0,-0.0
3885.0,-0.0001
3884.0,-0.0
3883.0,0.0001
3882.0,0.0003
3881.0,0.0004
3880.0,0.0004
3879.0,0.0003
3878.0,0.0003
3877.0,0.0003
3876.0,0.0003
3875.0,0.0003
3874.0,0.0002
3873.0,0.0002
3872.0,0.0003
3871.0,0.0003
3870.0,0.0003
3869.0,0.0002
3868.0,0.0001
3867.0,0.0001
3866.0,0.0001
3865.0,0.0001
3864.0,0.0002
3863.0,0.0002
3862.0,0.0003
3861.0,0.0003
3860.0,0.0003
3859.0,0.0003
3858.0,0.0002
3857.0,0.0001
3856.0,-0.0001
3855.0,-0.0003
3854.0,-0.0004
3853.0,-0.0002
3852.0,0.0
3851.0,0.0002
3850.0,0.0003
3849.0,0.0003
3848.0,0.0004
3847.0,0.0004
3846.0,0.0005
3845.0,0.0005
3844.0,0.0005
3843.0,0.0005
3842.0,0.0005
3841.0,0.0005
3840.0,0.0005
3839.0,0.0006
3838.0,0.0006
3837.0,0.0005
3836.0,0.0003
3835.0,0.0001
3834.0,0.0
3833.0,0.0
3832.0,0.0001
3831.0,0.0003
3830.0,0.0004
3829.0,0.0005
3828.0,0.0005
3827.0,0.0005
3826.0,0.0004
3825.0,0.0003
3824.0,0.0004
3823.0,0.0005
3822.0,0.0005
3821.0,0.0005
3820.0,0.0004
3819.0,0.0004
3818.0,0.0005
3817.0,0.0005
3816.0,0.0005
3815.0,0.0004
3814.0,0.0004
3813.0,0.0004
3812.0,0.0004
3811.0,0.0004
3810.0,0.0003
3809.0,0.0003
3808.0,0.0004
3807.0,0.0004
3806.0,0.0004
3805.0,0.0004
3804.0,0.0005
3803.0,0.0006
3802.0,0.0006
3801.0,0.0006
3800.0,0.0005
3799.0,0.0005
3798.0,0.0005
3797.0,0.0005
3796.0,0.0006
3795.0,0.0007
3794.0,0.0008
3793.0,0.0008
3792.0,0.0008
3791.0,0.0008
3790.0,0.0007
3789.0,0.0007
3788.0,0.0008
3787.0,0.0007
3786.0,0.0007
3785.0,0.0006
3784.0,0.0005
3783.0,0.0005
3782.0,0.0005
3781.0,0.0006
3780.0,0.0006
3779.0,0.0006
3778.0,0.0006
3777.0,0.0005
3776.0,0.0005
3775.0,0.0005
3774.0,0.0005
3773.0,0.0006
3772.0,0.0006
3771.0,0.0006
3770.0,0.0005
3769.0,0.0005
3768.0,0.0005
3767.0,0.0006
3766.0,0.0007
3765.0,0.0007
3764.0,0.0007
3763.0,0.0006
3762.0,0.0006
3761.0,0.0006
3760.0,0.0005
3759.0,0.0005
3758.0,0.0004
3757.0,0.0004
3756.0,0.0005
3755.0,0.0006
3754.0,0.0007
3753.0,0.0008
3752.0,0.0008
3751.0,0.0007
3750.0,0.0006
3749.0,0.0004
3748.0,0.0003
3747.0,0.0003
3746.0,0.0003
3745.0,0.0004
3744.0,0.0005
3743.0,0.0006
3742.0,0.0006
3741.0,0.0006
3740.0,0.0006
3739.0,0.0006
3738.0,0.0007
3737.0,0.0007
3736.0,0.0007
3735.0,0.0007
3734.0,0.0007
3733.0,0.0007
3732.0,0.0006
3731.0,0.0005
3730.0,0.0004
3729.0,0.0003
3728.0,0.0003
3727.0,0.0003
3726.0,0.0004
3725.0,0.0004
3724.0,0.0005
3723.0,0.0005
3722.0,0.0004
3721.0,0.0004
3720.0,0.0005
3719.0,0.0005
3718.0,0.0005
3717.0,0.0006
3716.0,0.0007
3715.0,0.0008
3714.0,0.0008
3713.0,0.0007
3712.0,0.0006
3711.0,0.0005
3710.0,0.0005
3709.0,0.0005
3708.0,0.0005
3707.0,0.0005
3706.0,0.0005
3705.0,0.0006
3704.0,0.0007
3703.0,0.0007
3702.0,0.0007
3701.0,0.0006
3700.0,0.0005
3699.0,0.0005
3698.0,0.0004
3697.0,0.0004
3696.0,0.0004
3695.0,0.0004
3694.0,0.0004
3693.0,0.0004
3692.0,0.0004
3691.0,0.0003
3690.0,0.0003
3689.0,0.0003
3688.0,0.0003
3687.0,0.0002
3686.0,0.0002
3685.0,0.0001
3684.0,-0.0
3683.0,-0.0001
3682.0,-0.0001
3681.0,-0.0001
3680.0,-0.0001
3679.0,-0.0002
3678.0,-0.0002
3677.0,-0.0002
3676.0,-0.0
3675.0,0.0
3674.0,0.0
3673.0,-0.0
3672.0,-0.0001
3671.0,-0.0002
3670.0,-0.0005
3669.0,-0.0007
3668.0,-0.0007
3667.0,-0.0007
3666.0,-0.0007
3665.0,-0.0007
3664.0,-0.0007
3663.0,-0.0008
3662.0,-0.001
3661.0,-0.0011
3660.0,-0.0012
3659.0,-0.0013
3658.0,-0.0013
3657.0,-0.0014
3656.0,-0.0015
3655.0,-0.0016
3654.0,-0.0016
3653.0,-0.0015
3652.0,-0.0014
3651.0,-0.0016
3650.0,-0.0019
3649.0,-0.0023
3648.0,-0.0025
3647.0,-0.0026
3646.0,-0.0027
3645.0,-0.0027
3644.0,-0.0028
3643.0,-0.003
3642.0,-0.0032
3641.0,-0.0033
3640.0,-0.0035
3639.0,-0.0037
3638.0,-0.0039
3637.0,-0.004
3636.0,-0.0042
3635.0,-0.0043
3634.0,-0.0044
3633.0,-0.0045
3632.0,-0.0045
3631.0,-0.0046
3630.0,-0.0048
3629.0,-0.0051
3628.0,-0.0054
3627.0,-0.0057
3626.0,-0.0059
3625.0,-0.006
3624.0,-0.006
3623.0,-0.006
3622.0,-0.006
3621.0,-0.006
3620.0,-0.0062
3619.0,-0.0065
3618.0,-0.0068
3617.0,-0.0071
3616.0,-0.0073
3615.0,-0.0074
3614.0,-0.0075
3613.0,-0.0077
3612.0,-0.0079
3611.0,-0.008
3610.0,-0.0082
3609.0,-0.0084
3608.0,-0.0087
3607.0,-0.0089
3606.0,-0.0091
3605.0,-0.0093
3604.0,-0.0094
3603.0,-0.0095
3602.0,-0.0095
3601.0,-0.0095
3600.0,-0.0096
3599.0,-0.0098
3598.0,-0.01
3597.0,-0.0103
3596.0,-0.0106
3595.0,-0.0109
3594.0,-0.0112
3593.0,-0.0114
3592.0,-0.0116
3591.0,-0.0118
3590.0,-0.012
3589.0,-0.0121
3588.0,-0.0123
3587.0,-0.0124
3586.0,-0.0125
3585.0,-0.0126
3584.0,-0.0127
3583.0,-0.0129
3582.0,-0.013
3581.0,-0.0131
3580.0,-0.0132
3579.0,-0.0133
3578.0,-0.0134
3577.0,-0.0136
3576.0,-0.0138
3575.0,-0.014
3574.0,-0.0142
3573.0,-0.0144
3572.0,-0.0145
3571.0,-0.0147
3570.0,-0.0149
3569.0,-0.0151
3568.0,-0.0152
3567.0,-0.0153
3566.0,-0.0154
3565.0,-0.0155
3564.0,-0.0157
3563.0,-0.0159
3562.0,-0.0159
3561.0,-0.016
3560.0,-0.0161
3559.0,-0.0164
3558.0,-0.0166
3557.0,-0.0168
3556.0,-0.017
3555.0,-0.0171
3554.0,-0.0171
3553.0,-0.0172
3552.0,-0.0173
3551.0,-0.0176
3550.0,-0.0178
3549.0,-0.0181
3548.0,-0.0183
3547.0,-0.0184
3546.0,-0.0185
3545.0,-0.0186
3544.0,-0.0188
3543.0,-0.0191
3542.0,-0.0193
3541.0,-0.0194
3540.0,-0.0195
3539.0,-0.0196
3538.0,-0.0197
3537.0,-0.0198
3536.0,-0.0199
3535.0,-0.02
3534.0,-0.0202
3533.0,-0.0203
3532.0,-0.0205
3531.0,-0.0208
3530.0,-0.0211
3529.0,-0.0215
3528.0,-0.0217
3527.0,-0.0218
3526.0,-0.0219
3525.0,-0.0219
3524.0,-0.022
3523.0,-0.0222
3522.0,-0.0224
3521.0,-0.0226
3520.0,-0.0228
3519.0,-0.023
3518.0,-0.0233
3517.0,-0.0236
3516.0,-0.0239
3515.0,-0.0241
3514.0,-0.0242
3513.0,-0.0242
3512.0,-0.0243
3511.0,-0.0243
3510.0,-0.0243
3509.0,-0.0244
3508.0,-0.0245
3507.0,-0.0248
3506.0,-0.0251
3505.0,-0.0254
3504.0,-0.0256
3503.0,-0.0258
3502.0,-0.026
3501.0,-0.0262
3500.0,-0.0265
3499.0,-0.0266
3498.0,-0.0268
3497.0,-0.0269
3496.0,-0.0271
3495.0,-0.0274
3494.0,-0.0276
3493.0,-0.0278
3492.0,-0.028
3491.0,-0.0282
3490.0,-0.0284
3489.0,-0.0288
3488.0,-0.0291
3487.0,-0.0294
3486.0,-0.0297
3485.0,-0.03
3484.0,-0.0303
3483.0,-0.0306
3482.0,-0.0309
3481.0,-0.0311
3480.0,-0.0313
3479.0,-0.0315
3478.0,-0.0317
3477.0,-0.0318
3476.0,-0.0321
3475.0,-0.0323
3474.0,-0.0326
3473.0,-0.0329
3472.0,-0.0332
3471.0,-0.0336
3470.0,-0.0341
3469.0,-0.0345
3468.0,-0.0349
3467.0,-0.0353
3466.0,-0.0356
3465.0,-0.0358
3464.0,-0.0361
3463.0,-0.0365
3462.0,-0.0369
3461.0,-0.0371
3460.0,-0.0374
3459.0,-0.0375
3458.0,-0.0376
3457.0,-0.0378
3456.0,-0.0381
3455.0,-0.0385
3454.0,-0.0388
3453.0,-0.0392
3452.0,-0.0396
3451.0,-0.0399
3450.0,-0.0401
3449.0,-0.0402
3448.0,-0.0404
3447.0,-0.0407
3446.0,-0.0411
3445.0,-0.0415
3444.0,-0.0417
3443.0,-0.0419
3442.0,-0.0421
3441.0,-0.0424
3440.0,-0.0428
3439.0,-0.0432
3438.0,-0.0435
3437.0,-0.0436
3436.0,-0.0437
3435.0,-0.0439
3434.0,-0.0441
3433.0,-0.0444
3432.0,-0.0446
3431.0,-0.0449
3430.0,-0.0451
3429.0,-0.0452
3428.0,-0.0455
3427.0,-0.0457
3426.0,-0.046
3425.0,-0.0463
3424.0,-0.0465
3423.0,-0.0467
3422.0,-0.047
3421.0,-0.0473
3420.0,-0.0476
3419.0,-0.0479
3418.0,-0.0482
3417.0,-0.0485
3416.0,-0.0489
3415.0,-0.0493
3414.0,-0.0496
3413.0,-0.0499
3412.0,-0.0503
3411.0,-0.0506
3410.0,-0.0511
3409.0,-0.0514
3408.0,-0.0517
3407.0,-0.052
3406.0,-0.0523
3405.0,-0.0527
3404.0,-0.0532
3403.0,-0.0537
3402.0,-0.0541
3401.0,-0.0545
3400.0,-0.0549
3399.0,-0.0554
3398.0,-0.0559
3397.0,-0.0563
3396.0,-0.0566
3395.0,-0.0568
3394.0,-0.0571
3393.0,-0.0575
3392.0,-0.0579
3391.0,-0.0585
3390.0,-0.059
3389.0,-0.0594
3388.0,-0.0599
3387.0,-0.0603
3386.0,-0.0607
3385.0,-0.0611
3384.0,-0.0616
3383.0,-0.062
3382.0,-0.0624
3381.0,-0.0629
3380.0,-0.0633
3379.0,-0.0637
3378.0,-0.064
3377.0,-0.0643
3376.0,-0.0645
3375.0,-0.0648
3374.0,-0.0652
3373.0,-0.0656
3372.0,-0.0659
3371.0,-0.0662
3370.0,-0.0666
3369.0,-0.067
3368.0,-0.0674
3367.0,-0.0678
3366.0,-0.0682
3365.0,-0.0685
3364.0,-0.0687
3363.0,-0.0687
3362.0,-0.0687
3361.0,-0.0687
3360.0,-0.0688
3359.0,-0.069
3358.0,-0.0693
3357.0,-0.0695
3356.0,-0.0697
3355.0,-0.0699
3354.0,-0.0701
3353.0,-0.0704
3352.0,-0.0706
3351.0,-0.0708
3350.0,-0.0709
3349.0,-0.0709
3348.0,-0.071
3347.0,-0.0711
3346.0,-0.0712
3345.0,-0.0713
3344.0,-0.0713
3343.0,-0.0715
3342.0,-0.0716
3341.0,-0.0717
3340.0,-0.0717
3339.0,-0.0716
3338.0,-0.0714
3337.0,-0.0713
3336.0,-0.0713
3335.0,-0.0714
3334.0,-0.0715
3333.0,-0.0715
3332.0,-0.0715
3331.0,-0.0715
3330.0,-0.0715
3329.0,-0.0715
3328.0,-0.0715
3327.0,-0.0714
3326.0,-0.0713
3325.0,-0.0711
3324.0,-0.071
3323.0,-0.0709
3322.0,-0.0708
3321.0,-0.0708
3320.0,-0.0709
3319.0,-0.0709
3318.0,-0.0709
3317.0,-0.0708
3316.0,-0.0707
3315.0,-0.0704
3314.0,-0.0702
3313.0,-0.07
3312.0,-0.0697
3311.0,-0.0694
3310.0,-0.0692
3309.0,-0.0692
3308.0,-0.0692
3307.0,-0.0692
3306.0,-0.0692
3305.0,-0.069
3304.0,-0.0689
3303.0,-0.0686
3302.0,-0.0685
3301.0,-0.0683
3300.0,-0.0682
3299.0,-0.0682
3298.0,-0.0681
3297.0,-0.0679
3296.0,-0.0677
3295.0,-0.0676
3294.0,-0.0676
3293.0,-0.0675
3292.0,-0.0674
3291.0,-0.0672
3290.0,-0.067
3289.0,-0.0669
3288.0,-0.0668
3287.0,-0.0666
3286.0,-0.0665
3285.0,-0.0662
3284.0,-0.0659
3283.0,-0.0656
3282.0,-0.0655
3281.0,-0.0655
3280.0,-0.0655
3279.0,-0.0656
3278.0,-0.0655
3277.0,-0.0653
3276.0,-0.065
3275.0,-0.0648
3274.0,-0.0646
3273.0,-0.0645
3272.0,-0.0645
3271.0,-0.0645
3270.0,-0.0644
3269.0,-0.0643
3268.0,-0.0641
3267.0,-0.0639
3266.0,-0.0637
3265.0,-0.0636
3264.0,-0.0635
3263.0,-0.0634
3262.0,-0.0632
3261.0,-0.0631
3260.0,-0.0629
3259.0,-0.0627
3258.0,-0.0626
3257.0,-0.0625
3256.0,-0.0625
3255.0,-0.0625
3254.0,-0.0625
3253.0,-0.0623
3252.0,-0.062
3251.0,-0.0618
3250.0,-0.0616
3249.0,-0.0615
3248.0,-0.0614
3247.0,-0.0614
3246.0,-0.0613
3245.0,-0.0612
3244.0,-0.0611
3243.0,-0.061
3242.0,-0.061
3241.0,-0.0609
3240.0,-0.0608
3239.0,-0.0606
3238.0,-0.0605
3237.0,-0.0604
3236.0,-0.0603
3235.0,-0.0601
3234.0,-0.0599
3233.0,-0.0596
3232.0,-0.0593
3231.0,-0.0591
3230.0,-0.0591
3229.0,-0.0591
3228.0,-0.0592
3227.0,-0.0593
3226.0,-0.0592
3225.0,-0.0589
3224.0,-0.0585
3223.0,-0.0582
3222.0,-0.0579
3221.0,-0.0577
3220.0,-0.0576
3219.0,-0.0574
3218.0,-0.0571
3217.0,-0.0568
3216.0,-0.0564
3215.0,-0.056
3214.0,-0.0559
3213.0,-0.0558
3212.0,-0.0556
3211.0,-0.0554
3210.0,-0.0551
3209.0,-0.0549
3208.0,-0.0547
3207.0,-0.0546
3206.0,-0.0544
3205.0,-0.0541
3204.0,-0.0538
3203.0,-0.0535
3202.0,-0.0532
3201.0,-0.0529
3200.0,-0.0526
3199.0,-0.0524
3198.0,-0.0521
3197.0,-0.0518
3196.0,-0.0515
3195.0,-0.0511
3194.0,-0.0507
3193.0,-0.0504
3192.0,-0.0501
3191.0,-0.0498
3190.0,-0.0495
3189.0,-0.0491
3188.0,-0.0488
3187.0,-0.0486
3186.0,-0.0484
3185.0,-0.0482
3184.0,-0.048
3183.0,-0.0477
3182.0,-0.0474
3181.0,-0.0471
3180.0,-0.0468
3179.0,-0.0464
3178.0,-0.0461
3177.0,-0.0457
3176.0,-0.0454
3175.0,-0.045
3174.0,-0.0447
3173.0,-0.0444
3172.0,-0.0441
3171.0,-0.0439
3170.0,-0.0437
3169.0,-0.0436
3168.0,-0.0434
3167.0,-0.0433
3166.0,-0.0431
3165.0,-0.0428
3164.0,-0.0425
3163.0,-0.0421
3162.0,-0.0417
3161.0,-0.0413
3160.0,-0.041
3159.0,-0.0407
3158.0,-0.0405
3157.0,-0.0402
3156.0,-0.04
3155.0,-0.0397
3154.0,-0.0394
3153.0,-0.0391
3152.0,-0.0388
3151.0,-0.0386
3150.0,-0.0383
3149.0,-0.0381
3148.0,-0.0378
3147.0,-0.0374
3146.0,-0.0371
3145.0,-0.0367
3144.0,-0.0364
3143.0,-0.0361
3142.0,-0.0359
3141.0,-0.0358
3140.0,-0.0356
3139.0,-0.0354
3138.0,-0.0352
3137.0,-0.0349
3136.0,-0.0346
3135.0,-0.0344
3134.0,-0.0341
3133.0,-0.0338
3132.0,-0.0335
3131.0,-0.0332
3130.0,-0.033
3129.0,-0.0327
3128.0,-0.0324
3127.0,-0.0322
3126.0,-0.032
3125.0,-0.0318
3124.0,-0.0317
3123.0,-0.0314
3122.0,-0.0311
3121.0,-0.0308
3120.0,-0.0305
3119.0,-0.0302
3118.0,-0.03
3117.0,-0.0299
3116.0,-0.0297
3115.0,-0.0295
3114.0,-0.0293
3113.0,-0.029
3112.0,-0.0287
3111.0,-0.0284
3110.0,-0.0281
3109.0,-0.0279
3108.0,-0.0278
3107.0,-0.0276
3106.0,-0.0275
3105.0,-0.0273
3104.0,-0.0272
3103.0,-0.027
3102.0,-0.0268
3101.0,-0.0266
3100.0,-0.0263
3099.0,-0.0261
3098.0,-0.0259
3097.0,-0.0258
3096.0,-0.0256
3095.0,-0.0254
3094.0,-0.0251
3093.0,-0.0249
3092.0,-0.0246
3091.0,-0.0244
3090.0,-0.0242
3089.0,-0.0241
3088.0,-0.024
3087.0,-0.0239
3086.0,-0.0238
3085.0,-0.0237
3084.0,-0.0236
3083.0,-0.0234
3082.0,-0.0231
3081.0,-0.0228
3080.0,-0.0225
3079.0,-0.0223
3078.0,-0.0221
3077.0,-0.0219
3076.0,-0.0218
3075.0,-0.0216
3074.0,-0.0214
3073.0,-0.0212
3072.0,-0.021
3071.0,-0.0208
3070.0,-0.0207
3069.0,-0.0206
3068.0,-0.0205
3067.0,-0.0204
3066.0,-0.0203
3065.0,-0.0201
3064.0,-0.02
3063.0,-0.0198
3062.0,-0.0195
3061.0,-0.0193
3060.0,-0.0192
3059.0,-0.0191
3058.0,-0.019
3057.0,-0.0189
3056.0,-0.0188
3055.0,-0.0187
3054.0,-0.0186
3053.0,-0.0184
3052.0,-0.0182
3051.0,-0.018
3050.0,-0.0179
3049.0,-0.0178
3048.0,-0.0177
3047.0,-0.0176
3046.0,-0.0174
3045.0,-0.0172
3044.0,-0.017
3043.0,-0.0168
3042.0,-0.0167
3041.0,-0.0166
3040.0,-0.0165
3039.0,-0.0164
3038.0,-0.0163
3037.0,-0.0162
3036.0,-0.016
3035.0,-0.0159
3034.0,-0.0159
3033.0,-0.0159
3032.0,-0.0158
3031.0,-0.0158
3030.0,-0.0156
3029.0,-0.0155
3028.0,-0.0153
3027.0,-0.0151
3026.0,-0.0148
3025.0,-0.0147
3024.0,-0.0146
3023.0,-0.0145
3022.0,-0.0145
3021.0,-0.0145
3020.0,-0.0144
3019.0,-0.0144
3018.0,-0.0142
3017.0,-0.0141
3016.0,-0.0139
3015.0,-0.0137
3014.0,-0.0137
3013.0,-0.0137
3012.0,-0.0136
3011.0,-0.0136
3010.0,-0.0134
3009.0,-0.0132
3008.0,-0.0131
3007.0,-0.013
3006.0,-0.0129
3005.0,-0.0128
3004.0,-0.0127
3003.0,-0.0126
3002.0,-0.0125
3001.0,-0.0124
3000.0,-0.0124
2999.0,-0.0124
2998.0,-0.0123
2997.0,-0.0121
2996.0,-0.012
2995.0,-0.0119
2994.0,-0.0119
2993.0,-0.0119
2992.0,-0.0117
2991.0,-0.0115
2990.0,-0.0113
2989.0,-0.0112
2988.0,-0.0111
2987.0,-0.0111
2986.0,-0.011
2985.0,-0.0109
2984.0,-0.0108
2983.0,-0.0107
2982.0,-0.0106
2981.0,-0.0106
2980.0,-0.0105
2979.0,-0.0104
2978.0,-0.0103
2977.0,-0.0102
2976.0,-0.0101
2975.0,-0.0101
2974.0,-0.0101
2973.0,-0.01
2972.0,-0.0099
2971.0,-0.0099
2970.0,-0.0098
2969.0,-0.0098
2968.0,-0.0098
2967.0,-0.0098
2966.0,-0.0096
2965.0,-0.0095
2964.0,-0.0093
2963.0,-0.0092
2962.0,-0.0092
2961.0,-0.0091
2960.0,-0.0091
2959.0,-0.009
2958.0,-0.009
2957.0,-0.0089
2956.0,-0.0089
2955.0,-0.0089
2954.0,-0.0088
2953.0,-0.0087
2952.0,-0.0086
2951.0,-0.0085
2950.0,-0.0084
2949.0,-0.0083
2948.0,-0.0082
2947.0,-0.0082
2946.0,-0.0082
2945.0,-0.0082
2944.0,-0.0081
2943.0,-0.008
2942.0,-0.008
2941.0,-0.0079
2940.0,-0.0078
2939.0,-0.0077
2938.0,-0.0077
2937.0,-0.0077
2936.0,-0.0076
2935.0,-0.0076
2934.0,-0.0076
2933.0,-0.0076
2932.0,-0.0075
2931.0,-0.0075
2930.0,-0.0074
2929.0,-0.0074
2928.0,-0.0073
2927.0,-0.0072
2926.0,-0.0071
2925.0,-0.007
2924.0,-0.007
2923.0,-0.007
2922.0,-0.007
2921.0,-0.007
2920.0,-0.0069
2919.0,-0.0068
2918.0,-0.0067
2917.0,-0.0067
2916.0,-0.0066
2915.0,-0.0065
2914.0,-0.0065
2913.0,-0.0065
2912.0,-0.0065
2911.0,-0.0065
2910.0,-0.0064
2909.0,-0.0063
2908.0,-0.0062
2907.0,-0.0061
2906.0,-0.0061
2905.0,-0.0062
2904.0,-0.0062
2903.0,-0.0063
2902.0,-0.0063
2901.0,-0.0062
2900.0,-0.0061
2899.0,-0.006
2898.0,-0.0059
2897.0,-0.0058
2896.0,-0.0057
2895.0,-0.0057
2894.0,-0.0057
2893.0,-0.0058
2892.0,-0.0058
2891.0,-0.0058
2890.0,-0.0058
2889.0,-0.0057
2888.0,-0.0056
2887.0,-0.0055
2886.0,-0.0054
2885.0,-0.0055
2884.0,-0.0055
2883.0,-0.0055
2882.0,-0.0055
2881.0,-0.0054
2880.0,-0.0054
2879.0,-0.0053
2878.0,-0.0052
2877.0,-0.0052
2876.0,-0.0052
2875.0,-0.0052
2874.0,-0.0052
2873.0,-0.0052
2872.0,-0.0051
2871.0,-0.005
2870.0,-0.005
2869.0,-0.0049
2868.0,-0.0048
2867.0,-0.0048
2866.0,-0.0048
2865.0,-0.0048
2864.0,-0.0048
2863.0,-0.0047
2862.0,-0.0047
2861.0,-0.0047
2860.0,-0.0047
2859.0,-0.0046
2858.0,-0.0045
2857.0,-0.0045
2856.0,-0.0044
2855.0,-0.0044
2854.0,-0.0043
2853.0,-0.0043
2852.0,-0.0043
2851.0,-0.0043
2850.0,-0.0043
2849.0,-0.0043
2848.0,-0.0043
2847.0,-0.0043
2846.0,-0.0043
2845.0,-0.0043
2844.0,-0.0043
2843.0,-0.0042
2842.0,-0.0042
2841.0,-0.0042
2840.0,-0.0042
2839.0,-0.0041
2838.0,-0.004
2837.0,-0.0039
2836.0,-0.0039
2835.0,-0.0039
2834.0,-0.004
2833.0,-0.004
2832.0,-0.004
2831.0,-0.004
2830.0,-0.004
2829.0,-0.0039
2828.0,-0.0039
2827.0,-0.0039
2826.0,-0.0038
2825.0,-0.0038
2824.0,-0.0038
2823.0,-0.0038
2822.0,-0.0038
2821.0,-0.0038
2820.0,-0.0038
2819.0,-0.0038
2818.0,-0.0038
2817.0,-0.0037
2816.0,-0.0037
2815.0,-0.0036
2814.0,-0.0036
2813.0,-0.0035
2812.0,-0.0035
2811.0,-0.0035
2810.0,-0.0035
2809.0,-0.0034
2808.0,-0.0034
2807.0,-0.0034
2806.0,-0.0034
2805.0,-0.0035
2804.0,-0.0035
2803.0,-0.0034
2802.0,-0.0034
2801.0,-0.0033
2800.0,-0.0033
2799.0,-0.0032
2798.0,-0.0032
2797.0,-0.0031
2796.0,-0.0031
2795.0,-0.0031
2794.0,-0.0032
2793.0,-0.0033
2792.0,-0.0033
2791.0,-0.0032
2790.0,-0.0032
2789.0,-0.0032
2788.0,-0.0032
2787.0,-0.0031
2786.0,-0.0031
2785.0,-0.003
2784.0,-0.003
2783.0,-0.003
2782.0,-0.003
2781.0,-0.003
2780.0,-0.0029
2779.0,-0.0029
2778.0,-0.0029
2777.0,-0.003
2776.0,-0.003
2775.0,-0.003
2774.0,-0.003
2773.0,-0.003
2772.0,-0.003
2771.0,-0.0029
2770.0,-0.0028
2769.0,-0.0027
2768.0,-0.0026
2767.0,-0.0026
2766.0,-0.0026
2765.0,-0.0027
2764.0,-0.0027
2763.0,-0.0028
2762.0,-0.0028
2761.0,-0.0028
2760.0,-0.0027
2759.0,-0.0027
2758.0,-0.0027
2757.0,-0.0026
2756.0,-0.0026
2755.0,-0.0026
2754.0,-0.0026
2753.0,-0.0026
2752.0,-0.0026
2751.0,-0.0025
2750.0,-0.0025
2749.0,-0.0024
2748.0,-0.0024
2747.0,-0.0024
2746.0,-0.0024
2745.0,-0.0024
2744.0,-0.0024
2743.0,-0.0025
2742.0,-0.0025
2741.0,-0.0025
2740.0,-0.0025
2739.0,-0.0025
2738.0,-0.0024
2737.0,-0.0024
2736.0,-0.0025
2735.0,-0.0025
2734.0,-0.0024
2733.0,-0.0024
2732.0,-0.0023
2731.0,-0.0023
2730.0,-0.0023
2729.0,-0.0023
2728.0,-0.0023
2727.0,-0.0023
2726.0,-0.0022
2725.0,-0.0022
2724.0,-0.0021
2723.0,-0.0021
2722.0,-0.0021
2721.0,-0.0021
2720.0,-0.0021
2719.0,-0.0021
2718.0,-0.0021
2717.0,-0.0021
2716.0,-0.002
2715.0,-0.002
2714.0,-0.002
2713.0,-0.002
2712.0,-0.0021
2711.0,-0.0021
2710.0,-0.0021
2709.0,-0.0021
2708.0,-0.0021
2707.0,-0.002
2706.0,-0.002
2705.0,-0.0021
2704.0,-0.002
2703.0,-0.002
2702.0,-0.002
2701.0,-0.002
2700.0,-0.002
2699.0,-0.002
2698.0,-0.0021
2697.0,-0.0021
2696.0,-0.0021
2695.0,-0.0021
2694.0,-0.0021
2693.0,-0.002
2692.0,-0.002
2691.0,-0.002
2690.0,-0.0019
2689.0,-0.0019
2688.0,-0.0019
2687.0,-0.0019
2686.0,-0.0019
2685.0,-0.0019
2684.0,-0.002
2683.0,-0.002
2682.0,-0.002
2681.0,-0.002
2680.0,-0.002
2679.0,-0.002
2678.0,-0.002
2677.0,-0.0019
2676.0,-0.0018
2675.0,-0.0018
2674.0,-0.0017
2673.0,-0.0017
2672.0,-0.0017
2671.0,-0.0018
2670.0,-0.0018
2669.0,-0.0017
2668.0,-0.0017
2667.0,-0.0016
2666.0,-0.0016
2665.0,-0.0016
2664.0,-0.0017
2663.0,-0.0017
2662.0,-0.0018
2661.0,-0.0017
2660.0,-0.0017
2659.0,-0.0017
2658.0,-0.0017
2657.0,-0.0017
2656.0,-0.0016
2655.0,-0.0016
2654.0,-0.0016
2653.0,-0.0017
2652.0,-0.0017
2651.0,-0.0016
2650.0,-0.0016
2649.0,-0.0015
2648.0,-0.0015
2647.0,-0.0014
2646.0,-0.0014
2645.0,-0.0014
2644.0,-0.0014
2643.0,-0.0014
2642.0,-0.0015
2641.0,-0.0016
2640.0,-0.0016
2639.0,-0.0016
2638.0,-0.0016
2637.0,-0.0015
2636.0,-0.0016
2635.0,-0.0016
2634.0,-0.0017
2633.0,-0.0017
2632.0,-0.0016
2631.0,-0.0016
2630.0,-0.0015
2629.0,-0.0015
2628.0,-0.0015
2627.0,-0.0016
2626.0,-0.0016
2625.0,-0.0016
2624.0,-0.0016
2623.0,-0.0016
2622.0,-0.0016
2621.0,-0.0015
2620.0,-0.0015
2619.0,-0.0015
2618.0,-0.0015
2617.0,-0.0015
2616.0,-0.0015
2615.0,-0.0015
2614.0,-0.0016
2613.0,-0.0016
2612.0,-0.0017
2611.0,-0.0017
2610.0,-0.0016
2609.0,-0.0015
2608.0,-0.0014
2607.0,-0.0014
2606.0,-0.0015
2605.0,-0.0015
2604.0,-0.0015
2603.0,-0.0014
2602.0,-0.0014
2601.0,-0.0014
2600.0,-0.0013
2599.0,-0.0013
2598.0,-0.0014
2597.0,-0.0014
2596.0,-0.0014
2595.0,-0.0014
2594.0,-0.0014
2593.0,-0.0014
2592.0,-0.0014
2591.0,-0.0014
2590.0,-0.0014
2589.0,-0.0013
2588.0,-0.0013
2587.0,-0.0013
2586.0,-0.0013
2585.0,-0.0013
2584.0,-0.0013
2583.0,-0.0014
2582.0,-0.0014
2581.0,-0.0014
2580.0,-0.0014
2579.0,-0.0014
2578.0,-0.0014
2577.0,-0.0014
2576.0,-0.0014
2575.0,-0.0014
2574.0,-0.0014
2573.0,-0.0014
2572.0,-0.0014
2571.0,-0.0014
2570.0,-0.0013
2569.0,-0.0012
2568.0,-0.0012
2567.0,-0.0012
2566.0,-0.0012
2565.0,-0.0013
2564.0,-0.0013
2563.0,-0.0013
2562.0,-0.0014
2561.0,-0.0014
2560.0,-0.0014
2559.0,-0.0014
2558.0,-0.0013
2557.0,-0.0013
2556.0,-0.0013
2555.0,-0.0012
2554.0,-0.0013
2553.0,-0.0013
2552.0,-0.0013
2551.0,-0.0013
2550.0,-0.0013
2549.0,-0.0013
2548.0,-0.0012
2547.0,-0.0012
2546.0,-0.0012
2545.0,-0.0011
2544.0,-0.0012
2543.0,-0.0012
2542.0,-0.0012
2541.0,-0.0012
2540.0,-0.0012
2539.0,-0.0012
2538.0,-0.0012
2537.0,-0.0012
2536.0,-0.0013
2535.0,-0.0014
2534.0,-0.0015
2533.0,-0.0015
2532.0,-0.0015
2531.0,-0.0014
2530.0,-0.0014
2529.0,-0.0013
2528.0,-0.0013
2527.0,-0.0013
2526.0,-0.0013
2525.0,-0.0013
2524.0,-0.0013
2523.0,-0.0013
2522.0,-0.0013
2521.0,-0.0013
2520.0,-0.0013
2519.0,-0.0013
2518.0,-0.0014
2517.0,-0.0014
2516.0,-0.0014
2515.0,-0.0014
2514.0,-0.0014
2513.0,-0.0014
2512.0,-0.0014
2511.0,-0.0013
2510.0,-0.0014
2509.0,-0.0014
2508.0,-0.0014
2507.0,-0.0014
2506.0,-0.0014
2505.0,-0.0013
2504.0,-0.0013
2503.0,-0.0013
2502.0,-0.0013
2501.0,-0.0013
2500.0,-0.0013
2499.0,-0.0013
2498.0,-0.0013
2497.0,-0.0014
2496.0,-0.0014
2495.0,-0.0015
2494.0,-0.0014
2493.0,-0.0014
2492.0,-0.0014
2491.0,-0.0014
2490.0,-0.0015
2489.0,-0.0016
2488.0,-0.0016
2487.0,-0.0016
2486.0,-0.0016
2485.0,-0.0015
2484.0,-0.0015
2483.0,-0.0014
2482.0,-0.0014
2481.0,-0.0014
2480.0,-0.0014
2479.0,-0.0015
2478.0,-0.0015
2477.0,-0.0015
2476.0,-0.0015
2475.0,-0.0015
2474.0,-0.0016
2473.0,-0.0016
2472.0,-0.0016
2471.0,-0.0016
2470.0,-0.0016
2469.0,-0.0016
2468.0,-0.0017
2467.0,-0.0017
2466.0,-0.0017
2465.0,-0.0017
2464.0,-0.0017
2463.0,-0.0016
2462.0,-0.0016
2461.0,-0.0016
2460.0,-0.0016
2459.0,-0.0016
2458.0,-0.0016
2457.0,-0.0016
2456.0,-0.0016
2455.0,-0.0016
2454.0,-0.0017
2453.0,-0.0018
2452.0,-0.0018
2451.0,-0.0018
2450.0,-0.0018
2449.0,-0.0017
2448.0,-0.0017
2447.0,-0.0017
2446.0,-0.0017
2445.0,-0.0018
2444.0,-0.0018
2443.0,-0.0019
2442.0,-0.0019
2441.0,-0.0019
2440.0,-0.0018
2439.0,-0.0018
2438.0,-0.0019
2437.0,-0.0019
2436.0,-0.002
2435.0,-0.002
2434.0,-0.0019
2433.0,-0.0019
2432.0,-0.0018
2431.0,-0.0018
2430.0,-0.0019
2429.0,-0.0019
2428.0,-0.002
2427.0,-0.002
2426.0,-0.002
2425.0,-0.002
2424.0,-0.0019
2423.0,-0.0019
2422.0,-0.0019
2421.0,-0.002
2420.0,-0.002
2419.0,-0.002
2418.0,-0.002
2417.0,-0.0021
2416.0,-0.0021
2415.0,-0.0021
2414.0,-0.0021
2413.0,-0.0022
2412.0,-0.0022
2411.0,-0.0021
2410.0,-0.0021
2409.0,-0.002
2408.0,-0.002
2407.0,-0.0019
2406.0,-0.0019
2405.0,-0.002
2404.0,-0.002
2403.0,-0.0021
2402.0,-0.0021
2401.0,-0.0022
2400.0,-0.0022
2399.0,-0.0021
2398.0,-0.0021
2397.0,-0.002
2396.0,-0.002
2395.0,-0.0021
2394.0,-0.0021
2393.0,-0.0022
2392.0,-0.0022
2391.0,-0.0022
2390.0,-0.0022
2389.0,-0.0023
2388.0,-0.0023
2387.0,-0.0023
2386.0,-0.0023
2385.0,-0.0021
2384.0,-0.0019
2383.0,-0.0016
2382.0,-0.0011
2381.0,-0.0006
2380.0,-0.0003
2379.0,-0.0003
2378.0,-0.0005
2377.0,-0.001
2376.0,-0.0016
2375.0,-0.0023
2374.0,-0.0029
2373.0,-0.0031
2372.0,-0.003
2371.0,-0.0027
2370.0,-0.002
2369.0,-0.0011
2368.0,-0.0005
2367.0,-0.0008
2366.0,-0.0022
2365.0,-0.0039
2364.0,-0.0047
2363.0,-0.004
2362.0,-0.0028
2361.0,-0.002
2360.0,-0.0019
2359.0,-0.0022
2358.0,-0.002
2357.0,-0.0013
2356.0,-0.0008
2355.0,-0.0011
2354.0,-0.0017
2353.0,-0.0021
2352.0,-0.0021
2351.0,-0.002
2350.0,-0.002
2349.0,-0.0019
2348.0,-0.0019
2347.0,-0.0019
2346.0,-0.0021
2345.0,-0.0023
2344.0,-0.0022
2343.0,-0.002
2342.0,-0.0017
2341.0,-0.0014
2340.0,-0.0011
2339.0,-0.0011
2338.0,-0.0014
2337.0,-0.0018
2336.0,-0.002
2335.0,-0.002
2334.0,-0.0018
2333.0,-0.0017
2332.0,-0.0018
2331.0,-0.0021
2330.0,-0.0023
2329.0,-0.0023
2328.0,-0.0021
2327.0,-0.0019
2326.0,-0.0016
2325.0,-0.0014
2324.0,-0.0013
2323.0,-0.0015
2322.0,-0.002
2321.0,-0.0025
2320.0,-0.0029
2319.0,-0.0032
2318.0,-0.0033
2317.0,-0.0031
2316.0,-0.0028
2315.0,-0.0025
2314.0,-0.0023
2313.0,-0.0024
2312.0,-0.0025
2311.0,-0.0027
2310.0,-0.0026
2309.0,-0.0026
2308.0,-0.0025
2307.0,-0.0025
2306.0,-0.0025
2305.0,-0.0025
2304.0,-0.0026
2303.0,-0.0027
2302.0,-0.0028
2301.0,-0.0028
2300.0,-0.0029
2299.0,-0.0029
2298.0,-0.003
2297.0,-0.0031
2296.0,-0.0032
2295.0,-0.0032
2294.0,-0.0031
2293.0,-0.0029
2292.0,-0.0028
2291.0,-0.0027
2290.0,-0.0027
2289.0,-0.0027
2288.0,-0.0027
2287.0,-0.0027
2286.0,-0.0027
2285.0,-0.0026
2284.0,-0.0025
2283.0,-0.0025
2282.0,-0.0025
2281.0,-0.0025
2280.0,-0.0025
2279.0,-0.0025
2278.0,-0.0025
2277.0,-0.0025
2276.0,-0.0026
2275.0,-0.0026
2274.0,-0.0026
2273.0,-0.0025
2272.0,-0.0024
2271.0,-0.0023
2270.0,-0.0023
2269.0,-0.0023
2268.0,-0.0023
2267.0,-0.0023
2266.0,-0.0023
2265.0,-0.0023
2264.0,-0.0023
2263.0,-0.0023
2262.0,-0.0023
2261.0,-0.0023
2260.0,-0.0023
2259.0,-0.0023
2258.0,-0.0023
2257.0,-0.0023
2256.0,-0.0023
2255.0,-0.0023
2254.0,-0.0023
2253.0,-0.0022
2252.0,-0.0022
2251.0,-0.0022
2250.0,-0.0022
2249.0,-0.0023
2248.0,-0.0023
2247.0,-0.0022
2246.0,-0.0022
2245.0,-0.0022
2244.0,-0.0023
2243.0,-0.0023
2242.0,-0.0023
2241.0,-0.0022
2240.0,-0.0022
2239.0,-0.0021
2238.0,-0.0021
2237.0,-0.0021
2236.0,-0.0021
2235.0,-0.0021
2234.0,-0.0022
2233.0,-0.0022
2232.0,-0.0022
2231.0,-0.0022
2230.0,-0.0022
2229.0,-0.0022
2228.0,-0.0022
2227.0,-0.0022
2226.0,-0.0022
2225.0,-0.0022
2224.0,-0.0022
2223.0,-0.0022
2222.0,-0.0023
2221.0,-0.0023
2220.0,-0.0023
2219.0,-0.0023
2218.0,-0.0023
2217.0,-0.0022
2216.0,-0.0021
2215.0,-0.0021
2214.0,-0.0021
2213.0,-0.0021
2212.0,-0.0021
2211.0,-0.0021
2210.0,-0.0021
2209.0,-0.0021
2208.0,-0.0021
2207.0,-0.0021
2206.0,-0.0021
2205.0,-0.0021
2204.0,-0.0021
2203.0,-0.0021
2202.0,-0.0021
2201.0,-0.0021
2200.0,-0.0021
2199.0,-0.002
2198.0,-0.0021
2197.0,-0.0021
2196.0,-0.0021
2195.0,-0.0021
2194.0,-0.0021
2193.0,-0.0021
2192.0,-0.0022
2191.0,-0.0022
2190.0,-0.0022
2189.0,-0.0022
2188.0,-0.0022
2187.0,-0.0022
2186.0,-0.0021
2185.0,-0.0021
2184.0,-0.0022
2183.0,-0.0022
2182.0,-0.0022
2181.0,-0.0022
2180.0,-0.0023
2179.0,-0.0023
2178.0,-0.0023
2177.0,-0.0024
2176.0,-0.0024
2175.0,-0.0024
2174.0,-0.0024
2173.0,-0.0024
2172.0,-0.0024
2171.0,-0.0023
2170.0,-0.0024
2169.0,-0.0024
2168.0,-0.0024
2167.0,-0.0024
2166.0,-0.0024
2165.0,-0.0024
2164.0,-0.0023
2163.0,-0.0023
2162.0,-0.0023
2161.0,-0.0023
2160.0,-0.0023
2159.0,-0.0023
2158.0,-0.0023
2157.0,-0.0023
2156.0,-0.0023
2155.0,-0.0023
2154.0,-0.0024
2153.0,-0.0024
2152.0,-0.0025
2151.0,-0.0025
2150.0,-0.0025
2149.0,-0.0025
2148.0,-0.0025
2147.0,-0.0025
2146.0,-0.0025
2145.0,-0.0025
2144.0,-0.0025
2143.0,-0.0025
2142.0,-0.0025
2141.0,-0.0025
2140.0,-0.0025
2139.0,-0.0025
2138.0,-0.0025
2137.0,-0.0025
2136.0,-0.0024
2135.0,-0.0024
2134.0,-0.0024
2133.0,-0.0024
2132.0,-0.0024
2131.0,-0.0024
2130.0,-0.0024
2129.0,-0.0024
2128.0,-0.0024
2127.0,-0.0024
2126.0,-0.0023
2125.0,-0.0023
2124.0,-0.0023
2123.0,-0.0023
2122.0,-0.0024
2121.0,-0.0024
2120.0,-0.0025
2119.0,-0.0026
2118.0,-0.0026
2117.0,-0.0026
2116.0,-0.0026
2115.0,-0.0026
2114.0,-0.0026
2113.0,-0.0026
2112.0,-0.0026
2111.0,-0.0026
2110.0,-0.0026
2109.0,-0.0026
2108.0,-0.0026
2107.0,-0.0026
2106.0,-0.0026
2105.0,-0.0026
2104.0,-0.0026
2103.0,-0.0026
2102.0,-0.0026
2101.0,-0.0027
2100.0,-0.0027
2099.0,-0.0027
2098.0,-0.0026
2097.0,-0.0026
2096.0,-0.0026
2095.0,-0.0026
2094.0,-0.0026
2093.0,-0.0027
2092.0,-0.0027
2091.0,-0.0027
2090.0,-0.0027
2089.0,-0.0027
2088.0,-0.0027
2087.0,-0.0027
2086.0,-0.0028
2085.0,-0.0028
2084.0,-0.0028
2083.0,-0.0028
2082.0,-0.0028
2081.0,-0.0027
2080.0,-0.0027
2079.0,-0.0027
2078.0,-0.0027
2077.0,-0.0027
2076.0,-0.0028
2075.0,-0.0028
2074.0,-0.0029
2073.0,-0.0029
2072.0,-0.0029
2071.0,-0.0028
2070.0,-0.0028
2069.0,-0.0028
2068.0,-0.0028
2067.0,-0.0028
2066.0,-0.0027
2065.0,-0.0027
2064.0,-0.0027
2063.0,-0.0027
2062.0,-0.0027
2061.0,-0.0027
2060.0,-0.0027
2059.0,-0.0028
2058.0,-0.0028
2057.0,-0.0028
2056.0,-0.0027
2055.0,-0.0027
2054.0,-0.0027
2053.0,-0.0027
2052.0,-0.0027
2051.0,-0.0027
2050.0,-0.0027
2049.0,-0.0027
2048.0,-0.0027
2047.0,-0.0028
2046.0,-0.0028
2045.0,-0.0028
2044.0,-0.0028
2043.0,-0.0027
2042.0,-0.0027
2041.0,-0.0027
2040.0,-0.0027
2039.0,-0.0027
2038.0,-0.0027
2037.0,-0.0027
2036.0,-0.0027
2035.0,-0.0027
2034.0,-0.0027
2033.0,-0.0026
2032.0,-0.0025
2031.0,-0.0025
2030.0,-0.0025
2029.0,-0.0025
2028.0,-0.0026
2027.0,-0.0026
2026.0,-0.0027
2025.0,-0.0027
2024.0,-0.0026
2023.0,-0.0026
2022.0,-0.0026
2021.0,-0.0026
2020.0,-0.0026
2019.0,-0.0026
2018.0,-0.0025
2017.0,-0.0025
2016.0,-0.0025
2015.0,-0.0024
2014.0,-0.0024
2013.0,-0.0024
2012.0,-0.0024
2011.0,-0.0024
2010.0,-0.0024
2009.0,-0.0024
2008.0,-0.0024
2007.0,-0.0024
2006.0,-0.0023
2005.0,-0.0023
2004.0,-0.0023
2003.0,-0.0023
2002.0,-0.0024
2001.0,-0.0024
2000.0,-0.0024
1999.0,-0.0024
1998.0,-0.0023
1997.0,-0.0023
1996.0,-0.0023
1995.0,-0.0023
1994.0,-0.0023
1993.0,-0.0023
1992.0,-0.0023
1991.0,-0.0023
1990.0,-0.0023
1989.0,-0.0023
1988.0,-0.0023
1987.0,-0.0023
1986.0,-0.0023
1985.0,-0.0022
1984.0,-0.0022
1983.0,-0.0021
1982.0,-0.0021
1981.0,-0.0021
1980.0,-0.0021
1979.0,-0.0022
1978.0,-0.0022
1977.0,-0.0022
1976.0,-0.0022
1975.0,-0.0022
1974.0,-0.0021
1973.0,-0.002
1972.0,-0.002
1971.0,-0.002
1970.0,-0.002
1969.0,-0.002
1968.0,-0.0021
1967.0,-0.0021
1966.0,-0.0021
1965.0,-0.0021
1964.0,-0.0021
1963.0,-0.0021
1962.0,-0.0021
1961.0,-0.0021
1960.0,-0.0021
1959.0,-0.0021
1958.0,-0.0021
1957.0,-0.0021
1956.0,-0.0021
1955.0,-0.002
1954.0,-0.002
1953.0,-0.002
1952.0,-0.0019
1951.0,-0.002
1950.0,-0.002
1949.0,-0.002
1948.0,-0.002
1947.0,-0.0019
1946.0,-0.0019
1945.0,-0.0019
1944.0,-0.0019
1943.0,-0.002
1942.0,-0.002
1941.0,-0.0019
1940.0,-0.0019
1939.0,-0.0018
1938.0,-0.0018
1937.0,-0.0018
1936.0,-0.0019
1935.0,-0.0019
1934.0,-0.0018
1933.0,-0.0018
1932.0,-0.0018
1931.0,-0.0017
1930.0,-0.0017
1929.0,-0.0017
1928.0,-0.0018
1927.0,-0.0018
1926.0,-0.0018
1925.0,-0.0018
1924.0,-0.0018
1923.0,-0.0018
1922.0,-0.0018
1921.0,-0.0018
1920.0,-0.0018
1919.0,-0.0018
1918.0,-0.0018
1917.0,-0.0018
1916.0,-0.0018
1915.0,-0.0018
1914.0,-0.0018
1913.0,-0.0018
1912.0,-0.0018
1911.0,-0.0018
1910.0,-0.0018
1909.0,-0.0018
1908.0,-0.0018
1907.0,-0.0018
1906.0,-0.0018
1905.0,-0.0017
1904.0,-0.0017
1903.0,-0.0017
1902.0,-0.0017
1901.0,-0.0017
1900.0,-0.0018
1899.0,-0.0017
1898.0,-0.0017
1897.0,-0.0017
1896.0,-0.0016
1895.0,-0.0016
1894.0,-0.0016
1893.0,-0.0016
1892.0,-0.0016
1891.0,-0.0016
1890.0,-0.0016
1889.0,-0.0016
1888.0,-0.0016
1887.0,-0.0016
1886.0,-0.0016
1885.0,-0.0016
1884.0,-0.0016
1883.0,-0.0017
1882.0,-0.0017
1881.0,-0.0017
1880.0,-0.0017
1879.0,-0.0017
1878.0,-0.0017
1877.0,-0.0016
1876.0,-0.0016
1875.0,-0.0016
1874.0,-0.0015
1873.0,-0.0015
1872.0,-0.0015
1871.0,-0.0015
1870.0,-0.0015
1869.0,-0.0015
1868.0,-0.0015
1867.0,-0.0015
1866.0,-0.0016
1865.0,-0.0016
1864.0,-0.0017
1863.0,-0.0016
1862.0,-0.0016
1861.0,-0.0016
1860.0,-0.0016
1859.0,-0.0016
1858.0,-0.0016
1857.0,-0.0016
1856.0,-0.0016
1855.0,-0.0015
1854.0,-0.0015
1853.0,-0.0015
1852.0,-0.0015
1851.0,-0.0015
1850.0,-0.0015
1849.0,-0.0015
1848.0,-0.0015
1847.0,-0.0016
1846.0,-0.0016
1845.0,-0.0017
1844.0,-0.0017
1843.0,-0.0017
1842.0,-0.0017
1841.0,-0.0016
1840.0,-0.0016
1839.0,-0.0015
1838.0,-0.0015
1837.0,-0.0014
1836.0,-0.0014
1835.0,-0.0014
1834.0,-0.0014
1833.0,-0.0015
1832.0,-0.0015
1831.0,-0.0016
1830.0,-0.0016
1829.0,-0.0015
1828.0,-0.0015
1827.0,-0.0015
1826.0,-0.0015
1825.0,-0.0015
1824.0,-0.0015
1823.0,-0.0014
1822.0,-0.0014
1821.0,-0.0014
1820.0,-0.0014
1819.0,-0.0015
1818.0,-0.0015
1817.0,-0.0015
1816.0,-0.0015
1815.0,-0.0014
1814.0,-0.0014
1813.0,-0.0013
1812.0,-0.0014
1811.0,-0.0014
1810.0,-0.0014
1809.0,-0.0014
1808.0,-0.0014
1807.0,-0.0014
1806.0,-0.0014
1805.0,-0.0014
1804.0,-0.0015
1803.0,-0.0016
1802.0,-0.0016
1801.0,-0.0016
1800.0,-0.0016
1799.0,-0.0016
1798.0,-0.0016
1797.0,-0.0016
1796.0,-0.0016
1795.0,-0.0015
1794.0,-0.0015
1793.0,-0.0015
1792.0,-0.0015
1791.0,-0.0016
1790.0,-0.0016
1789.0,-0.0016
1788.0,-0.0016
1787.0,-0.0016
1786.0,-0.0016
1785.0,-0.0016
1784.0,-0.0016
1783.0,-0.0016
1782.0,-0.0016
1781.0,-0.0016
1780.0,-0.0015
1779.0,-0.0015
1778.0,-0.0015
1777.0,-0.0015
1776.0,-0.0016
1775.0,-0.0016
1774.0,-0.0017
1773.0,-0.0018
1772.0,-0.0019
1771.0,-0.0019
1770.0,-0.0018
1769.0,-0.0018
1768.0,-0.0018
1767.0,-0.0018
1766.0,-0.0017
1765.0,-0.0017
1764.0,-0.0017
1763.0,-0.0017
1762.0,-0.0017
1761.0,-0.0017
1760.0,-0.0018
1759.0,-0.0018
1758.0,-0.0019
1757.0,-0.0019
1756.0,-0.0019
1755.0,-0.0019
1754.0,-0.0019
1753.0,-0.002
1752.0,-0.0021
1751.0,-0.0023
1750.0,-0.0023
1749.0,-0.0023
1748.0,-0.0023
1747.0,-0.0023
1746.0,-0.0023
1745.0,-0.0023
1744.0,-0.0024
1743.0,-0.0024
1742.0,-0.0025
1741.0,-0.0026
1740.0,-0.0026
1739.0,-0.0027
1738.0,-0.0027
1737.0,-0.0027
1736.0,-0.0027
1735.0,-0.0029
1734.0,-0.003
1733.0,-0.0031
1732.0,-0.0031
1731.0,-0.0031
1730.0,-0.0032
1729.0,-0.0033
1728.0,-0.0034
1727.0,-0.0035
1726.0,-0.0035
1725.0,-0.0035
1724.0,-0.0036
1723.0,-0.0037
1722.0,-0.0038
1721.0,-0.0039
1720.0,-0.004
1719.0,-0.0042
1718.0,-0.0045
1717.0,-0.0046
1716.0,-0.0048
1715.0,-0.0048
1714.0,-0.005
1713.0,-0.0051
1712.0,-0.0053
1711.0,-0.0055
1710.0,-0.0057
1709.0,-0.0059
1708.0,-0.0061
1707.0,-0.0063
1706.0,-0.0066
1705.0,-0.0068
1704.0,-0.007
1703.0,-0.0071
1702.0,-0.0073
1701.0,-0.0077
1700.0,-0.0082
1699.0,-0.0085
1698.0,-0.0086
1697.0,-0.0086
1696.0,-0.0088
1695.0,-0.0091
1694.0,-0.0094
1693.0,-0.0097
1692.0,-0.0099
1691.0,-0.0102
1690.0,-0.0104
1689.0,-0.0107
1688.0,-0.0108
1687.0,-0.011
1686.0,-0.0111
1685.0,-0.0116
1684.0,-0.0122
1683.0,-0.0127
1682.0,-0.0131
1681.0,-0.0135
1680.0,-0.0141
1679.0,-0.0146
1678.0,-0.0152
1677.0,-0.0158
1676.0,-0.0165
1675.0,-0.0173
1674.0,-0.0179
1673.0,-0.0184
1672.0,-0.0189
1671.0,-0.0196
1670.0,-0.0204
1669.0,-0.0211
1668.0,-0.0217
1667.0,-0.022
1666.0,-0.0223
1665.0,-0.0227
1664.0,-0.0231
1663.0,-0.0237
1662.0,-0.0242
1661.0,-0.0246
1660.0,-0.0249
1659.0,-0.0251
1658.0,-0.0254
1657.0,-0.0255
1656.0,-0.0257
1655.0,-0.0258
1654.0,-0.0261
1653.0,-0.0264
1652.0,-0.0267
1651.0,-0.0268
1650.0,-0.0267
1649.0,-0.0266
1648.0,-0.0266
1647.0,-0.0266
1646.0,-0.0264
1645.0,-0.0263
1644.0,-0.0262
1643.0,-0.0262
1642.0,-0.0262
1641.0,-0.0261
1640.0,-0.0261
1639.0,-0.026
1638.0,-0.0258
1637.0,-0.0256
1636.0,-0.0256
1635.0,-0.0256
1634.0,-0.0256
1633.0,-0.0255
1632.0,-0.0254
1631.0,-0.0252
1630.0,-0.025
1629.0,-0.0247
1628.0,-0.0245
1627.0,-0.0242
1626.0,-0.0238
1625.0,-0.0234
1624.0,-0.0229
1623.0,-0.0224
1622.0,-0.022
1621.0,-0.0217
1620.0,-0.0214
1619.0,-0.0211
1618.0,-0.0208
1617.0,-0.0205
1616.0,-0.0203
1615.0,-0.0202
1614.0,-0.02
1613.0,-0.0198
1612.0,-0.0196
1611.0,-0.0193
1610.0,-0.019
1609.0,-0.0186
1608.0,-0.0183
1607.0,-0.0181
1606.0,-0.0178
1605.0,-0.0175
1604.0,-0.0172
1603.0,-0.0168
1602.0,-0.0165
1601.0,-0.0161
1600.0,-0.0158
1599.0,-0.0155
1598.0,-0.0153
1597.0,-0.015
1596.0,-0.0147
1595.0,-0.0144
1594.0,-0.0141
1593.0,-0.0138
1592.0,-0.0136
1591.0,-0.0133
1590.0,-0.013
1589.0,-0.0127
1588.0,-0.0124
1587.0,-0.0122
1586.0,-0.0119
1585.0,-0.0116
1584.0,-0.0114
1583.0,-0.0112
1582.0,-0.0111
1581.0,-0.0109
1580.0,-0.0107
1579.0,-0.0105
1578.0,-0.0103
1577.0,-0.0101
1576.0,-0.0099
1575.0,-0.0097
1574.0,-0.0096
1573.0,-0.0095
1572.0,-0.0093
1571.0,-0.0092
1570.0,-0.009
1569.0,-0.0088
1568.0,-0.0087
1567.0,-0.0086
1566.0,-0.0085
1565.0,-0.0084
1564.0,-0.0083
1563.0,-0.0081
1562.0,-0.008
1561.0,-0.0078
1560.0,-0.0077
1559.0,-0.0076
1558.0,-0.0077
1557.0,-0.0077
1556.0,-0.0077
1555.0,-0.0076
1554.0,-0.0074
1553.0,-0.0073
1552.0,-0.0072
1551.0,-0.0071
1550.0,-0.007
1549.0,-0.007
1548.0,-0.0069
1547.0,-0.0069
1546.0,-0.0069
1545.0,-0.0069
1544.0,-0.0068
1543.0,-0.0068
1542.0,-0.0067
1541.0,-0.0065
1540.0,-0.0061
1539.0,-0.0059
1538.0,-0.0059
1537.0,-0.006
1536.0,-0.006
1535.0,-0.006
1534.0,-0.0059
1533.0,-0.0057
1532.0,-0.0056
1531.0,-0.0056
1530.0,-0.0057
1529.0,-0.0057
1528.0,-0.0057
1527.0,-0.0057
1526.0,-0.0057
1525.0,-0.0056
1524.0,-0.0055
1523.0,-0.0055
1522.0,-0.0056
1521.0,-0.0056
1520.0,-0.0057
1519.0,-0.0057
1518.0,-0.0057
1517.0,-0.0056
1516.0,-0.0054
1515.0,-0.0053
1514.0,-0.0053
1513.0,-0.0053
1512.0,-0.0053
1511.0,-0.0053
1510.0,-0.0053
1509.0,-0.0054
1508.0,-0.0054
1507.0,-0.0052
1506.0,-0.005
1505.0,-0.005
1504.0,-0.005
1503.0,-0.0051
1502.0,-0.0051
1501.0,-0.0052
1500.0,-0.0052
1499.0,-0.0053
1498.0,-0.0052
1497.0,-0.0051
1496.0,-0.005
1495.0,-0.005
1494.0,-0.005
1493.0,-0.005
1492.0,-0.0049
1491.0,-0.0049
1490.0,-0.0049
1489.0,-0.0049
1488.0,-0.0049
1487.0,-0.0049
1486.0,-0.0049
1485.0,-0.0049
1484.0,-0.0049
1483.0,-0.0049
1482.0,-0.0049
1481.0,-0.0049
1480.0,-0.0049
1479.0,-0.0048
1478.0,-0.0048
1477.0,-0.0048
1476.0,-0.0049
1475.0,-0.005
1474.0,-0.005
1473.0,-0.0049
1472.0,-0.0048
1471.0,-0.0048
1470.0,-0.0048
1469.0,-0.0048
1468.0,-0.0048
1467.0,-0.0048
1466.0,-0.0048
1465.0,-0.0048
1464.0,-0.0048
1463.0,-0.0049
1462.0,-0.0049
1461.0,-0.0049
1460.0,-0.0049
1459.0,-0.0049
1458.0,-0.005
1457.0,-0.005
1456.0,-0.0049
1455.0,-0.0049
1454.0,-0.0049
1453.0,-0.0048
1452.0,-0.0048
1451.0,-0.0048
1450.0,-0.0047
1449.0,-0.0047
1448.0,-0.0046
1447.0,-0.0046
1446.0,-0.0047
1445.0,-0.0047
1444.0,-0.0048
1443.0,-0.0048
1442.0,-0.0048
1441.0,-0.0048
1440.0,-0.0048
1439.0,-0.0049
1438.0,-0.0049
1437.0,-0.0049
1436.0,-0.0048
1435.0,-0.0048
1434.0,-0.0048
1433.0,-0.0048
1432.0,-0.0048
1431.0,-0.0048
1430.0,-0.0047
1429.0,-0.0046
1428.0,-0.0046
1427.0,-0.0046
1426.0,-0.0046
1425.0,-0.0046
1424.0,-0.0046
1423.0,-0.0046
1422.0,-0.0045
1421.0,-0.0045
1420.0,-0.0045
1419.0,-0.0045
1418.0,-0.0044
1417.0,-0.0044
1416.0,-0.0044
1415.0,-0.0045
1414.0,-0.0045
1413.0,-0.0045
1412.0,-0.0045
1411.0,-0.0045
1410.0,-0.0045
1409.0,-0.0046
1408.0,-0.0046
1407.0,-0.0046
1406.0,-0.0046
1405.0,-0.0047
1404.0,-0.0047
1403.0,-0.0048
1402.0,-0.0048
1401.0,-0.0048
1400.0,-0.0048
1399.0,-0.0048
1398.0,-0.0048
1397.0,-0.0048
1396.0,-0.0048
1395.0,-0.0048
1394.0,-0.0048
1393.0,-0.0049
1392.0,-0.0049
1391.0,-0.0049
1390.0,-0.0049
1389.0,-0.0049
1388.0,-0.0049
1387.0,-0.0049
1386.0,-0.0049
1385.0,-0.0049
1384.0,-0.005
1383.0,-0.0051
1382.0,-0.0051
1381.0,-0.0052
1380.0,-0.0052
1379.0,-0.0053
1378.0,-0.0053
1377.0,-0.0053
1376.0,-0.0053
1375.0,-0.0052
1374.0,-0.0052
1373.0,-0.0052
1372.0,-0.0052
1371.0,-0.0051
1370.0,-0.0051
1369.0,-0.005
1368.0,-0.005
1367.0,-0.005
1366.0,-0.0049
1365.0,-0.0049
1364.0,-0.0048
1363.0,-0.0047
1362.0,-0.0047
1361.0,-0.0047
1360.0,-0.0046
1359.0,-0.0046
1358.0,-0.0046
1357.0,-0.0046
1356.0,-0.0046
1355.0,-0.0045
1354.0,-0.0045
1353.0,-0.0044
1352.0,-0.0044
1351.0,-0.0043
1350.0,-0.0043
1349.0,-0.0043
1348.0,-0.0043
1347.0,-0.0043
1346.0,-0.0043
1345.0,-0.0042
1344.0,-0.0042
1343.0,-0.0041
1342.0,-0.0041
1341.0,-0.0041
1340.0,-0.0041
1339.0,-0.0041
1338.0,-0.004
1337.0,-0.004
1336.0,-0.004
1335.0,-0.004
1334.0,-0.004
1333.0,-0.004
1332.0,-0.004
1331.0,-0.0039
1330.0,-0.0039
1329.0,-0.004
1328.0,-0.004
1327.0,-0.004
1326.0,-0.004
1325.0,-0.004
1324.0,-0.004
1323.0,-0.004
1322.0,-0.004
1321.0,-0.004
1320.0,-0.004
1319.0,-0.004
1318.0,-0.004
1317.0,-0.004
1316.0,-0.004
1315.0,-0.0039
1314.0,-0.0039
1313.0,-0.0039
1312.0,-0.0039
1311.0,-0.0039
1310.0,-0.0039
1309.0,-0.0039
1308.0,-0.0039
1307.0,-0.0039
1306.0,-0.0039
1305.0,-0.0039
1304.0,-0.0038
1303.0,-0.0038
1302.0,-0.0038
1301.0,-0.0038
1300.0,-0.0038
1299.0,-0.0038
1298.0,-0.0037
1297.0,-0.0037
1296.0,-0.0037
1295.0,-0.0037
1294.0,-0.0037
1293.0,-0.0037
1292.0,-0.0037
1291.0,-0.0037
1290.0,-0.0036
1289.0,-0.0036
1288.0,-0.0037
1287.0,-0.0037
1286.0,-0.0037
1285.0,-0.0037
1284.0,-0.0037
1283.0,-0.0037
1282.0,-0.0037
1281.0,-0.0036
1280.0,-0.0036
1279.0,-0.0036
1278.0,-0.0035
1277.0,-0.0035
1276.0,-0.0035
1275.0,-0.0035
1274.0,-0.0035
1273.0,-0.0035
1272.0,-0.0035
1271.0,-0.0035
1270.0,-0.0035
1269.0,-0.0035
1268.0,-0.0035
1267.0,-0.0035
1266.0,-0.0035
1265.0,-0.0035
1264.0,-0.0035
1263.0,-0.0035
1262.0,-0.0035
1261.0,-0.0034
1260.0,-0.0034
1259.0,-0.0034
1258.0,-0.0034
1257.0,-0.0033
1256.0,-0.0033
1255.0,-0.0032
1254.0,-0.0032
1253.0,-0.0031
1252.0,-0.0031
1251.0,-0.0031
1250.0,-0.0031
1249.0,-0.0031
1248.0,-0.0031
1247.0,-0.0031
1246.0,-0.0031
1245.0,-0.003
1244.0,-0.003
1243.0,-0.003
1242.0,-0.003
1241.0,-0.003
1240.0,-0.003
1239.0,-0.003
1238.0,-0.003
1237.0,-0.0029
1236.0,-0.0029
1235.0,-0.0029
1234.0,-0.0029
1233.0,-0.0029
1232.0,-0.0029
1231.0,-0.0029
1230.0,-0.0029
1229.0,-0.0028
1228.0,-0.0028
1227.0,-0.0027
1226.0,-0.0027
1225.0,-0.0026
1224.0,-0.0026
1223.0,-0.0025
1222.0,-0.0025
1221.0,-0.0025
1220.0,-0.0025
1219.0,-0.0024
1218.0,-0.0024
1217.0,-0.0024
1216.0,-0.0023
1215.0,-0.0023
1214.0,-0.0022
1213.0,-0.0022
1212.0,-0.0022
1211.0,-0.0021
1210.0,-0.0021
1209.0,-0.0021
1208.0,-0.0021
1207.0,-0.0022
1206.0,-0.0022
1205.0,-0.0022
1204.0,-0.0022
1203.0,-0.0022
1202.0,-0.0022
1201.0,-0.0021
1200.0,-0.0021
1199.0,-0.0021
1198.0,-0.0021
1197.0,-0.0021
1196.0,-0.0021
1195.0,-0.0021
1194.0,-0.0021
1193.0,-0.0022
1192.0,-0.0022
1191.0,-0.0023
1190.0,-0.0024
1189.0,-0.0024
1188.0,-0.0024
1187.0,-0.0025
1186.0,-0.0025
1185.0,-0.0026
1184.0,-0.0027
1183.0,-0.0027
1182.0,-0.0027
1181.0,-0.0028
1180.0,-0.0028
1179.0,-0.0029
1178.0,-0.0031
1177.0,-0.0031
1176.0,-0.0032
1175.0,-0.0032
1174.0,-0.0032
1173.0,-0.0033
1172.0,-0.0034
1171.0,-0.0035
1170.0,-0.0035
1169.0,-0.0035
1168.0,-0.0036
1167.0,-0.0036
1166.0,-0.0037
1165.0,-0.0037
1164.0,-0.0037
1163.0,-0.0036
1162.0,-0.0037
1161.0,-0.0037
1160.0,-0.0038
1159.0,-0.0038
1158.0,-0.0039
1157.0,-0.004
1156.0,-0.0041
1155.0,-0.0041
1154.0,-0.0042
1153.0,-0.0043
1152.0,-0.0044
1151.0,-0.0045
1150.0,-0.0046
1149.0,-0.0047
1148.0,-0.0048
1147.0,-0.005
1146.0,-0.0051
1145.0,-0.0052
1144.0,-0.0053
1143.0,-0.0054
1142.0,-0.0055
1141.0,-0.0056
1140.0,-0.0057
1139.0,-0.0058
1138.0,-0.0061
1137.0,-0.0064
1136.0,-0.0066
1135.0,-0.0069
1134.0,-0.0072
1133.0,-0.0074
1132.0,-0.0076
1131.0,-0.0079
1130.0,-0.0081
1129.0,-0.0083
1128.0,-0.0085
1127.0,-0.0088
1126.0,-0.009
1125.0,-0.0092
1124.0,-0.0094
1123.0,-0.0096
1122.0,-0.0096
1121.0,-0.0097
1120.0,-0.0096
1119.0,-0.0095
1118.0,-0.0094
1117.0,-0.0091
1116.0,-0.0088
1115.0,-0.0085
1114.0,-0.008
1113.0,-0.0076
1112.0,-0.0071
1111.0,-0.0068
1110.0,-0.0065
1109.0,-0.0063
1108.0,-0.0062
1107.0,-0.006
1106.0,-0.0058
1105.0,-0.0056
1104.0,-0.0054
1103.0,-0.0053
1102.0,-0.0052
1101.0,-0.0051
1100.0,-0.0051
1099.0,-0.005
1098.0,-0.0048
1097.0,-0.0047
1096.0,-0.0046
1095.0,-0.0045
1094.0,-0.0044
1093.0,-0.0045
1092.0,-0.0045
1091.0,-0.0046
1090.0,-0.0046
1089.0,-0.0046
1088.0,-0.0045
1087.0,-0.0045
1086.0,-0.0044
1085.0,-0.0044
1084.0,-0.0043
1083.0,-0.0042
1082.0,-0.0041
1081.0,-0.004
1080.0,-0.0039
1079.0,-0.0038
1078.0,-0.0038
1077.0,-0.0037
1076.0,-0.0036
1075.0,-0.0035
1074.0,-0.0034
1073.0,-0.0034
1072.0,-0.0033
1071.0,-0.0032
1070.0,-0.0031
1069.0,-0.003
1068.0,-0.0029
1067.0,-0.0028
1066.0,-0.0026
1065.0,-0.0025
1064.0,-0.0023
1063.0,-0.0023
1062.0,-0.0022
1061.0,-0.0021
1060.0,-0.002
1059.0,-0.0018
1058.0,-0.0017
1057.0,-0.0016
1056.0,-0.0016
1055.0,-0.0016
1054.0,-0.0016
1053.0,-0.0016
1052.0,-0.0016
1051.0,-0.0015
1050.0,-0.0015
1049.0,-0.0016
1048.0,-0.0016
1047.0,-0.0016
1046.0,-0.0017
1045.0,-0.0016
1044.0,-0.0016
1043.0,-0.0016
1042.0,-0.0016
1041.0,-0.0016
1040.0,-0.0017
1039.0,-0.0017
1038.0,-0.0017
1037.0,-0.0017
1036.0,-0.0017
1035.0,-0.0017
1034.0,-0.0016
1033.0,-0.0016
1032.0,-0.0016
1031.0,-0.0017
1030.0,-0.0017
1029.0,-0.0017
1028.0,-0.0016
1027.0,-0.0016
1026.0,-0.0016
1025.0,-0.0017
1024.0,-0.0019
1023.0,-0.0019
1022.0,-0.002
1021.0,-0.002
1020.0,-0.002
1019.0,-0.002
1018.0,-0.002
1017.0,-0.0019
1016.0,-0.0018
1015.0,-0.0018
1014.0,-0.0018
1013.0,-0.0019
1012.0,-0.0019
1011.0,-0.0019
1010.0,-0.0018
1009.0,-0.0017
1008.0,-0.0015
1007.0,-0.0012
1006.0,-0.0011
1005.0,-0.0011
1004.0,-0.0012
1003.0,-0.0015
1002.0,-0.0017
1001.0,-0.0019
1000.0,-0.002
999.0,-0.0021
998.0,-0.0022
997.0,-0.0023
996.0,-0.0023
995.0,-0.0023
994.0,-0.0023
993.0,-0.0023
992.0,-0.0023
991.0,-0.0023
990.0,-0.0024
989.0,-0.0025
988.0,-0.0025
987.0,-0.0025
986.0,-0.0025
985.0,-0.0025
984.0,-0.0025
983.0,-0.0026
982.0,-0.0027
981.0,-0.0027
980.0,-0.0027
979.0,-0.0026
978.0,-0.0026
977.0,-0.0026
976.0,-0.0027
975.0,-0.0028
974.0,-0.0028
973.0,-0.0029
972.0,-0.0029
971.0,-0.0028
970.0,-0.0028
969.0,-0.0027
968.0,-0.0028
967.0,-0.0029
966.0,-0.0029
965.0,-0.003
964.0,-0.003
963.0,-0.003
962.0,-0.003
961.0,-0.003
960.0,-0.003
959.0,-0.0031
958.0,-0.0031
957.0,-0.0031
956.0,-0.0032
955.0,-0.0032
954.0,-0.0033
953.0,-0.0034
952.0,-0.0035
951.0,-0.0036
950.0,-0.0036
949.0,-0.0036
948.0,-0.0035
947.0,-0.0035
946.0,-0.0035
945.0,-0.0035
944.0,-0.0036
943.0,-0.0036
942.0,-0.0036
941.0,-0.0036
940.0,-0.0036
939.0,-0.0036
938.0,-0.0037
937.0,-0.0038
936.0,-0.0039
935.0,-0.0039
934.0,-0.004
933.0,-0.0041
932.0,-0.0041
931.0,-0.0041
930.0,-0.0041
929.0,-0.0041
928.0,-0.0041
927.0,-0.0041
926.0,-0.0041
925.0,-0.0041
924.0,-0.0042
923.0,-0.0043
922.0,-0.0044
921.0,-0.0045
920.0,-0.0047
919.0,-0.0048
918.0,-0.0048
917.0,-0.0048
916.0,-0.0048
915.0,-0.0048
914.0,-0.0048
913.0,-0.0048
912.0,-0.0049
911.0,-0.005
910.0,-0.005
909.0,-0.0051
908.0,-0.0052
907.0,-0.0052
906.0,-0.0053
905.0,-0.0053
904.0,-0.0053
903.0,-0.0054
902.0,-0.0055
901.0,-0.0056
900.0,-0.0057
899.0,-0.0057
898.0,-0.0058
897.0,-0.0058
896.0,-0.0058
895.0,-0.0059
894.0,-0.006
893.0,-0.0061
892.0,-0.0061
891.0,-0.0062
890.0,-0.0062
889.0,-0.0063
888.0,-0.0064
887.0,-0.0065
886.0,-0.0067
885.0,-0.0068
884.0,-0.0069
883.0,-0.007
882.0,-0.007
881.0,-0.0071
880.0,-0.0072
879.0,-0.0073
878.0,-0.0073
877.0,-0.0074
876.0,-0.0074
875.0,-0.0074
874.0,-0.0074
873.0,-0.0074
872.0,-0.0076
871.0,-0.0077
870.0,-0.0078
869.0,-0.0079
868.0,-0.0079
867.0,-0.008
866.0,-0.0082
865.0,-0.0084
864.0,-0.0085
863.0,-0.0086
862.0,-0.0087
861.0,-0.0088
860.0,-0.009
859.0,-0.0091
858.0,-0.0093
857.0,-0.0094
856.0,-0.0095
855.0,-0.0095
854.0,-0.0096
853.0,-0.0096
852.0,-0.0097
851.0,-0.0097
850.0,-0.0097
849.0,-0.0098
848.0,-0.0099
847.0,-0.01
846.0,-0.0101
845.0,-0.0102
844.0,-0.0102
843.0,-0.0103
842.0,-0.0105
841.0,-0.0107
840.0,-0.011
839.0,-0.0112
838.0,-0.0114
837.0,-0.0115
836.0,-0.0114
835.0,-0.0114
834.0,-0.0114
833.0,-0.0116
832.0,-0.0119
831.0,-0.0123
830.0,-0.0126
829.0,-0.0128
828.0,-0.0128
827.0,-0.0128
826.0,-0.0128
825.0,-0.0129
824.0,-0.013
823.0,-0.0131
822.0,-0.0132
821.0,-0.0134
820.0,-0.0136
819.0,-0.0139
818.0,-0.0141
817.0,-0.0143
816.0,-0.0145
815.0,-0.0146
814.0,-0.0147
813.0,-0.0149
812.0,-0.015
811.0,-0.0152
810.0,-0.0155
809.0,-0.0157
808.0,-0.016
807.0,-0.0161
806.0,-0.0163
805.0,-0.0164
804.0,-0.0165
803.0,-0.0167
802.0,-0.017
801.0,-0.0173
800.0,-0.0175
799.0,-0.0176
798.0,-0.0177
797.0,-0.0178
796.0,-0.0178
795.0,-0.0179
794.0,-0.018
793.0,-0.0182
792.0,-0.0185
791.0,-0.019
790.0,-0.0195
789.0,-0.0199
788.0,-0.0201
787.0,-0.0203
786.0,-0.0204
785.0,-0.0204
784.0,-0.0205
783.0,-0.0206
782.0,-0.0207
781.0,-0.0209
780.0,-0.0211
779.0,-0.0214
778.0,-0.0217
777.0,-0.0219
776.0,-0.0221
775.0,-0.0225
774.0,-0.0228
773.0,-0.023
772.0,-0.023
771.0,-0.023
770.0,-0.023
769.0,-0.0233
768.0,-0.0237
767.0,-0.0242
766.0,-0.0245
765.0,-0.0246
764.0,-0.0247
763.0,-0.0247
762.0,-0.0247
761.0,-0.0247
760.0,-0.0249
759.0,-0.0252
758.0,-0.0256
757.0,-0.0259
756.0,-0.0262
755.0,-0.0263
754.0,-0.0263
753.0,-0.0265
752.0,-0.0269
751.0,-0.0273
750.0,-0.0276
749.0,-0.0277
748.0,-0.0278
747.0,-0.0278
746.0,-0.0279
745.0,-0.0281
744.0,-0.0285
743.0,-0.029
742.0,-0.0294
741.0,-0.0297
740.0,-0.0299
739.0,-0.0301
738.0,-0.0303
737.0,-0.0305
736.0,-0.0307
735.0,-0.0308
734.0,-0.0308
733.0,-0.0308
732.0,-0.031
731.0,-0.0313
730.0,-0.0318
729.0,-0.0322
728.0,-0.0324
727.0,-0.0325
726.0,-0.0325
725.0,-0.0326
724.0,-0.0327
723.0,-0.0329
722.0,-0.0332
721.0,-0.0334
720.0,-0.0335
719.0,-0.0337
718.0,-0.034
717.0,-0.0341
716.0,-0.0341
715.0,-0.0342
714.0,-0.0343
713.0,-0.0344
712.0,-0.0344
711.0,-0.0342
710.0,-0.0339
709.0,-0.0338
708.0,-0.0339
707.0,-0.034
706.0,-0.0341
705.0,-0.0341
704.0,-0.034
703.0,-0.0338
702.0,-0.0337
701.0,-0.0337
700.0,-0.0341
699.0,-0.0346
698.0,-0.0352
697.0,-0.0357
696.0,-0.0359
695.0,-0.0359
694.0,-0.0356
693.0,-0.0353
692.0,-0.0349
691.0,-0.0344
690.0,-0.0343
689.0,-0.0345
688.0,-0.0349
687.0,-0.0353
686.0,-0.0356
685.0,-0.0357
684.0,-0.0356
683.0,-0.0352
682.0,-0.035
681.0,-0.0355
680.0,-0.0363
679.0,-0.0369
678.0,-0.0368
677.0,-0.0361
676.0,-0.0352
675.0,-0.034
674.0,-0.0329
673.0,-0.0321
672.0,-0.0319
671.0,-0.032
670.0,-0.0317
669.0,-0.0308
668.0,-0.031
667.0,-0.0335
666.0,-0.0356
665.0,-0.0366
664.0,-0.037
663.0,-0.0369
662.0,-0.0364
661.0,-0.036
660.0,-0.036
659.0,-0.036
658.0,-0.0357
657.0,-0.0349
656.0,-0.0339
655.0,-0.0332
654.0,-0.033
653.0,-0.0333
652.0,-0.0339
651.0,-0.0344
650.0,-0.0345
649.0,-0.0342
648.0,-0.034
647.0,-0.0342
646.0,-0.0347
645.0,-0.0349
644.0,-0.0349
643.0,-0.0347
642.0,-0.0347
641.0,-0.035
640.0,-0.0356
639.0,-0.0363
638.0,-0.037
637.0,-0.0376
636.0,-0.0379
635.0,-0.0377
634.0,-0.037
633.0,-0.0361
632.0,-0.0355
631.0,-0.0356
630.0,-0.0363
629.0,-0.0371
628.0,-0.0374
627.0,-0.0373
626.0,-0.0369
625.0,-0.0364
624.0,-0.0358
623.0,-0.0351
622.0,-0.0345
621.0,-0.0342
620.0,-0.0343
619.0,-0.0347
618.0,-0.0351
617.0,-0.0356
616.0,-0.0359
615.0,-0.0358
614.0,-0.0355
613.0,-0.0353
612.0,-0.0353
611.0,-0.0353
610.0,-0.0352
609.0,-0.0349
608.0,-0.0348
607.0,-0.0349
606.0,-0.035
605.0,-0.0349
604.0,-0.0345
603.0,-0.0339
602.0,-0.0335
601.0,-0.034
600.0,-0.0352
