cm-1,A
4000.0,0.0026
3999.0,0.0026
3998.0,0.0026
3997.0,0.0026
3996.0,0.0026
3995.0,0.0025
3994.0,0.0025
3993.0,0.0025
3992.0,0.0026
3991.0,0.0026
3990.0,0.0027
3989.0,0.0027
3988.0,0.0027
3987.0,0.0027
3986.0,0.0026
3985.0,0.0025
3984.0,0.0024
3983.0,0.0024
3982.0,0.0023
3981.0,0.0023
3980.0,0.0024
3979.0,0.0025
3978.0,0.0026
3977.0,0.0026
3976.0,0.0026
3975.0,0.0026
3974.0,0.0026
3973.0,0.0026
3972.0,0.0026
3971.0,0.0025
3970.0,0.0025
3969.0,0.0024
3968.0,0.0025
3967.0,0.0025
3966.0,0.0025
3965.0,0.0025
3964.0,0.0025
3963.0,0.0025
3962.0,0.0024
3961.0,0.0025
3960.0,0.0025
3959.0,0.0025
3958.0,0.0025
3957.0,0.0026
3956.0,0.0026
3955.0,0.0026
3954.0,0.0025
3953.0,0.0025
3952.0,0.0024
3951.0,0.0023
3950.0,0.0023
3949.0,0.0023
3948.0,0.0023
3947.0,0.0023
3946.0,0.0023
3945.0,0.0022
3944.0,0.0023
3943.0,0.0024
3942.0,0.0025
3941.0,0.0025
3940.0,0.0025
3939.0,0.0024
3938.0,0.0024
3937.0,0.0024
3936.0,0.0024
3935.0,0.0024
3934.0,0.0025
3933.0,0.0025
3932.0,0.0026
3931.0,0.0026
3930.0,0.0026
3929.0,0.0025
3928.0,0.0025
3927.0,0.0024
3926.0,0.0024
3925.0,0.0023
3924.0,0.0022
3923.0,0.0022
3922.0,0.0023
3921.0,0.0024
3920.0,0.0025
3919.0,0.0026
3918.0,0.0026
3917.0,0.0026
3916.0,0.0026
3915.0,0.0025
3914.0,0.0025
3913.0,0.0025
3912.0,0.0024
3911.0,0.0025
3910.0,0.0025
3909.0,0.0025
3908.0,0.0025
3907.0,0.0025
3906.0,0.0025
3905.0,0.0025
3904.0,0.0025
3903.0,0.0025
3902.0,0.0024
3901.0,0.0024
3900.0,0.0024
3899.0,0.0024
3898.0,0.0025
3897.0,0.0025
3896.0,0.0026
3895.0,0.0027
3894.0,0.0027
3893.0,0.0027
3892.0,0.0027
3891.0,0.0026
3890.0,0.0026
3889.0,0.0026
3888.0,0.0025
3887.0,0.0025
3886.0,0.0026
3885.0,0.0026
3884.0,0.0027
3883.0,0.0027
3882.0,0.0027
3881.0,0.0027
3880.0,0.0026
3879.0,0.0026
3878.0,0.0026
3877.0,0.0026
3876.0,0.0026
3875.0,0.0026
3874.0,0.0027
3873.0,0.0028
3872.0,0.0028
3871.0,0.0028
3870.0,0.0027
3869.0,0.0027
3868.0,0.0027
3867.0,0.0027
3866.0,0.0026
3865.0,0.0026
3864.0,0.0025
3863.0,0.0024
3862.0,0.0025
3861.0,0.0026
3860.0,0.0027
3859.0,0.0028
3858.0,0.0028
3857.0,0.0028
3856.0,0.0027
3855.0,0.0026
3854.0,0.0026
3853.0,0.0026
3852.0,0.0026
3851.0,0.0026
3850.0,0.0026
3849.0,0.0025
3848.0,0.0025
3847.0,0.0025
3846.0,0.0026
3845.0,0.0026
3844.0,0.0027
3843.0,0.0028
3842.0,0.0028
3841.0,0.0029
3840.0,0.0029
3839.0,0.0029
3838.0,0.0029
3837.0,0.0029
3836.0,0.0029
3835.0,0.0029
3834.0,0.0029
3833.0,0.0028
3832.0,0.0027
3831.0,0.0026
3830.0,0.0026
3829.0,0.0026
3828.0,0.0027
3827.0,0.0027
3826.0,0.0027
3825.0,0.0028
3824.0,0.0028
3823.0,0.0028
3822.0,0.0027
3821.0,0.0027
3820.0,0.0027
3819.0,0.0028
3818.0,0.0029
3817.0,0.0029
3816.0,0.0029
3815.0,0.0029
3814.0,0.0029
3813.0,0.0029
3812.0,0.0029
3811.0,0.0028
3810.0,0.0027
3809.0,0.0026
3808.0,0.0025
3807.0,0.0026
3806.0,0.0028
3805.0,0.0029
3804.0,0.0031
3803.0,0.0032
3802.0,0.0032
3801.0,0.0031
3800.0,0.0029
3799.0,0.0028
3798.0,0.0027
3797.0,0.0027
3796.0,0.0027
3795.0,0.0026
3794.0,0.0026
3793.0,0.0026
3792.0,0.0026
3791.0,0.0026
3790.0,0.0026
3789.0,0.0026
3788.0,0.0026
3787.0,0.0026
3786.0,0.0026
3785.0,0.0026
3784.0,0.0027
3783.0,0.0027
3782.0,0.0028
3781.0,0.0027
3780.0,0.0027
3779.0,0.0026
3778.0,0.0026
3777.0,0.0025
3776.0,0.0025
3775.0,0.0026
3774.0,0.0027
3773.0,0.0028
3772.0,0.0029
3771.0,0.0029
3770.0,0.0029
3769.0,0.0029
3768.0,0.0028
3767.0,0.0027
3766.0,0.0027
3765.0,0.0027
3764.0,0.0026
3763.0,0.0026
3762.0,0.0025
3761.0,0.0025
3760.0,0.0025
3759.0,0.0025
3758.0,0.0025
3757.0,0.0025
3756.0,0.0025
3755.0,0.0026
3754.0,0.0027
3753.0,0.0029
3752.0,0.0032
3751.0,0.0034
3750.0,0.0034
3749.0,0.0032
3748.0,0.0031
3747.0,0.003
3746.0,0.003
3745.0,0.0031
3744.0,0.003
3743.0,0.003
3742.0,0.003
3741.0,0.003
3740.0,0.0031
3739.0,0.0032
3738.0,0.0034
3737.0,0.0035
3736.0,0.0036
3735.0,0.0036
3734.0,0.0035
3733.0,0.0035
3732.0,0.0034
3731.0,0.0034
3730.0,0.0033
3729.0,0.0032
3728.0,0.003
3727.0,0.003
3726.0,0.003
3725.0,0.003
3724.0,0.003
3723.0,0.003
3722.0,0.003
3721.0,0.003
3720.0,0.003
3719.0,0.0029
3718.0,0.0029
3717.0,0.0028
3716.0,0.0028
3715.0,0.0027
3714.0,0.0028
3713.0,0.0029
3712.0,0.003
3711.0,0.0032
3710.0,0.0032
3709.0,0.0031
3708.0,0.0031
3707.0,0.003
3706.0,0.003
3705.0,0.0029
3704.0,0.0029
3703.0,0.0029
3702.0,0.0029
3701.0,0.0029
3700.0,0.003
3699.0,0.0031
3698.0,0.0031
3697.0,0.0032
3696.0,0.0032
3695.0,0.0032
3694.0,0.0032
3693.0,0.0032
3692.0,0.0032
3691.0,0.0032
3690.0,0.0032
3689.0,0.0031
3688.0,0.0031
3687.0,0.0031
3686.0,0.003
3685.0,0.003
3684.0,0.0029
3683.0,0.0028
3682.0,0.0027
3681.0,0.0027
3680.0,0.0028
3679.0,0.0028
3678.0,0.0029
3677.0,0.0029
3676.0,0.0028
3675.0,0.0028
3674.0,0.0029
3673.0,0.0029
3672.0,0.0029
3671.0,0.0029
3670.0,0.0028
3669.0,0.0027
3668.0,0.0026
3667.0,0.0026
3666.0,0.0026
3665.0,0.0026
3664.0,0.0026
3663.0,0.0026
3662.0,0.0026
3661.0,0.0026
3660.0,0.0026
3659.0,0.0026
3658.0,0.0027
3657.0,0.0028
3656.0,0.0028
3655.0,0.0029
3654.0,0.0029
3653.0,0.0029
3652.0,0.0029
3651.0,0.0028
3650.0,0.0028
3649.0,0.0028
3648.0,0.0027
3647.0,0.0027
3646.0,0.0027
3645.0,0.0027
3644.0,0.0028
3643.0,0.0029
3642.0,0.003
3641.0,0.0029
3640.0,0.0029
3639.0,0.0029
3638.0,0.003
3637.0,0.0031
3636.0,0.0032
3635.0,0.0033
3634.0,0.0034
3633.0,0.0034
3632.0,0.0035
3631.0,0.0036
3630.0,0.0037
3629.0,0.0036
3628.0,0.0035
3627.0,0.0034
3626.0,0.0033
3625.0,0.0032
3624.0,0.0031
3623.0,0.003
3622.0,0.0029
3621.0,0.0029
3620.0,0.0029
3619.0,0.003
3618.0,0.0031
3617.0,0.0032
3616.0,0.0032
3615.0,0.0032
3614.0,0.0032
3613.0,0.0032
3612.0,0.0032
3611.0,0.0032
3610.0,0.0032
3609.0,0.0032
3608.0,0.0033
3607.0,0.0033
3606.0,0.0033
3605.0,0.0033
3604.0,0.0033
3603.0,0.0034
3602.0,0.0034
3601.0,0.0034
3600.0,0.0034
3599.0,0.0033
3598.0,0.0033
3597.0,0.0034
3596.0,0.0034
3595.0,0.0034
3594.0,0.0034
3593.0,0.0035
3592.0,0.0035
3591.0,0.0035
3590.0,0.0034
3589.0,0.0033
3588.0,0.0032
3587.0,0.0031
3586.0,0.0031
3585.0,0.0031
3584.0,0.0032
3583.0,0.0034
3582.0,0.0034
3581.0,0.0034
3580.0,0.0034
3579.0,0.0033
3578.0,0.0033
3577.0,0.0033
3576.0,0.0032
3575.0,0.0032
3574.0,0.0032
3573.0,0.0032
3572.0,0.0033
3571.0,0.0035
3570.0,0.0036
3569.0,0.0037
3568.0,0.0036
3567.0,0.0034
3566.0,0.0033
3565.0,0.0032
3564.0,0.0031
3563.0,0.0031
3562.0,0.0032
3561.0,0.0033
3560.0,0.0034
3559.0,0.0035
3558.0,0.0035
3557.0,0.0036
3556.0,0.0036
3555.0,0.0036
3554.0,0.0036
3553.0,0.0037
3552.0,0.0037
3551.0,0.0036
3550.0,0.0036
3549.0,0.0034
3548.0,0.0033
3547.0,0.0032
3546.0,0.0033
3545.0,0.0034
3544.0,0.0035
3543.0,0.0037
3542.0,0.0037
3541.0,0.0036
3540.0,0.0036
3539.0,0.0035
3538.0,0.0034
3537.0,0.0034
3536.0,0.0034
3535.0,0.0035
3534.0,0.0035
3533.0,0.0036
3532.0,0.0036
3531.0,0.0037
3530.0,0.0037
3529.0,0.0038
3528.0,0.0038
3527.0,0.0038
3526.0,0.0037
3525.0,0.0036
3524.0,0.0035
3523.0,0.0035
3522.0,0.0035
3521.0,0.0035
3520.0,0.0035
3519.0,0.0035
3518.0,0.0036
3517.0,0.0037
3516.0,0.0037
3515.0,0.0037
3514.0,0.0038
3513.0,0.0038
3512.0,0.0039
3511.0,0.0039
3510.0,0.0039
3509.0,0.0039
3508.0,0.0039
3507.0,0.0039
3506.0,0.0038
3505.0,0.0038
3504.0,0.0038
3503.0,0.0038
3502.0,0.0039
3501.0,0.0039
3500.0,0.004
3499.0,0.004
3498.0,0.0041
3497.0,0.0041
3496.0,0.0041
3495.0,0.0041
3494.0,0.004
3493.0,0.004
3492.0,0.004
3491.0,0.0041
3490.0,0.0041
3489.0,0.0042
3488.0,0.0042
3487.0,0.0042
3486.0,0.0041
3485.0,0.004
3484.0,0.004
3483.0,0.0039
3482.0,0.004
3481.0,0.004
3480.0,0.0041
3479.0,0.0042
3478.0,0.0042
3477.0,0.0042
3476.0,0.0042
3475.0,0.0041
3474.0,0.004
3473.0,0.004
3472.0,0.004
3471.0,0.004
3470.0,0.0041
3469.0,0.0042
3468.0,0.0043
3467.0,0.0044
3466.0,0.0045
3465.0,0.0045
3464.0,0.0045
3463.0,0.0044
3462.0,0.0044
3461.0,0.0044
3460.0,0.0043
3459.0,0.0042
3458.0,0.0042
3457.0,0.0043
3456.0,0.0043
3455.0,0.0044
3454.0,0.0044
3453.0,0.0044
3452.0,0.0044
3451.0,0.0045
3450.0,0.0045
3449.0,0.0045
3448.0,0.0045
3447.0,0.0045
3446.0,0.0045
3445.0,0.0045
3444.0,0.0045
3443.0,0.0044
3442.0,0.0044
3441.0,0.0044
3440.0,0.0044
3439.0,0.0044
3438.0,0.0044
3437.0,0.0045
3436.0,0.0046
3435.0,0.0047
3434.0,0.0047
3433.0,0.0048
3432.0,0.0048
3431.0,0.0048
3430.0,0.0047
3429.0,0.0046
3428.0,0.0046
3427.0,0.0046
3426.0,0.0046
3425.0,0.0046
3424.0,0.0046
3423.0,0.0046
3422.0,0.0046
3421.0,0.0046
3420.0,0.0046
3419.0,0.0046
3418.0,0.0046
3417.0,0.0047
3416.0,0.0047
3415.0,0.0047
3414.0,0.0048
3413.0,0.0048
3412.0,0.0049
3411.0,0.005
3410.0,0.005
3409.0,0.005
3408.0,0.005
3407.0,0.005
3406.0,0.0049
3405.0,0.0049
3404.0,0.0049
3403.0,0.0048
3402.0,0.0048
3401.0,0.0048
3400.0,0.0049
3399.0,0.0049
3398.0,0.0049
3397.0,0.0049
3396.0,0.005
3395.0,0.005
3394.0,0.0051
3393.0,0.0051
3392.0,0.0052
3391.0,0.0052
3390.0,0.0052
3389.0,0.0052
3388.0,0.0051
3387.0,0.005
3386.0,0.005
3385.0,0.005
3384.0,0.005
3383.0,0.005
3382.0,0.005
3381.0,0.005
3380.0,0.005
3379.0,0.005
3378.0,0.0051
3377.0,0.0051
3376.0,0.0052
3375.0,0.0052
3374.0,0.0051
3373.0,0.0051
3372.0,0.005
3371.0,0.005
3370.0,0.005
3369.0,0.0051
3368.0,0.0052
3367.0,0.0053
3366.0,0.0053
3365.0,0.0053
3364.0,0.0053
3363.0,0.0053
3362.0,0.0053
3361.0,0.0053
3360.0,0.0052
3359.0,0.0052
3358.0,0.0051
3357.0,0.0051
3356.0,0.0051
3355.0,0.0052
3354.0,0.0052
3353.0,0.0052
3352.0,0.0051
3351.0,0.0051
3350.0,0.0051
3349.0,0.0052
3348.0,0.0053
3347.0,0.0053
3346.0,0.0053
3345.0,0.0052
3344.0,0.0051
3343.0,0.005
3342.0,0.0051
3341.0,0.0051
3340.0,0.0052
3339.0,0.0053
3338.0,0.0053
3337.0,0.0053
3336.0,0.0053
3335.0,0.0052
3334.0,0.0052
3333.0,0.0052
3332.0,0.0052
3331.0,0.0053
3330.0,0.0053
3329.0,0.0054
3328.0,0.0054
3327.0,0.0055
3326.0,0.0055
3325.0,0.0055
3324.0,0.0055
3323.0,0.0055
3322.0,0.0054
3321.0,0.0053
3320.0,0.0052
3319.0,0.0051
3318.0,0.0051
3317.0,0.0051
3316.0,0.0051
3315.0,0.0052
3314.0,0.0051
3313.0,0.0051
3312.0,0.0051
3311.0,0.0051
3310.0,0.0051
3309.0,0.0051
3308.0,0.0052
3307.0,0.0051
3306.0,0.0051
3305.0,0.0051
3304.0,0.0051
3303.0,0.0052
3302.0,0.0052
3301.0,0.0052
3300.0,0.0051
3299.0,0.0051
3298.0,0.0052
3297.0,0.0052
3296.0,0.0052
3295.0,0.0051
3294.0,0.0051
3293.0,0.0051
3292.0,0.0052
3291.0,0.0051
3290.0,0.0051
3289.0,0.0051
3288.0,0.0051
3287.0,0.005
3286.0,0.005
3285.0,0.0051
3284.0,0.0051
3283.0,0.0052
3282.0,0.0052
3281.0,0.0052
3280.0,0.0052
3279.0,0.0052
3278.0,0.0052
3277.0,0.0053
3276.0,0.0053
3275.0,0.0053
3274.0,0.0053
3273.0,0.0053
3272.0,0.0052
3271.0,0.0052
3270.0,0.0052
3269.0,0.0052
3268.0,0.0053
3267.0,0.0054
3266.0,0.0055
3265.0,0.0055
3264.0,0.0055
3263.0,0.0055
3262.0,0.0054
3261.0,0.0053
3260.0,0.0052
3259.0,0.0051
3258.0,0.005
3257.0,0.0049
3256.0,0.0049
3255.0,0.0049
3254.0,0.0049
3253.0,0.005
3252.0,0.0051
3251.0,0.0051
3250.0,0.0051
3249.0,0.0051
3248.0,0.0051
3247.0,0.0051
3246.0,0.005
3245.0,0.0049
3244.0,0.0049
3243.0,0.0049
3242.0,0.005
3241.0,0.005
3240.0,0.005
3239.0,0.0049
3238.0,0.0048
3237.0,0.0048
3236.0,0.0048
3235.0,0.0048
3234.0,0.0049
3233.0,0.005
3232.0,0.005
3231.0,0.0051
3230.0,0.0051
3229.0,0.0051
3228.0,0.0052
3227.0,0.0052
3226.0,0.0051
3225.0,0.005
3224.0,0.0048
3223.0,0.0047
3222.0,0.0047
3221.0,0.0048
3220.0,0.005
3219.0,0.0051
3218.0,0.0052
3217.0,0.0052
3216.0,0.0052
3215.0,0.0051
3214.0,0.0051
3213.0,0.005
3212.0,0.0049
3211.0,0.0049
3210.0,0.005
3209.0,0.0051
3208.0,0.0051
3207.0,0.0051
3206.0,0.0051
3205.0,0.0051
3204.0,0.005
3203.0,0.0049
3202.0,0.0048
3201.0,0.0047
3200.0,0.0046
3199.0,0.0046
3198.0,0.0046
3197.0,0.0047
3196.0,0.0047
3195.0,0.0048
3194.0,0.0049
3193.0,0.0049
3192.0,0.0049
3191.0,0.005
3190.0,0.005
3189.0,0.005
3188.0,0.0049
3187.0,0.0048
3186.0,0.0048
3185.0,0.0047
3184.0,0.0047
3183.0,0.0047
3182.0,0.0048
3181.0,0.0048
3180.0,0.0048
3179.0,0.0049
3178.0,0.0049
3177.0,0.0049
3176.0,0.0049
3175.0,0.0049
3174.0,0.0048
3173.0,0.0047
3172.0,0.0047
3171.0,0.0047
3170.0,0.0047
3169.0,0.0047
3168.0,0.0046
3167.0,0.0046
3166.0,0.0045
3165.0,0.0045
3164.0,0.0045
3163.0,0.0045
3162.0,0.0045
3161.0,0.0045
3160.0,0.0044
3159.0,0.0044
3158.0,0.0043
3157.0,0.0043
3156.0,0.0043
3155.0,0.0043
3154.0,0.0043
3153.0,0.0043
3152.0,0.0044
3151.0,0.0044
3150.0,0.0044
3149.0,0.0043
3148.0,0.0043
3147.0,0.0043
3146.0,0.0044
3145.0,0.0044
3144.0,0.0044
3143.0,0.0044
3142.0,0.0043
3141.0,0.0043
3140.0,0.0043
3139.0,0.0044
3138.0,0.0044
3137.0,0.0044
3136.0,0.0044
3135.0,0.0044
3134.0,0.0044
3133.0,0.0045
3132.0,0.0046
3131.0,0.0047
3130.0,0.0047
3129.0,0.0046
3128.0,0.0045
3127.0,0.0044
3126.0,0.0044
3125.0,0.0043
3124.0,0.0043
3123.0,0.0043
3122.0,0.0043
3121.0,0.0043
3120.0,0.0043
3119.0,0.0043
3118.0,0.0043
3117.0,0.0043
3116.0,0.0043
3115.0,0.0043
3114.0,0.0043
3113.0,0.0043
3112.0,0.0043
3111.0,0.0043
3110.0,0.0043
3109.0,0.0043
3108.0,0.0043
3107.0,0.0043
3106.0,0.0043
3105.0,0.0043
3104.0,0.0042
3103.0,0.0042
3102.0,0.0043
3101.0,0.0043
3100.0,0.0043
3099.0,0.0043
3098.0,0.0043
3097.0,0.0043
3096.0,0.0042
3095.0,0.0042
3094.0,0.0042
3093.0,0.0042
3092.0,0.0041
3091.0,0.0041
3090.0,0.0041
3089.0,0.004
3088.0,0.004
3087.0,0.004
3086.0,0.004
3085.0,0.004
3084.0,0.0041
3083.0,0.0041
3082.0,0.0041
3081.0,0.0041
3080.0,0.0041
3079.0,0.0042
3078.0,0.0042
3077.0,0.0041
3076.0,0.004
3075.0,0.004
3074.0,0.0039
3073.0,0.0039
3072.0,0.0039
3071.0,0.0039
3070.0,0.004
3069.0,0.004
3068.0,0.004
3067.0,0.0039
3066.0,0.0039
3065.0,0.0038
3064.0,0.0038
3063.0,0.0038
3062.0,0.0039
3061.0,0.0039
3060.0,0.004
3059.0,0.004
3058.0,0.004
3057.0,0.004
3056.0,0.004
3055.0,0.004
3054.0,0.004
3053.0,0.004
3052.0,0.004
3051.0,0.004
3050.0,0.004
3049.0,0.004
3048.0,0.0039
3047.0,0.0039
3046.0,0.0038
3045.0,0.0039
3044.0,0.0039
3043.0,0.004
3042.0,0.004
3041.0,0.0039
3040.0,0.0039
3039.0,0.0038
3038.0,0.0037
3037.0,0.0037
3036.0,0.0038
3035.0,0.0038
3034.0,0.0039
3033.0,0.0039
3032.0,0.0038
3031.0,0.0037
3030.0,0.0037
3029.0,0.0037
3028.0,0.0037
3027.0,0.0038
3026.0,0.0038
3025.0,0.0039
3024.0,0.0038
3023.0,0.0038
3022.0,0.0038
3021.0,0.0037
3020.0,0.0036
3019.0,0.0037
3018.0,0.0037
3017.0,0.0038
3016.0,0.0038
3015.0,0.0038
3014.0,0.0038
3013.0,0.0038
3012.0,0.0037
3011.0,0.0037
3010.0,0.0037
3009.0,0.0037
3008.0,0.0038
3007.0,0.0038
3006.0,0.0038
3005.0,0.0038
3004.0,0.0038
3003.0,0.0037
3002.0,0.0038
3001.0,0.0038
3000.0,0.0039
2999.0,0.0039
2998.0,0.0039
2997.0,0.0038
2996.0,0.0038
2995.0,0.0037
2994.0,0.0037
2993.0,0.0037
2992.0,0.0037
2991.0,0.0037
2990.0,0.0037
2989.0,0.0038
2988.0,0.0038
2987.0,0.0038
2986.0,0.0038
2985.0,0.0038
2984.0,0.0038
2983.0,0.0038
2982.0,0.0038
2981.0,0.0038
2980.0,0.0037
2979.0,0.0037
2978.0,0.0037
2977.0,0.0037
2976.0,0.0037
2975.0,0.0036
2974.0,0.0036
2973.0,0.0036
2972.0,0.0037
2971.0,0.0037
2970.0,0.0037
2969.0,0.0037
2968.0,0.0038
2967.0,0.0038
2966.0,0.0038
2965.0,0.0038
2964.0,0.0038
2963.0,0.0037
2962.0,0.0036
2961.0,0.0036
2960.0,0.0037
2959.0,0.0037
2958.0,0.0038
2957.0,0.0038
2956.0,0.0038
2955.0,0.0038
2954.0,0.0038
2953.0,0.0038
2952.0,0.0038
2951.0,0.0037
2950.0,0.0037
2949.0,0.0037
2948.0,0.0037
2947.0,0.0037
2946.0,0.0037
2945.0,0.0037
2944.0,0.0037
2943.0,0.0037
2942.0,0.0037
2941.0,0.0037
2940.0,0.0037
2939.0,0.0037
2938.0,0.0037
2937.0,0.0038
2936.0,0.0038
2935.0,0.0038
2934.0,0.0038
2933.0,0.0038
2932.0,0.0039
2931.0,0.0039
2930.0,0.004
2929.0,0.004
2928.0,0.004
2927.0,0.004
2926.0,0.004
2925.0,0.0039
2924.0,0.0039
2923.0,0.004
2922.0,0.004
2921.0,0.0041
2920.0,0.0041
2919.0,0.0041
2918.0,0.0041
2917.0,0.004
2916.0,0.004
2915.0,0.0039
2914.0,0.0039
2913.0,0.0038
2912.0,0.0038
2911.0,0.0038
2910.0,0.0038
2909.0,0.0039
2908.0,0.004
2907.0,0.004
2906.0,0.0039
2905.0,0.0038
2904.0,0.0038
2903.0,0.0037
2902.0,0.0037
2901.0,0.0037
2900.0,0.0038
2899.0,0.0038
2898.0,0.0038
2897.0,0.0038
2896.0,0.0038
2895.0,0.0039
2894.0,0.0039
2893.0,0.0038
2892.0,0.0038
2891.0,0.0038
2890.0,0.0037
2889.0,0.0037
2888.0,0.0037
2887.0,0.0037
2886.0,0.0037
2885.0,0.0038
2884.0,0.0038
2883.0,0.0038
2882.0,0.0038
2881.0,0.0038
2880.0,0.0038
2879.0,0.0038
2878.0,0.0038
2877.0,0.0038
2876.0,0.0038
2875.0,0.0037
2874.0,0.0037
2873.0,0.0036
2872.0,0.0036
2871.0,0.0036
2870.0,0.0036
2869.0,0.0037
2868.0,0.0037
2867.0,0.0037
2866.0,0.0037
2865.0,0.0037
2864.0,0.0037
2863.0,0.0037
2862.0,0.0037
2861.0,0.0037
2860.0,0.0037
2859.0,0.0038
2858.0,0.0038
2857.0,0.0038
2856.0,0.0038
2855.0,0.0038
2854.0,0.0038
2853.0,0.0038
2852.0,0.0038
2851.0,0.0037
2850.0,0.0038
2849.0,0.0038
2848.0,0.0039
2847.0,0.0039
2846.0,0.0039
2845.0,0.0038
2844.0,0.0038
2843.0,0.0038
2842.0,0.0037
2841.0,0.0037
2840.0,0.0037
2839.0,0.0037
2838.0,0.0037
2837.0,0.0037
2836.0,0.0038
2835.0,0.0038
2834.0,0.0038
2833.0,0.0038
2832.0,0.0037
2831.0,0.0037
2830.0,0.0037
2829.0,0.0037
2828.0,0.0037
2827.0,0.0037
2826.0,0.0036
2825.0,0.0036
2824.0,0.0036
2823.0,0.0036
2822.0,0.0036
2821.0,0.0036
2820.0,0.0036
2819.0,0.0036
2818.0,0.0036
2817.0,0.0036
2816.0,0.0036
2815.0,0.0036
2814.0,0.0036
2813.0,0.0036
2812.0,0.0036
2811.0,0.0036
2810.0,0.0036
2809.0,0.0037
2808.0,0.0038
2807.0,0.0037
2806.0,0.0037
2805.0,0.0036
2804.0,0.0036
2803.0,0.0035
2802.0,0.0035
2801.0,0.0035
2800.0,0.0035
2799.0,0.0035
2798.0,0.0035
2797.0,0.0035
2796.0,0.0035
2795.0,0.0036
2794.0,0.0036
2793.0,0.0036
2792.0,0.0036
2791.0,0.0036
2790.0,0.0036
2789.0,0.0036
2788.0,0.0036
2787.0,0.0036
2786.0,0.0037
2785.0,0.0037
2784.0,0.0037
2783.0,0.0037
2782.0,0.0037
2781.0,0.0036
2780.0,0.0036
2779.0,0.0035
2778.0,0.0035
2777.0,0.0035
2776.0,0.0035
2775.0,0.0035
2774.0,0.0035
2773.0,0.0036
2772.0,0.0036
2771.0,0.0036
2770.0,0.0036
2769.0,0.0035
2768.0,0.0035
2767.0,0.0035
2766.0,0.0035
2765.0,0.0034
2764.0,0.0034
2763.0,0.0034
2762.0,0.0035
2761.0,0.0035
2760.0,0.0036
2759.0,0.0036
2758.0,0.0036
2757.0,0.0036
2756.0,0.0035
2755.0,0.0035
2754.0,0.0035
2753.0,0.0035
2752.0,0.0035
2751.0,0.0035
2750.0,0.0036
2749.0,0.0036
2748.0,0.0036
2747.0,0.0036
2746.0,0.0036
2745.0,0.0036
2744.0,0.0036
2743.0,0.0036
2742.0,0.0036
2741.0,0.0036
2740.0,0.0036
2739.0,0.0036
2738.0,0.0036
2737.0,0.0036
2736.0,0.0036
2735.0,0.0036
2734.0,0.0035
2733.0,0.0034
2732.0,0.0034
2731.0,0.0035
2730.0,0.0035
2729.0,0.0036
2728.0,0.0036
2727.0,0.0036
2726.0,0.0036
2725.0,0.0036
2724.0,0.0036
2723.0,0.0035
2722.0,0.0035
2721.0,0.0035
2720.0,0.0035
2719.0,0.0036
2718.0,0.0037
2717.0,0.0037
2716.0,0.0037
2715.0,0.0036
2714.0,0.0035
2713.0,0.0035
2712.0,0.0035
2711.0,0.0035
2710.0,0.0036
2709.0,0.0036
2708.0,0.0036
2707.0,0.0036
2706.0,0.0036
2705.0,0.0037
2704.0,0.0037
2703.0,0.0038
2702.0,0.0038
2701.0,0.0037
2700.0,0.0037
2699.0,0.0037
2698.0,0.0036
2697.0,0.0036
2696.0,0.0036
2695.0,0.0036
2694.0,0.0036
2693.0,0.0036
2692.0,0.0036
2691.0,0.0036
2690.0,0.0036
2689.0,0.0036
2688.0,0.0036
2687.0,0.0036
2686.0,0.0036
2685.0,0.0036
2684.0,0.0036
2683.0,0.0036
2682.0,0.0036
2681.0,0.0036
2680.0,0.0036
2679.0,0.0035
2678.0,0.0035
2677.0,0.0035
2676.0,0.0035
2675.0,0.0035
2674.0,0.0035
2673.0,0.0035
2672.0,0.0035
2671.0,0.0035
2670.0,0.0036
2669.0,0.0036
2668.0,0.0037
2667.0,0.0037
2666.0,0.0037
2665.0,0.0037
2664.0,0.0036
2663.0,0.0036
2662.0,0.0036
2661.0,0.0036
2660.0,0.0037
2659.0,0.0037
2658.0,0.0037
2657.0,0.0037
2656.0,0.0036
2655.0,0.0036
2654.0,0.0037
2653.0,0.0037
2652.0,0.0036
2651.0,0.0036
2650.0,0.0036
2649.0,0.0036
2648.0,0.0036
2647.0,0.0036
2646.0,0.0036
2645.0,0.0036
2644.0,0.0035
2643.0,0.0035
2642.0,0.0035
2641.0,0.0035
2640.0,0.0036
2639.0,0.0036
2638.0,0.0036
2637.0,0.0035
2636.0,0.0035
2635.0,0.0036
2634.0,0.0036
2633.0,0.0037
2632.0,0.0037
2631.0,0.0037
2630.0,0.0037
2629.0,0.0037
2628.0,0.0036
2627.0,0.0036
2626.0,0.0036
2625.0,0.0036
2624.0,0.0036
2623.0,0.0036
2622.0,0.0036
2621.0,0.0036
2620.0,0.0036
2619.0,0.0036
2618.0,0.0036
2617.0,0.0036
2616.0,0.0036
2615.0,0.0036
2614.0,0.0037
2613.0,0.0037
2612.0,0.0037
2611.0,0.0037
2610.0,0.0036
2609.0,0.0036
2608.0,0.0036
2607.0,0.0036
2606.0,0.0036
2605.0,0.0035
2604.0,0.0035
2603.0,0.0035
2602.0,0.0034
2601.0,0.0035
2600.0,0.0035
2599.0,0.0035
2598.0,0.0035
2597.0,0.0035
2596.0,0.0036
2595.0,0.0035
2594.0,0.0035
2593.0,0.0035
2592.0,0.0034
2591.0,0.0034
2590.0,0.0034
2589.0,0.0034
2588.0,0.0035
2587.0,0.0035
2586.0,0.0036
2585.0,0.0036
2584.0,0.0037
2583.0,0.0037
2582.0,0.0037
2581.0,0.0037
2580.0,0.0036
2579.0,0.0036
2578.0,0.0035
2577.0,0.0035
2576.0,0.0035
2575.0,0.0035
2574.0,0.0035
2573.0,0.0034
2572.0,0.0034
2571.0,0.0034
2570.0,0.0034
2569.0,0.0034
2568.0,0.0034
2567.0,0.0034
2566.0,0.0034
2565.0,0.0035
2564.0,0.0035
2563.0,0.0035
2562.0,0.0035
2561.0,0.0035
2560.0,0.0035
2559.0,0.0035
2558.0,0.0034
2557.0,0.0034
2556.0,0.0035
2555.0,0.0035
2554.0,0.0035
2553.0,0.0035
2552.0,0.0035
2551.0,0.0035
2550.0,0.0035
2549.0,0.0036
2548.0,0.0036
2547.0,0.0036
2546.0,0.0035
2545.0,0.0035
2544.0,0.0036
2543.0,0.0036
2542.0,0.0036
2541.0,0.0035
2540.0,0.0035
2539.0,0.0034
2538.0,0.0034
2537.0,0.0035
2536.0,0.0035
2535.0,0.0035
2534.0,0.0036
2533.0,0.0036
2532.0,0.0037
2531.0,0.0037
2530.0,0.0037
2529.0,0.0036
2528.0,0.0036
2527.0,0.0036
2526.0,0.0036
2525.0,0.0036
2524.0,0.0036
2523.0,0.0036
2522.0,0.0036
2521.0,0.0036
2520.0,0.0036
2519.0,0.0036
2518.0,0.0036
2517.0,0.0035
2516.0,0.0035
2515.0,0.0036
2514.0,0.0036
2513.0,0.0037
2512.0,0.0037
2511.0,0.0037
2510.0,0.0037
2509.0,0.0037
2508.0,0.0037
2507.0,0.0037
2506.0,0.0036
2505.0,0.0036
2504.0,0.0036
2503.0,0.0036
2502.0,0.0036
2501.0,0.0036
2500.0,0.0036
2499.0,0.0037
2498.0,0.0036
2497.0,0.0036
2496.0,0.0035
2495.0,0.0035
2494.0,0.0035
2493.0,0.0035
2492.0,0.0036
2491.0,0.0036
2490.0,0.0036
2489.0,0.0036
2488.0,0.0035
2487.0,0.0035
2486.0,0.0036
2485.0,0.0036
2484.0,0.0036
2483.0,0.0036
2482.0,0.0036
2481.0,0.0036
2480.0,0.0036
2479.0,0.0036
2478.0,0.0036
2477.0,0.0036
2476.0,0.0036
2475.0,0.0037
2474.0,0.0037
2473.0,0.0036
2472.0,0.0036
2471.0,0.0036
2470.0,0.0036
2469.0,0.0036
2468.0,0.0036
2467.0,0.0035
2466.0,0.0035
2465.0,0.0035
2464.0,0.0036
2463.0,0.0036
2462.0,0.0036
2461.0,0.0036
2460.0,0.0036
2459.0,0.0036
2458.0,0.0036
2457.0,0.0036
2456.0,0.0036
2455.0,0.0036
2454.0,0.0036
2453.0,0.0036
2452.0,0.0037
2451.0,0.0037
2450.0,0.0037
2449.0,0.0037
2448.0,0.0037
2447.0,0.0036
2446.0,0.0036
2445.0,0.0036
2444.0,0.0036
2443.0,0.0037
2442.0,0.0037
2441.0,0.0037
2440.0,0.0036
2439.0,0.0036
2438.0,0.0035
2437.0,0.0035
2436.0,0.0035
2435.0,0.0036
2434.0,0.0036
2433.0,0.0037
2432.0,0.0037
2431.0,0.0037
2430.0,0.0037
2429.0,0.0036
2428.0,0.0035
2427.0,0.0035
2426.0,0.0035
2425.0,0.0036
2424.0,0.0036
2423.0,0.0036
2422.0,0.0036
2421.0,0.0036
2420.0,0.0036
2419.0,0.0036
2418.0,0.0036
2417.0,0.0036
2416.0,0.0036
2415.0,0.0036
2414.0,0.0037
2413.0,0.0037
2412.0,0.0037
2411.0,0.0037
2410.0,0.0036
2409.0,0.0036
2408.0,0.0035
2407.0,0.0035
2406.0,0.0035
2405.0,0.0036
2404.0,0.0036
2403.0,0.0036
2402.0,0.0036
2401.0,0.0036
2400.0,0.0036
2399.0,0.0036
2398.0,0.0036
2397.0,0.0037
2396.0,0.0037
2395.0,0.0037
2394.0,0.0037
2393.0,0.0037
2392.0,0.0037
2391.0,0.0038
2390.0,0.0039
2389.0,0.004
2388.0,0.004
2387.0,0.0041
2386.0,0.0041
2385.0,0.0043
2384.0,0.0046
2383.0,0.0049
2382.0,0.0051
2381.0,0.0051
2380.0,0.005
2379.0,0.0049
2378.0,0.0049
2377.0,0.0049
2376.0,0.0049
2375.0,0.0051
2374.0,0.0054
2373.0,0.0055
2372.0,0.0055
2371.0,0.0054
2370.0,0.0054
2369.0,0.0056
2368.0,0.006
2367.0,0.0062
2366.0,0.0061
2365.0,0.0054
2364.0,0.0046
2363.0,0.0043
2362.0,0.0049
2361.0,0.006
2360.0,0.007
2359.0,0.0077
2358.0,0.008
2357.0,0.0076
2356.0,0.0069
2355.0,0.0064
2354.0,0.0063
2353.0,0.0063
2352.0,0.0063
2351.0,0.0063
2350.0,0.0064
2349.0,0.0064
2348.0,0.0064
2347.0,0.0064
2346.0,0.0067
2345.0,0.0072
2344.0,0.0078
2343.0,0.0083
2342.0,0.0083
2341.0,0.0077
2340.0,0.0068
2339.0,0.0062
2338.0,0.0057
2337.0,0.0053
2336.0,0.0051
2335.0,0.005
2334.0,0.0054
2333.0,0.006
2332.0,0.0066
2331.0,0.0069
2330.0,0.0068
2329.0,0.0066
2328.0,0.0063
2327.0,0.006
2326.0,0.0057
2325.0,0.0055
2324.0,0.0054
2323.0,0.0055
2322.0,0.0056
2321.0,0.0057
2320.0,0.0058
2319.0,0.0057
2318.0,0.0057
2317.0,0.0056
2316.0,0.0056
2315.0,0.0055
2314.0,0.0055
2313.0,0.0056
2312.0,0.0057
2311.0,0.0059
2310.0,0.006
2309.0,0.0059
2308.0,0.0058
2307.0,0.0056
2306.0,0.0055
2305.0,0.0054
2304.0,0.0053
2303.0,0.0053
2302.0,0.0052
2301.0,0.0052
2300.0,0.0052
2299.0,0.0051
2298.0,0.005
2297.0,0.005
2296.0,0.0049
2295.0,0.0049
2294.0,0.0048
2293.0,0.0047
2292.0,0.0045
2291.0,0.0045
2290.0,0.0044
2289.0,0.0043
2288.0,0.0043
2287.0,0.0042
2286.0,0.0041
2285.0,0.0041
2284.0,0.0041
2283.0,0.0041
2282.0,0.0041
2281.0,0.0041
2280.0,0.0042
2279.0,0.0041
2278.0,0.0041
2277.0,0.0041
2276.0,0.004
2275.0,0.004
2274.0,0.004
2273.0,0.0041
2272.0,0.0041
2271.0,0.0041
2270.0,0.0041
2269.0,0.0041
2268.0,0.0041
2267.0,0.0041
2266.0,0.004
2265.0,0.004
2264.0,0.0039
2263.0,0.0039
2262.0,0.0039
2261.0,0.004
2260.0,0.004
2259.0,0.004
2258.0,0.004
2257.0,0.004
2256.0,0.004
2255.0,0.0039
2254.0,0.0039
2253.0,0.0039
2252.0,0.0039
2251.0,0.0039
2250.0,0.0039
2249.0,0.0039
2248.0,0.0039
2247.0,0.0039
2246.0,0.0038
2245.0,0.0038
2244.0,0.0037
2243.0,0.0037
2242.0,0.0037
2241.0,0.0037
2240.0,0.0038
2239.0,0.0038
2238.0,0.0039
2237.0,0.0039
2236.0,0.0039
2235.0,0.0039
2234.0,0.0039
2233.0,0.0039
2232.0,0.0039
2231.0,0.0038
2230.0,0.0038
2229.0,0.0038
2228.0,0.0038
2227.0,0.0038
2226.0,0.0037
2225.0,0.0037
2224.0,0.0037
2223.0,0.0037
2222.0,0.0038
2221.0,0.0038
2220.0,0.0039
2219.0,0.0039
2218.0,0.0038
2217.0,0.0038
2216.0,0.0038
2215.0,0.0038
2214.0,0.0038
2213.0,0.0037
2212.0,0.0036
2211.0,0.0036
2210.0,0.0036
2209.0,0.0037
2208.0,0.0037
2207.0,0.0038
2206.0,0.0038
2205.0,0.0038
2204.0,0.0038
2203.0,0.0038
2202.0,0.0038
2201.0,0.0038
2200.0,0.0038
2199.0,0.0038
2198.0,0.0038
2197.0,0.0038
2196.0,0.0038
2195.0,0.0038
2194.0,0.0038
2193.0,0.0038
2192.0,0.0038
2191.0,0.0038
2190.0,0.0038
2189.0,0.0038
2188.0,0.0038
2187.0,0.0038
2186.0,0.0038
2185.0,0.0038
2184.0,0.0039
2183.0,0.0038
2182.0,0.0038
2181.0,0.0038
2180.0,0.0037
2179.0,0.0037
2178.0,0.0037
2177.0,0.0037
2176.0,0.0037
2175.0,0.0038
2174.0,0.0038
2173.0,0.0038
2172.0,0.0038
2171.0,0.0038
2170.0,0.0038
2169.0,0.0038
2168.0,0.0038
2167.0,0.0038
2166.0,0.0038
2165.0,0.0038
2164.0,0.0038
2163.0,0.0038
2162.0,0.0038
2161.0,0.0038
2160.0,0.0038
2159.0,0.0038
2158.0,0.0038
2157.0,0.0038
2156.0,0.0039
2155.0,0.0039
2154.0,0.0039
2153.0,0.0039
2152.0,0.0039
2151.0,0.0039
2150.0,0.0039
2149.0,0.0039
2148.0,0.0038
2147.0,0.0038
2146.0,0.0038
2145.0,0.0038
2144.0,0.0039
2143.0,0.0039
2142.0,0.0039
2141.0,0.0038
2140.0,0.0038
2139.0,0.0038
2138.0,0.0038
2137.0,0.0038
2136.0,0.0039
2135.0,0.0039
2134.0,0.0039
2133.0,0.0039
2132.0,0.0039
2131.0,0.0039
2130.0,0.0039
2129.0,0.0039
2128.0,0.0038
2127.0,0.0038
2126.0,0.0038
2125.0,0.0038
2124.0,0.0038
2123.0,0.0038
2122.0,0.0037
2121.0,0.0037
2120.0,0.0037
2119.0,0.0037
2118.0,0.0037
2117.0,0.0037
2116.0,0.0038
2115.0,0.0038
2114.0,0.0039
2113.0,0.0039
2112.0,0.0038
2111.0,0.0038
2110.0,0.0038
2109.0,0.0038
2108.0,0.0038
2107.0,0.0038
2106.0,0.0037
2105.0,0.0037
2104.0,0.0037
2103.0,0.0038
2102.0,0.0038
2101.0,0.0038
2100.0,0.0039
2099.0,0.0039
2098.0,0.0039
2097.0,0.0039
2096.0,0.0038
2095.0,0.0038
2094.0,0.0038
2093.0,0.0038
2092.0,0.0038
2091.0,0.0039
2090.0,0.0039
2089.0,0.0039
2088.0,0.004
2087.0,0.004
2086.0,0.004
2085.0,0.0039
2084.0,0.0039
2083.0,0.0038
2082.0,0.0038
2081.0,0.0038
2080.0,0.0039
2079.0,0.0039
2078.0,0.004
2077.0,0.0039
2076.0,0.0039
2075.0,0.0039
2074.0,0.0039
2073.0,0.0039
2072.0,0.0039
2071.0,0.0039
2070.0,0.0039
2069.0,0.0039
2068.0,0.0039
2067.0,0.0038
2066.0,0.0038
2065.0,0.0038
2064.0,0.0038
2063.0,0.0038
2062.0,0.0038
2061.0,0.0039
2060.0,0.0039
2059.0,0.0039
2058.0,0.0039
2057.0,0.0039
2056.0,0.0039
2055.0,0.0039
2054.0,0.0039
2053.0,0.0038
2052.0,0.0038
2051.0,0.0038
2050.0,0.0038
2049.0,0.0038
2048.0,0.0038
2047.0,0.0038
2046.0,0.0038
2045.0,0.0038
2044.0,0.0038
2043.0,0.0038
2042.0,0.0038
2041.0,0.0038
2040.0,0.0038
2039.0,0.0038
2038.0,0.0038
2037.0,0.0039
2036.0,0.0039
2035.0,0.0038
2034.0,0.0038
2033.0,0.0038
2032.0,0.0038
2031.0,0.0038
2030.0,0.0039
2029.0,0.0039
2028.0,0.0039
2027.0,0.0039
2026.0,0.0039
2025.0,0.0039
2024.0,0.0039
2023.0,0.0039
2022.0,0.0039
2021.0,0.0039
2020.0,0.0038
2019.0,0.0038
2018.0,0.0038
2017.0,0.0038
2016.0,0.0038
2015.0,0.0039
2014.0,0.0039
2013.0,0.0039
2012.0,0.0038
2011.0,0.0038
2010.0,0.0038
2009.0,0.0038
2008.0,0.0039
2007.0,0.0039
2006.0,0.0039
2005.0,0.0039
2004.0,0.0039
2003.0,0.0039
2002.0,0.0039
2001.0,0.0039
2000.0,0.0039
1999.0,0.0039
1998.0,0.0039
1997.0,0.0039
1996.0,0.0039
1995.0,0.0038
1994.0,0.0038
1993.0,0.0038
1992.0,0.0038
1991.0,0.0039
1990.0,0.0039
1989.0,0.0039
1988.0,0.0039
1987.0,0.0039
1986.0,0.0039
1985.0,0.0038
1984.0,0.0038
1983.0,0.0038
1982.0,0.0038
1981.0,0.0038
1980.0,0.0038
1979.0,0.0038
1978.0,0.0038
1977.0,0.0038
1976.0,0.0038
1975.0,0.0038
1974.0,0.0038
1973.0,0.0039
1972.0,0.0039
1971.0,0.0039
1970.0,0.0039
1969.0,0.0039
1968.0,0.0039
1967.0,0.0039
1966.0,0.0038
1965.0,0.0038
1964.0,0.0038
1963.0,0.0038
1962.0,0.0038
1961.0,0.0037
1960.0,0.0037
1959.0,0.0037
1958.0,0.0037
1957.0,0.0038
1956.0,0.0038
1955.0,0.0038
1954.0,0.0038
1953.0,0.0038
1952.0,0.0038
1951.0,0.0038
1950.0,0.0038
1949.0,0.0037
1948.0,0.0037
1947.0,0.0037
1946.0,0.0037
1945.0,0.0037
1944.0,0.0037
1943.0,0.0038
1942.0,0.0039
1941.0,0.0039
1940.0,0.0039
1939.0,0.0039
1938.0,0.0039
1937.0,0.0039
1936.0,0.0039
1935.0,0.0039
1934.0,0.0039
1933.0,0.0038
1932.0,0.0038
1931.0,0.0038
1930.0,0.0038
1929.0,0.0038
1928.0,0.0038
1927.0,0.0038
1926.0,0.0039
1925.0,0.0039
1924.0,0.0038
1923.0,0.0038
1922.0,0.0038
1921.0,0.0038
1920.0,0.0037
1919.0,0.0037
1918.0,0.0037
1917.0,0.0037
1916.0,0.0038
1915.0,0.0038
1914.0,0.0038
1913.0,0.0038
1912.0,0.0038
1911.0,0.0038
1910.0,0.0038
1909.0,0.0038
1908.0,0.0037
1907.0,0.0037
1906.0,0.0037
1905.0,0.0038
1904.0,0.0038
1903.0,0.0038
1902.0,0.0038
1901.0,0.0038
1900.0,0.0038
1899.0,0.0038
1898.0,0.0038
1897.0,0.0038
1896.0,0.0038
1895.0,0.0039
1894.0,0.0039
1893.0,0.0039
1892.0,0.0039
1891.0,0.0039
1890.0,0.0039
1889.0,0.0039
1888.0,0.0039
1887.0,0.0039
1886.0,0.0038
1885.0,0.0038
1884.0,0.0038
1883.0,0.0038
1882.0,0.0038
1881.0,0.0038
1880.0,0.0038
1879.0,0.0038
1878.0,0.0038
1877.0,0.0039
1876.0,0.0039
1875.0,0.0038
1874.0,0.0038
1873.0,0.0038
1872.0,0.0038
1871.0,0.0038
1870.0,0.0038
1869.0,0.0038
1868.0,0.0038
1867.0,0.0038
1866.0,0.0038
1865.0,0.0038
1864.0,0.0038
1863.0,0.0038
1862.0,0.0038
1861.0,0.0038
1860.0,0.0038
1859.0,0.0038
1858.0,0.0037
1857.0,0.0037
1856.0,0.0038
1855.0,0.0038
1854.0,0.0038
1853.0,0.0038
1852.0,0.0038
1851.0,0.0038
1850.0,0.0038
1849.0,0.0038
1848.0,0.0037
1847.0,0.0038
1846.0,0.0038
1845.0,0.0039
1844.0,0.0039
1843.0,0.0039
1842.0,0.0038
1841.0,0.0038
1840.0,0.0038
1839.0,0.0037
1838.0,0.0037
1837.0,0.0038
1836.0,0.0038
1835.0,0.0038
1834.0,0.0038
1833.0,0.0038
1832.0,0.0038
1831.0,0.0038
1830.0,0.0037
1829.0,0.0037
1828.0,0.0037
1827.0,0.0037
1826.0,0.0038
1825.0,0.0038
1824.0,0.0039
1823.0,0.0039
1822.0,0.0038
1821.0,0.0038
1820.0,0.0038
1819.0,0.0038
1818.0,0.0038
1817.0,0.0038
1816.0,0.0038
1815.0,0.0038
1814.0,0.0039
1813.0,0.0039
1812.0,0.0039
1811.0,0.0039
1810.0,0.0039
1809.0,0.0039
1808.0,0.0039
1807.0,0.0039
1806.0,0.0039
1805.0,0.0039
1804.0,0.0039
1803.0,0.0039
1802.0,0.0039
1801.0,0.0039
1800.0,0.0038
1799.0,0.0038
1798.0,0.0039
1797.0,0.0039
1796.0,0.004
1795.0,0.004
1794.0,0.004
1793.0,0.004
1792.0,0.0039
1791.0,0.0039
1790.0,0.004
1789.0,0.004
1788.0,0.004
1787.0,0.004
1786.0,0.004
1785.0,0.004
1784.0,0.004
1783.0,0.0041
1782.0,0.0042
1781.0,0.0043
1780.0,0.0044
1779.0,0.0045
1778.0,0.0045
1777.0,0.0045
1776.0,0.0045
1775.0,0.0045
1774.0,0.0045
1773.0,0.0045
1772.0,0.0046
1771.0,0.0046
1770.0,0.0046
1769.0,0.0047
1768.0,0.0047
1767.0,0.0048
1766.0,0.0048
1765.0,0.0049
1764.0,0.005
1763.0,0.0051
1762.0,0.0052
1761.0,0.0052
1760.0,0.0052
1759.0,0.0052
1758.0,0.0052
1757.0,0.0053
1756.0,0.0054
1755.0,0.0054
1754.0,0.0054
1753.0,0.0054
1752.0,0.0055
1751.0,0.0055
1750.0,0.0055
1749.0,0.0054
1748.0,0.0054
1747.0,0.0054
1746.0,0.0055
1745.0,0.0055
1744.0,0.0055
1743.0,0.0054
1742.0,0.0054
1741.0,0.0053
1740.0,0.0052
1739.0,0.0052
1738.0,0.0051
1737.0,0.0051
1736.0,0.0051
1735.0,0.0052
1734.0,0.0051
1733.0,0.005
1732.0,0.0049
1731.0,0.0048
1730.0,0.0048
1729.0,0.0048
1728.0,0.0048
1727.0,0.0048
1726.0,0.0048
1725.0,0.0048
1724.0,0.0047
1723.0,0.0046
1722.0,0.0046
1721.0,0.0046
1720.0,0.0045
1719.0,0.0045
1718.0,0.0045
1717.0,0.0046
1716.0,0.0046
1715.0,0.0047
1714.0,0.0047
1713.0,0.0047
1712.0,0.0046
1711.0,0.0046
1710.0,0.0045
1709.0,0.0045
1708.0,0.0045
1707.0,0.0045
1706.0,0.0045
1705.0,0.0046
1704.0,0.0046
1703.0,0.0046
1702.0,0.0046
1701.0,0.0046
1700.0,0.0046
1699.0,0.0045
1698.0,0.0045
1697.0,0.0045
1696.0,0.0045
1695.0,0.0045
1694.0,0.0045
1693.0,0.0045
1692.0,0.0044
1691.0,0.0044
1690.0,0.0044
1689.0,0.0044
1688.0,0.0044
1687.0,0.0044
1686.0,0.0044
1685.0,0.0044
1684.0,0.0044
1683.0,0.0044
1682.0,0.0045
1681.0,0.0046
1680.0,0.0047
1679.0,0.0048
1678.0,0.0048
1677.0,0.0049
1676.0,0.0049
1675.0,0.0049
1674.0,0.0049
1673.0,0.0048
1672.0,0.0048
1671.0,0.0048
1670.0,0.0048
1669.0,0.0049
1668.0,0.005
1667.0,0.0051
1666.0,0.0052
1665.0,0.0052
1664.0,0.0053
1663.0,0.0053
1662.0,0.0053
1661.0,0.0053
1660.0,0.0053
1659.0,0.0053
1658.0,0.0054
1657.0,0.0055
1656.0,0.0055
1655.0,0.0056
1654.0,0.0057
1653.0,0.0058
1652.0,0.0057
1651.0,0.0058
1650.0,0.0058
1649.0,0.0059
1648.0,0.006
1647.0,0.0061
1646.0,0.0061
1645.0,0.0061
1644.0,0.0061
1643.0,0.0061
1642.0,0.0061
1641.0,0.0061
1640.0,0.0061
1639.0,0.0061
1638.0,0.0062
1637.0,0.0062
1636.0,0.0062
1635.0,0.0061
1634.0,0.006
1633.0,0.0059
1632.0,0.0058
1631.0,0.0058
1630.0,0.0057
1629.0,0.0057
1628.0,0.0056
1627.0,0.0056
1626.0,0.0055
1625.0,0.0055
1624.0,0.0055
1623.0,0.0054
1622.0,0.0054
1621.0,0.0054
1620.0,0.0054
1619.0,0.0054
1618.0,0.0054
1617.0,0.0054
1616.0,0.0054
1615.0,0.0053
1614.0,0.0052
1613.0,0.0052
1612.0,0.0051
1611.0,0.0051
1610.0,0.0051
1609.0,0.0052
1608.0,0.0052
1607.0,0.0052
1606.0,0.0052
1605.0,0.0051
1604.0,0.0051
1603.0,0.0051
1602.0,0.005
1601.0,0.005
1600.0,0.005
1599.0,0.005
1598.0,0.005
1597.0,0.005
1596.0,0.0049
1595.0,0.0049
1594.0,0.0049
1593.0,0.0049
1592.0,0.0049
1591.0,0.0049
1590.0,0.0049
1589.0,0.0049
1588.0,0.0049
1587.0,0.0049
1586.0,0.0049
1585.0,0.0048
1584.0,0.0048
1583.0,0.0048
1582.0,0.0048
1581.0,0.0047
1580.0,0.0047
1579.0,0.0047
1578.0,0.0046
1577.0,0.0046
1576.0,0.0045
1575.0,0.0045
1574.0,0.0045
1573.0,0.0045
1572.0,0.0045
1571.0,0.0046
1570.0,0.0046
1569.0,0.0046
1568.0,0.0046
1567.0,0.0046
1566.0,0.0046
1565.0,0.0046
1564.0,0.0046
1563.0,0.0045
1562.0,0.0044
1561.0,0.0043
1560.0,0.0042
1559.0,0.0043
1558.0,0.0044
1557.0,0.0045
1556.0,0.0045
1555.0,0.0045
1554.0,0.0045
1553.0,0.0044
1552.0,0.0044
1551.0,0.0044
1550.0,0.0044
1549.0,0.0044
1548.0,0.0044
1547.0,0.0044
1546.0,0.0044
1545.0,0.0045
1544.0,0.0046
1543.0,0.0046
1542.0,0.0047
1541.0,0.0047
1540.0,0.0047
1539.0,0.0045
1538.0,0.0045
1537.0,0.0044
1536.0,0.0044
1535.0,0.0044
1534.0,0.0044
1533.0,0.0044
1532.0,0.0044
1531.0,0.0044
1530.0,0.0044
1529.0,0.0044
1528.0,0.0043
1527.0,0.0043
1526.0,0.0043
1525.0,0.0042
1524.0,0.0042
1523.0,0.0042
1522.0,0.0042
1521.0,0.0042
1520.0,0.0043
1519.0,0.0044
1518.0,0.0044
1517.0,0.0044
1516.0,0.0043
1515.0,0.0043
1514.0,0.0043
1513.0,0.0043
1512.0,0.0043
1511.0,0.0044
1510.0,0.0044
1509.0,0.0044
1508.0,0.0044
1507.0,0.0043
1506.0,0.0042
1505.0,0.0042
1504.0,0.0042
1503.0,0.0043
1502.0,0.0043
1501.0,0.0043
1500.0,0.0043
1499.0,0.0043
1498.0,0.0043
1497.0,0.0043
1496.0,0.0043
1495.0,0.0044
1494.0,0.0044
1493.0,0.0043
1492.0,0.0043
1491.0,0.0043
1490.0,0.0044
1489.0,0.0044
1488.0,0.0044
1487.0,0.0044
1486.0,0.0043
1485.0,0.0043
1484.0,0.0043
1483.0,0.0043
1482.0,0.0044
1481.0,0.0044
1480.0,0.0044
1479.0,0.0044
1478.0,0.0045
1477.0,0.0045
1476.0,0.0045
1475.0,0.0044
1474.0,0.0045
1473.0,0.0045
1472.0,0.0046
1471.0,0.0046
1470.0,0.0046
1469.0,0.0046
1468.0,0.0046
1467.0,0.0047
1466.0,0.0048
1465.0,0.0049
1464.0,0.005
1463.0,0.0051
1462.0,0.0051
1461.0,0.0051
1460.0,0.0051
1459.0,0.0051
1458.0,0.0051
1457.0,0.0052
1456.0,0.0053
1455.0,0.0053
1454.0,0.0054
1453.0,0.0054
1452.0,0.0055
1451.0,0.0055
1450.0,0.0055
1449.0,0.0055
1448.0,0.0055
1447.0,0.0054
1446.0,0.0054
1445.0,0.0053
1444.0,0.0053
1443.0,0.0052
1442.0,0.0051
1441.0,0.0051
1440.0,0.0051
1439.0,0.0051
1438.0,0.005
1437.0,0.005
1436.0,0.0049
1435.0,0.0049
1434.0,0.0049
1433.0,0.0048
1432.0,0.0048
1431.0,0.0048
1430.0,0.0048
1429.0,0.0047
1428.0,0.0047
1427.0,0.0047
1426.0,0.0047
1425.0,0.0046
1424.0,0.0046
1423.0,0.0046
1422.0,0.0046
1421.0,0.0046
1420.0,0.0045
1419.0,0.0045
1418.0,0.0045
1417.0,0.0044
1416.0,0.0044
1415.0,0.0044
1414.0,0.0044
1413.0,0.0044
1412.0,0.0044
1411.0,0.0044
1410.0,0.0044
1409.0,0.0044
1408.0,0.0044
1407.0,0.0044
1406.0,0.0044
1405.0,0.0044
1404.0,0.0044
1403.0,0.0044
1402.0,0.0043
1401.0,0.0043
1400.0,0.0043
1399.0,0.0043
1398.0,0.0043
1397.0,0.0044
1396.0,0.0045
1395.0,0.0046
1394.0,0.0047
1393.0,0.0047
1392.0,0.0048
1391.0,0.0048
1390.0,0.0049
1389.0,0.0049
1388.0,0.0049
1387.0,0.005
1386.0,0.005
1385.0,0.0051
1384.0,0.0052
1383.0,0.0052
1382.0,0.0053
1381.0,0.0053
1380.0,0.0053
1379.0,0.0053
1378.0,0.0053
1377.0,0.0053
1376.0,0.0053
1375.0,0.0053
1374.0,0.0053
1373.0,0.0053
1372.0,0.0053
1371.0,0.0054
1370.0,0.0054
1369.0,0.0055
1368.0,0.0055
1367.0,0.0055
1366.0,0.0054
1365.0,0.0054
1364.0,0.0054
1363.0,0.0055
1362.0,0.0055
1361.0,0.0055
1360.0,0.0055
1359.0,0.0054
1358.0,0.0054
1357.0,0.0054
1356.0,0.0053
1355.0,0.0053
1354.0,0.0053
1353.0,0.0053
1352.0,0.0052
1351.0,0.0052
1350.0,0.0052
1349.0,0.0052
1348.0,0.0052
1347.0,0.0051
1346.0,0.0051
1345.0,0.005
1344.0,0.005
1343.0,0.0049
1342.0,0.0048
1341.0,0.0048
1340.0,0.0048
1339.0,0.0048
1338.0,0.0049
1337.0,0.0049
1336.0,0.0049
1335.0,0.0048
1334.0,0.0048
1333.0,0.0048
1332.0,0.0048
1331.0,0.0047
1330.0,0.0047
1329.0,0.0047
1328.0,0.0047
1327.0,0.0047
1326.0,0.0047
1325.0,0.0047
1324.0,0.0046
1323.0,0.0046
1322.0,0.0046
1321.0,0.0046
1320.0,0.0046
1319.0,0.0046
1318.0,0.0047
1317.0,0.0047
1316.0,0.0047
1315.0,0.0047
1314.0,0.0047
1313.0,0.0047
1312.0,0.0047
1311.0,0.0047
1310.0,0.0047
1309.0,0.0047
1308.0,0.0046
1307.0,0.0046
1306.0,0.0047
1305.0,0.0047
1304.0,0.0047
1303.0,0.0047
1302.0,0.0047
1301.0,0.0047
1300.0,0.0048
1299.0,0.0047
1298.0,0.0047
1297.0,0.0047
1296.0,0.0046
1295.0,0.0046
1294.0,0.0046
1293.0,0.0046
1292.0,0.0045
1291.0,0.0045
1290.0,0.0045
1289.0,0.0045
1288.0,0.0045
1287.0,0.0046
1286.0,0.0046
1285.0,0.0047
1284.0,0.0048
1283.0,0.0048
1282.0,0.0048
1281.0,0.0049
1280.0,0.0049
1279.0,0.005
1278.0,0.005
1277.0,0.0051
1276.0,0.0051
1275.0,0.0052
1274.0,0.0053
1273.0,0.0054
1272.0,0.0054
1271.0,0.0054
1270.0,0.0054
1269.0,0.0054
1268.0,0.0054
1267.0,0.0055
1266.0,0.0055
1265.0,0.0055
1264.0,0.0055
1263.0,0.0055
1262.0,0.0056
1261.0,0.0056
1260.0,0.0056
1259.0,0.0056
1258.0,0.0056
1257.0,0.0056
1256.0,0.0056
1255.0,0.0056
1254.0,0.0057
1253.0,0.0057
1252.0,0.0057
1251.0,0.0057
1250.0,0.0057
1249.0,0.0056
1248.0,0.0056
1247.0,0.0056
1246.0,0.0056
1245.0,0.0057
1244.0,0.0057
1243.0,0.0057
1242.0,0.0057
1241.0,0.0057
1240.0,0.0057
1239.0,0.0058
1238.0,0.0058
1237.0,0.0059
1236.0,0.0059
1235.0,0.0059
1234.0,0.006
1233.0,0.006
1232.0,0.0061
1231.0,0.0061
1230.0,0.0061
1229.0,0.0062
1228.0,0.0062
1227.0,0.0063
1226.0,0.0064
1225.0,0.0065
1224.0,0.0067
1223.0,0.0069
1222.0,0.007
1221.0,0.0071
1220.0,0.0071
1219.0,0.0072
1218.0,0.0073
1217.0,0.0074
1216.0,0.0075
1215.0,0.0076
1214.0,0.0077
1213.0,0.0077
1212.0,0.0077
1211.0,0.0077
1210.0,0.0078
1209.0,0.0078
1208.0,0.0079
1207.0,0.0079
1206.0,0.008
1205.0,0.0081
1204.0,0.0082
1203.0,0.0083
1202.0,0.0083
1201.0,0.0083
1200.0,0.0084
1199.0,0.0085
1198.0,0.0087
1197.0,0.0088
1196.0,0.0089
1195.0,0.009
1194.0,0.0092
1193.0,0.0093
1192.0,0.0095
1191.0,0.0097
1190.0,0.0099
1189.0,0.0102
1188.0,0.0104
1187.0,0.0105
1186.0,0.0107
1185.0,0.0109
1184.0,0.0111
1183.0,0.0112
1182.0,0.0114
1181.0,0.0115
1180.0,0.0115
1179.0,0.0115
1178.0,0.0114
1177.0,0.0114
1176.0,0.0113
1175.0,0.0112
1174.0,0.0111
1173.0,0.011
1172.0,0.0108
1171.0,0.0106
1170.0,0.0104
1169.0,0.0101
1168.0,0.0099
1167.0,0.0097
1166.0,0.0095
1165.0,0.0094
1164.0,0.0093
1163.0,0.0091
1162.0,0.009
1161.0,0.0089
1160.0,0.0088
1159.0,0.0087
1158.0,0.0086
1157.0,0.0086
1156.0,0.0085
1155.0,0.0085
1154.0,0.0085
1153.0,0.0085
1152.0,0.0085
1151.0,0.0085
1150.0,0.0086
1149.0,0.0086
1148.0,0.0088
1147.0,0.0089
1146.0,0.0092
1145.0,0.0095
1144.0,0.0098
1143.0,0.0101
1142.0,0.0104
1141.0,0.0107
1140.0,0.0111
1139.0,0.0115
1138.0,0.0119
1137.0,0.0123
1136.0,0.0126
1135.0,0.0129
1134.0,0.0131
1133.0,0.0133
1132.0,0.0135
1131.0,0.0137
1130.0,0.0138
1129.0,0.0139
1128.0,0.014
1127.0,0.0141
1126.0,0.0141
1125.0,0.0142
1124.0,0.0142
1123.0,0.0141
1122.0,0.014
1121.0,0.0138
1120.0,0.0137
1119.0,0.0137
1118.0,0.0136
1117.0,0.0135
1116.0,0.0134
1115.0,0.0133
1114.0,0.0132
1113.0,0.0133
1112.0,0.0134
1111.0,0.0135
1110.0,0.0135
1109.0,0.0137
1108.0,0.0138
1107.0,0.014
1106.0,0.0142
1105.0,0.0144
1104.0,0.0146
1103.0,0.0148
1102.0,0.015
1101.0,0.0152
1100.0,0.0153
1099.0,0.0155
1098.0,0.0157
1097.0,0.0159
1096.0,0.016
1095.0,0.0162
1094.0,0.0162
1093.0,0.0163
1092.0,0.0164
1091.0,0.0165
1090.0,0.0166
1089.0,0.0167
1088.0,0.0167
1087.0,0.0169
1086.0,0.017
1085.0,0.0172
1084.0,0.0173
1083.0,0.0174
1082.0,0.0174
1081.0,0.0173
1080.0,0.0173
1079.0,0.0173
1078.0,0.0173
1077.0,0.0173
1076.0,0.0173
1075.0,0.0172
1074.0,0.0171
1073.0,0.017
1072.0,0.0169
1071.0,0.0167
1070.0,0.0165
1069.0,0.0163
1068.0,0.0161
1067.0,0.0159
1066.0,0.0158
1065.0,0.0156
1064.0,0.0154
1063.0,0.0152
1062.0,0.015
1061.0,0.0149
1060.0,0.0147
1059.0,0.0145
1058.0,0.0144
1057.0,0.0142
1056.0,0.0142
1055.0,0.0142
1054.0,0.0142
1053.0,0.0142
1052.0,0.0143
1051.0,0.0143
1050.0,0.0143
1049.0,0.0143
1048.0,0.0143
1047.0,0.0144
1046.0,0.0144
1045.0,0.0145
1044.0,0.0145
1043.0,0.0146
1042.0,0.0147
1041.0,0.0147
1040.0,0.0146
1039.0,0.0144
1038.0,0.0143
1037.0,0.0142
1036.0,0.0141
1035.0,0.0141
1034.0,0.014
1033.0,0.0139
1032.0,0.0139
1031.0,0.0139
1030.0,0.0138
1029.0,0.0138
1028.0,0.0137
1027.0,0.0137
1026.0,0.0136
1025.0,0.0136
1024.0,0.0135
1023.0,0.0134
1022.0,0.0134
1021.0,0.0134
1020.0,0.0133
1019.0,0.0133
1018.0,0.0133
1017.0,0.0132
1016.0,0.0132
1015.0,0.0131
1014.0,0.013
1013.0,0.0129
1012.0,0.0128
1011.0,0.0128
1010.0,0.0127
1009.0,0.0126
1008.0,0.0126
1007.0,0.0124
1006.0,0.0123
1005.0,0.0122
1004.0,0.0121
1003.0,0.0121
1002.0,0.012
1001.0,0.012
1000.0,0.0119
999.0,0.0119
998.0,0.0118
997.0,0.0117
996.0,0.0116
995.0,0.0114
994.0,0.0113
993.0,0.0113
992.0,0.0114
991.0,0.0114
990.0,0.0114
989.0,0.0114
988.0,0.0113
987.0,0.0113
986.0,0.0113
985.0,0.0113
984.0,0.0112
983.0,0.0112
982.0,0.0111
981.0,0.011
980.0,0.011
979.0,0.011
978.0,0.011
977.0,0.011
976.0,0.0109
975.0,0.0109
974.0,0.0108
973.0,0.0108
972.0,0.0107
971.0,0.0107
970.0,0.0106
969.0,0.0106
968.0,0.0106
967.0,0.0106
966.0,0.0105
965.0,0.0104
964.0,0.0104
963.0,0.0103
962.0,0.0103
961.0,0.0103
960.0,0.0104
959.0,0.0104
958.0,0.0104
957.0,0.0105
956.0,0.0105
955.0,0.0105
954.0,0.0105
953.0,0.0105
952.0,0.0104
951.0,0.0104
950.0,0.0103
949.0,0.0103
948.0,0.0103
947.0,0.0104
946.0,0.0103
945.0,0.0103
944.0,0.0103
943.0,0.0103
942.0,0.0104
941.0,0.0103
940.0,0.0103
939.0,0.0102
938.0,0.0102
937.0,0.0102
936.0,0.0102
935.0,0.0103
934.0,0.0103
933.0,0.0104
932.0,0.0104
931.0,0.0104
930.0,0.0105
929.0,0.0104
928.0,0.0103
927.0,0.0102
926.0,0.01
925.0,0.0099
924.0,0.0098
923.0,0.0098
922.0,0.0099
921.0,0.01
920.0,0.01
919.0,0.0101
918.0,0.0101
917.0,0.0102
916.0,0.0102
915.0,0.0101
914.0,0.0101
913.0,0.01
912.0,0.01
911.0,0.0099
910.0,0.0099
909.0,0.0099
908.0,0.01
907.0,0.01
906.0,0.01
905.0,0.0099
904.0,0.0098
903.0,0.0098
902.0,0.0099
901.0,0.01
900.0,0.0101
899.0,0.0101
898.0,0.0101
897.0,0.01
896.0,0.01
895.0,0.01
894.0,0.01
893.0,0.0099
892.0,0.0099
891.0,0.0099
890.0,0.0099
889.0,0.0099
888.0,0.0099
887.0,0.0099
886.0,0.0098
885.0,0.0098
884.0,0.0098
883.0,0.0097
882.0,0.0097
881.0,0.0097
880.0,0.0097
879.0,0.0098
878.0,0.01
877.0,0.0102
876.0,0.0103
875.0,0.0104
874.0,0.0106
873.0,0.0108
872.0,0.0109
871.0,0.011
870.0,0.011
869.0,0.011
868.0,0.0111
867.0,0.0112
866.0,0.0113
865.0,0.0113
864.0,0.0113
863.0,0.0114
862.0,0.0114
861.0,0.0115
860.0,0.0115
859.0,0.0115
858.0,0.0114
857.0,0.0113
856.0,0.0112
855.0,0.0111
854.0,0.011
853.0,0.0108
852.0,0.0107
851.0,0.0106
850.0,0.0105
849.0,0.0105
848.0,0.0105
847.0,0.0106
846.0,0.0107
845.0,0.0107
844.0,0.0106
843.0,0.0105
842.0,0.0104
841.0,0.0104
840.0,0.0105
839.0,0.0106
838.0,0.0107
837.0,0.0106
836.0,0.0105
835.0,0.0104
834.0,0.0104
833.0,0.0104
832.0,0.0105
831.0,0.0105
830.0,0.0105
829.0,0.0105
828.0,0.0105
827.0,0.0104
826.0,0.0103
825.0,0.0102
824.0,0.0101
823.0,0.0101
822.0,0.0103
821.0,0.0105
820.0,0.0106
819.0,0.0106
818.0,0.0104
817.0,0.0103
816.0,0.0101
815.0,0.0101
814.0,0.0101
813.0,0.0101
812.0,0.0102
811.0,0.0102
810.0,0.0103
809.0,0.0103
808.0,0.0103
807.0,0.0103
806.0,0.0103
805.0,0.0104
804.0,0.0104
803.0,0.0104
802.0,0.0104
801.0,0.0103
800.0,0.0103
799.0,0.0104
798.0,0.0105
797.0,0.0105
796.0,0.0105
795.0,0.0105
794.0,0.0104
793.0,0.0104
792.0,0.0105
791.0,0.0105
790.0,0.0105
789.0,0.0105
788.0,0.0104
787.0,0.0104
786.0,0.0104
785.0,0.0105
784.0,0.0107
783.0,0.0107
782.0,0.0108
781.0,0.0108
780.0,0.0107
779.0,0.0107
778.0,0.0107
777.0,0.0109
776.0,0.0111
775.0,0.0113
774.0,0.0114
773.0,0.0114
772.0,0.0113
771.0,0.0112
770.0,0.0111
769.0,0.0112
768.0,0.0113
767.0,0.0114
766.0,0.0115
765.0,0.0116
764.0,0.0118
763.0,0.0121
762.0,0.0122
761.0,0.0124
760.0,0.0126
759.0,0.0127
758.0,0.0129
757.0,0.0131
756.0,0.0134
755.0,0.0137
754.0,0.0139
753.0,0.0139
752.0,0.0139
751.0,0.0139
750.0,0.0139
749.0,0.0141
748.0,0.0142
747.0,0.0142
746.0,0.014
745.0,0.0138
744.0,0.0137
743.0,0.0136
742.0,0.0136
741.0,0.0137
740.0,0.0137
739.0,0.0137
738.0,0.0137
737.0,0.0137
736.0,0.0136
735.0,0.0136
734.0,0.0135
733.0,0.0135
732.0,0.0135
731.0,0.0134
730.0,0.0132
729.0,0.0131
728.0,0.013
727.0,0.0128
726.0,0.0127
725.0,0.0128
724.0,0.0129
723.0,0.0132
722.0,0.0134
721.0,0.0135
720.0,0.0136
719.0,0.0135
718.0,0.0133
717.0,0.0131
716.0,0.013
715.0,0.0131
714.0,0.0132
713.0,0.0134
712.0,0.0137
711.0,0.0141
710.0,0.0144
709.0,0.0145
708.0,0.0144
707.0,0.0144
706.0,0.0144
705.0,0.0146
704.0,0.0148
703.0,0.0149
702.0,0.015
701.0,0.0151
700.0,0.0152
699.0,0.0152
698.0,0.0152
697.0,0.0153
696.0,0.0152
695.0,0.015
694.0,0.0148
693.0,0.0147
692.0,0.0149
691.0,0.0151
690.0,0.0153
689.0,0.0157
688.0,0.0159
687.0,0.016
686.0,0.0158
685.0,0.0158
684.0,0.0158
683.0,0.016
682.0,0.0163
681.0,0.0168
680.0,0.0173
679.0,0.0175
678.0,0.0171
677.0,0.0166
676.0,0.0162
675.0,0.0162
674.0,0.0165
673.0,0.0169
672.0,0.0172
671.0,0.0171
670.0,0.0165
669.0,0.0157
668.0,0.0144
667.0,0.014
666.0,0.0151
665.0,0.0166
664.0,0.0175
663.0,0.0178
662.0,0.0176
661.0,0.0173
660.0,0.0171
659.0,0.0169
658.0,0.0169
657.0,0.0171
656.0,0.0173
655.0,0.0174
654.0,0.0173
653.0,0.0171
652.0,0.0169
651.0,0.0169
650.0,0.017
649.0,0.0173
648.0,0.0177
647.0,0.0182
646.0,0.0184
645.0,0.0182
644.0,0.0177
643.0,0.0171
642.0,0.017
641.0,0.0177
640.0,0.0185
639.0,0.0189
638.0,0.0186
637.0,0.0182
636.0,0.0179
635.0,0.0179
634.0,0.0181
633.0,0.0184
632.0,0.0185
631.0,0.0187
630.0,0.019
629.0,0.0193
628.0,0.0196
627.0,0.0197
626.0,0.0197
625.0,0.0197
624.0,0.0195
623.0,0.019
622.0,0.0184
621.0,0.0181
620.0,0.0183
619.0,0.0188
618.0,0.0191
617.0,0.0191
616.0,0.0189
615.0,0.0187
614.0,0.0185
613.0,0.0182
612.0,0.0179
611.0,0.0177
610.0,0.018
609.0,0.0185
608.0,0.0186
607.0,0.0179
606.0,0.0165
605.0,0.015
604.0,0.0143
603.0,0.0147
602.0,0.0161
601.0,0.0178
600.0,0.019
