cm-1,A
4000.0,-0.0041
3999.0,-0.0041
3998.0,-0.0041
3997.0,-0.0041
3996.0,-0.0041
3995.0,-0.0041
3994.0,-0.0041
3993.0,-0.0042
3992.0,-0.0041
3991.0,-0.0041
3990.0,-0.004
3989.0,-0.004
3988.0,-0.0039
3987.0,-0.0039
3986.0,-0.004
3985.0,-0.0041
3984.0,-0.0041
3983.0,-0.0041
3982.0,-0.004
3981.0,-0.004
3980.0,-0.0039
3979.0,-0.0039
3978.0,-0.0039
3977.0,-0.004
3976.0,-0.0041
3975.0,-0.0042
3974.0,-0.0042
3973.0,-0.0042
3972.0,-0.0042
3971.0,-0.0042
3970.0,-0.0042
3969.0,-0.0042
3968.0,-0.0042
3967.0,-0.0042
3966.0,-0.0043
3965.0,-0.0043
3964.0,-0.0042
3963.0,-0.0041
3962.0,-0.004
3961.0,-0.0039
3960.0,-0.0039
3959.0,-0.0039
3958.0,-0.004
3957.0,-0.004
3956.0,-0.004
3955.0,-0.0041
3954.0,-0.0042
3953.0,-0.0042
3952.0,-0.0042
3951.0,-0.0042
3950.0,-0.0041
3949.0,-0.0041
3948.0,-0.0041
3947.0,-0.0041
3946.0,-0.0042
3945.0,-0.0042
3944.0,-0.0041
3943.0,-0.0041
3942.0,-0.004
3941.0,-0.004
3940.0,-0.0039
3939.0,-0.0039
3938.0,-0.0039
3937.0,-0.0039
3936.0,-0.004
3935.0,-0.004
3934.0,-0.0041
3933.0,-0.0041
3932.0,-0.004
3931.0,-0.0039
3930.0,-0.0038
3929.0,-0.0038
3928.0,-0.0038
3927.0,-0.0038
3926.0,-0.0038
3925.0,-0.0038
3924.0,-0.0038
3923.0,-0.0039
3922.0,-0.004
3921.0,-0.0041
3920.0,-0.0042
3919.0,-0.0043
3918.0,-0.0043
3917.0,-0.0043
3916.0,-0.0042
3915.0,-0.0041
3914.0,-0.0041
3913.0,-0.004
3912.0,-0.0039
3911.0,-0.0038
3910.0,-0.0038
3909.0,-0.0038
3908.0,-0.0039
3907.0,-0.004
3906.0,-0.0041
3905.0,-0.0043
3904.0,-0.0044
3903.0,-0.0044
3902.0,-0.0043
3901.0,-0.0042
3900.0,-0.004
3899.0,-0.0039
3898.0,-0.0039
3897.0,-0.0039
3896.0,-0.0039
3895.0,-0.0039
3894.0,-0.004
3893.0,-0.004
3892.0,-0.004
3891.0,-0.004
3890.0,-0.0041
3889.0,-0.0041
3888.0,-0.0041
3887.0,-0.0041
3886.0,-0.0042
3885.0,-0.0041
3884.0,-0.0041
3883.0,-0.004
3882.0,-0.0039
3881.0,-0.0039
3880.0,-0.0039
3879.0,-0.0039
3878.0,-0.004
3877.0,-0.004
3876.0,-0.004
3875.0,-0.004
3874.0,-0.0039
3873.0,-0.0039
3872.0,-0.0038
3871.0,-0.0038
3870.0,-0.0038
3869.0,-0.0039
3868.0,-0.0039
3867.0,-0.0039
3866.0,-0.0038
3865.0,-0.0038
3864.0,-0.0038
3863.0,-0.0038
3862.0,-0.0039
3861.0,-0.004
3860.0,-0.004
3859.0,-0.004
3858.0,-0.004
3857.0,-0.004
3856.0,-0.004
3855.0,-0.0039
3854.0,-0.0039
3853.0,-0.0038
3852.0,-0.0037
3851.0,-0.0037
3850.0,-0.0037
3849.0,-0.0037
3848.0,-0.0038
3847.0,-0.0039
3846.0,-0.0039
3845.0,-0.0039
3844.0,-0.0039
3843.0,-0.0039
3842.0,-0.0039
3841.0,-0.0039
3840.0,-0.0039
3839.0,-0.0039
3838.0,-0.0038
3837.0,-0.0039
3836.0,-0.0039
3835.0,-0.004
3834.0,-0.0039
3833.0,-0.0039
3832.0,-0.0038
3831.0,-0.0038
3830.0,-0.0038
3829.0,-0.0039
3828.0,-0.0039
3827.0,-0.004
3826.0,-0.004
3825.0,-0.004
3824.0,-0.004
3823.0,-0.004
3822.0,-0.004
3821.0,-0.004
3820.0,-0.0039
3819.0,-0.0039
3818.0,-0.0039
3817.0,-0.0038
3816.0,-0.0038
3815.0,-0.0038
3814.0,-0.0038
3813.0,-0.0039
3812.0,-0.0039
3811.0,-0.0039
3810.0,-0.004
3809.0,-0.004
3808.0,-0.0039
3807.0,-0.0038
3806.0,-0.0038
3805.0,-0.0038
3804.0,-0.0039
3803.0,-0.004
3802.0,-0.004
3801.0,-0.0039
3800.0,-0.0039
3799.0,-0.0039
3798.0,-0.0039
3797.0,-0.0038
3796.0,-0.0038
3795.0,-0.0038
3794.0,-0.0039
3793.0,-0.0039
3792.0,-0.004
3791.0,-0.004
3790.0,-0.0039
3789.0,-0.0038
3788.0,-0.0037
3787.0,-0.0037
3786.0,-0.0037
3785.0,-0.0036
3784.0,-0.0036
3783.0,-0.0036
3782.0,-0.0036
3781.0,-0.0036
3780.0,-0.0036
3779.0,-0.0036
3778.0,-0.0036
3777.0,-0.0036
3776.0,-0.0036
3775.0,-0.0036
3774.0,-0.0037
3773.0,-0.0038
3772.0,-0.004
3771.0,-0.004
3770.0,-0.0039
3769.0,-0.0038
3768.0,-0.0037
3767.0,-0.0037
3766.0,-0.0037
3765.0,-0.0037
3764.0,-0.0038
3763.0,-0.0038
3762.0,-0.0039
3761.0,-0.0039
3760.0,-0.0039
3759.0,-0.0038
3758.0,-0.0037
3757.0,-0.0036
3756.0,-0.0036
3755.0,-0.0036
3754.0,-0.0037
3753.0,-0.0038
3752.0,-0.004
3751.0,-0.0042
3750.0,-0.0044
3749.0,-0.0046
3748.0,-0.0047
3747.0,-0.0048
3746.0,-0.0048
3745.0,-0.0048
3744.0,-0.0048
3743.0,-0.0048
3742.0,-0.0048
3741.0,-0.0047
3740.0,-0.0047
3739.0,-0.0047
3738.0,-0.0048
3737.0,-0.005
3736.0,-0.0052
3735.0,-0.0053
3734.0,-0.0054
3733.0,-0.0055
3732.0,-0.0056
3731.0,-0.0056
3730.0,-0.0057
3729.0,-0.0057
3728.0,-0.0058
3727.0,-0.0058
3726.0,-0.0056
3725.0,-0.0054
3724.0,-0.0052
3723.0,-0.0049
3722.0,-0.0047
3721.0,-0.0045
3720.0,-0.0043
3719.0,-0.0042
3718.0,-0.0041
3717.0,-0.004
3716.0,-0.0041
3715.0,-0.0042
3714.0,-0.0046
3713.0,-0.005
3712.0,-0.0053
3711.0,-0.0054
3710.0,-0.0053
3709.0,-0.0053
3708.0,-0.0052
3707.0,-0.0052
3706.0,-0.0052
3705.0,-0.0052
3704.0,-0.0052
3703.0,-0.0051
3702.0,-0.005
3701.0,-0.0048
3700.0,-0.0047
3699.0,-0.0046
3698.0,-0.0046
3697.0,-0.0047
3696.0,-0.0047
3695.0,-0.0047
3694.0,-0.0048
3693.0,-0.0048
3692.0,-0.0048
3691.0,-0.0045
3690.0,-0.0043
3689.0,-0.0042
3688.0,-0.0043
3687.0,-0.0044
3686.0,-0.0044
3685.0,-0.0043
3684.0,-0.0042
3683.0,-0.0042
3682.0,-0.0041
3681.0,-0.0042
3680.0,-0.0042
3679.0,-0.0043
3678.0,-0.0044
3677.0,-0.0044
3676.0,-0.0042
3675.0,-0.004
3674.0,-0.004
3673.0,-0.0041
3672.0,-0.0042
3671.0,-0.0043
3670.0,-0.0043
3669.0,-0.0042
3668.0,-0.0042
3667.0,-0.0042
3666.0,-0.0042
3665.0,-0.0042
3664.0,-0.0041
3663.0,-0.0041
3662.0,-0.0041
3661.0,-0.0042
3660.0,-0.0043
3659.0,-0.0045
3658.0,-0.0047
3657.0,-0.0048
3656.0,-0.0049
3655.0,-0.0049
3654.0,-0.0049
3653.0,-0.005
3652.0,-0.0052
3651.0,-0.0054
3650.0,-0.0055
3649.0,-0.0055
3648.0,-0.0057
3647.0,-0.0059
3646.0,-0.0062
3645.0,-0.0064
3644.0,-0.0065
3643.0,-0.0066
3642.0,-0.0068
3641.0,-0.0069
3640.0,-0.0071
3639.0,-0.0073
3638.0,-0.0075
3637.0,-0.0078
3636.0,-0.008
3635.0,-0.0082
3634.0,-0.0084
3633.0,-0.0086
3632.0,-0.0088
3631.0,-0.0091
3630.0,-0.0095
3629.0,-0.0099
3628.0,-0.0101
3627.0,-0.0101
3626.0,-0.0101
3625.0,-0.0101
3624.0,-0.0102
3623.0,-0.0102
3622.0,-0.0101
3621.0,-0.0101
3620.0,-0.0102
3619.0,-0.0103
3618.0,-0.0105
3617.0,-0.0106
3616.0,-0.0106
3615.0,-0.0106
3614.0,-0.0107
3613.0,-0.0108
3612.0,-0.011
3611.0,-0.0113
3610.0,-0.0116
3609.0,-0.0121
3608.0,-0.0125
3607.0,-0.0128
3606.0,-0.0129
3605.0,-0.0129
3604.0,-0.013
3603.0,-0.0131
3602.0,-0.0133
3601.0,-0.0135
3600.0,-0.0136
3599.0,-0.0136
3598.0,-0.0135
3597.0,-0.0136
3596.0,-0.0137
3595.0,-0.0139
3594.0,-0.0141
3593.0,-0.0143
3592.0,-0.0144
3591.0,-0.0144
3590.0,-0.0143
3589.0,-0.0143
3588.0,-0.0144
3587.0,-0.0146
3586.0,-0.0148
3585.0,-0.0149
3584.0,-0.015
3583.0,-0.0151
3582.0,-0.0151
3581.0,-0.0152
3580.0,-0.0153
3579.0,-0.0154
3578.0,-0.0155
3577.0,-0.0155
3576.0,-0.0156
3575.0,-0.0158
3574.0,-0.0159
3573.0,-0.0161
3572.0,-0.0162
3571.0,-0.0163
3570.0,-0.0164
3569.0,-0.0165
3568.0,-0.0166
3567.0,-0.0168
3566.0,-0.0169
3565.0,-0.0171
3564.0,-0.0173
3563.0,-0.0175
3562.0,-0.0177
3561.0,-0.0178
3560.0,-0.0179
3559.0,-0.018
3558.0,-0.0179
3557.0,-0.0179
3556.0,-0.018
3555.0,-0.0181
3554.0,-0.0184
3553.0,-0.0187
3552.0,-0.0189
3551.0,-0.019
3550.0,-0.019
3549.0,-0.019
3548.0,-0.019
3547.0,-0.0192
3546.0,-0.0194
3545.0,-0.0196
3544.0,-0.0198
3543.0,-0.02
3542.0,-0.0201
3541.0,-0.0201
3540.0,-0.0201
3539.0,-0.0201
3538.0,-0.0202
3537.0,-0.0204
3536.0,-0.0207
3535.0,-0.021
3534.0,-0.0212
3533.0,-0.0213
3532.0,-0.0213
3531.0,-0.0213
3530.0,-0.0214
3529.0,-0.0215
3528.0,-0.0216
3527.0,-0.0218
3526.0,-0.0219
3525.0,-0.0221
3524.0,-0.0223
3523.0,-0.0224
3522.0,-0.0225
3521.0,-0.0225
3520.0,-0.0224
3519.0,-0.0224
3518.0,-0.0225
3517.0,-0.0227
3516.0,-0.023
3515.0,-0.0232
3514.0,-0.0234
3513.0,-0.0235
3512.0,-0.0236
3511.0,-0.0237
3510.0,-0.0239
3509.0,-0.0241
3508.0,-0.0242
3507.0,-0.0243
3506.0,-0.0243
3505.0,-0.0243
3504.0,-0.0245
3503.0,-0.0248
3502.0,-0.025
3501.0,-0.0252
3500.0,-0.0253
3499.0,-0.0255
3498.0,-0.0256
3497.0,-0.0258
3496.0,-0.0259
3495.0,-0.0261
3494.0,-0.0264
3493.0,-0.0266
3492.0,-0.0269
3491.0,-0.0271
3490.0,-0.0273
3489.0,-0.0275
3488.0,-0.0278
3487.0,-0.0281
3486.0,-0.0283
3485.0,-0.0285
3484.0,-0.0286
3483.0,-0.0289
3482.0,-0.0292
3481.0,-0.0295
3480.0,-0.0297
3479.0,-0.0299
3478.0,-0.0302
3477.0,-0.0304
3476.0,-0.0307
3475.0,-0.0309
3474.0,-0.0311
3473.0,-0.0314
3472.0,-0.0316
3471.0,-0.0319
3470.0,-0.0321
3469.0,-0.0322
3468.0,-0.0324
3467.0,-0.0325
3466.0,-0.0327
3465.0,-0.0328
3464.0,-0.0329
3463.0,-0.0331
3462.0,-0.0334
3461.0,-0.0337
3460.0,-0.034
3459.0,-0.0342
3458.0,-0.0345
3457.0,-0.0347
3456.0,-0.0349
3455.0,-0.0351
3454.0,-0.0352
3453.0,-0.0352
3452.0,-0.0353
3451.0,-0.0354
3450.0,-0.0357
3449.0,-0.036
3448.0,-0.0364
3447.0,-0.0367
3446.0,-0.0369
3445.0,-0.037
3444.0,-0.0371
3443.0,-0.0372
3442.0,-0.0373
3441.0,-0.0375
3440.0,-0.0377
3439.0,-0.0379
3438.0,-0.0382
3437.0,-0.0383
3436.0,-0.0385
3435.0,-0.0386
3434.0,-0.0388
3433.0,-0.039
3432.0,-0.0391
3431.0,-0.0393
3430.0,-0.0395
3429.0,-0.0397
3428.0,-0.0399
3427.0,-0.0401
3426.0,-0.0403
3425.0,-0.0404
3424.0,-0.0405
3423.0,-0.0407
3422.0,-0.0408
3421.0,-0.041
3420.0,-0.0412
3419.0,-0.0415
3418.0,-0.0417
3417.0,-0.042
3416.0,-0.0422
3415.0,-0.0425
3414.0,-0.0427
3413.0,-0.043
3412.0,-0.0432
3411.0,-0.0434
3410.0,-0.0436
3409.0,-0.0437
3408.0,-0.0439
3407.0,-0.0441
3406.0,-0.0444
3405.0,-0.0447
3404.0,-0.0451
3403.0,-0.0455
3402.0,-0.0459
3401.0,-0.0462
3400.0,-0.0464
3399.0,-0.0467
3398.0,-0.0469
3397.0,-0.0472
3396.0,-0.0475
3395.0,-0.0478
3394.0,-0.0482
3393.0,-0.0485
3392.0,-0.0488
3391.0,-0.0491
3390.0,-0.0495
3389.0,-0.0498
3388.0,-0.0503
3387.0,-0.0507
3386.0,-0.0511
3385.0,-0.0516
3384.0,-0.0521
3383.0,-0.0526
3382.0,-0.0532
3381.0,-0.0537
3380.0,-0.054
3379.0,-0.0544
3378.0,-0.0547
3377.0,-0.0551
3376.0,-0.0555
3375.0,-0.056
3374.0,-0.0565
3373.0,-0.0569
3372.0,-0.0573
3371.0,-0.0576
3370.0,-0.0581
3369.0,-0.0586
3368.0,-0.0591
3367.0,-0.0595
3366.0,-0.06
3365.0,-0.0603
3364.0,-0.0607
3363.0,-0.0611
3362.0,-0.0616
3361.0,-0.0621
3360.0,-0.0625
3359.0,-0.0628
3358.0,-0.0631
3357.0,-0.0633
3356.0,-0.0636
3355.0,-0.0638
3354.0,-0.0642
3353.0,-0.0645
3352.0,-0.0647
3351.0,-0.065
3350.0,-0.0653
3349.0,-0.0655
3348.0,-0.0657
3347.0,-0.066
3346.0,-0.0663
3345.0,-0.0664
3344.0,-0.0666
3343.0,-0.0667
3342.0,-0.067
3341.0,-0.0672
3340.0,-0.0675
3339.0,-0.0676
3338.0,-0.0678
3337.0,-0.0679
3336.0,-0.0679
3335.0,-0.0679
3334.0,-0.0679
3333.0,-0.0679
3332.0,-0.0679
3331.0,-0.0679
3330.0,-0.0679
3329.0,-0.0679
3328.0,-0.068
3327.0,-0.0682
3326.0,-0.0684
3325.0,-0.0686
3324.0,-0.0686
3323.0,-0.0686
3322.0,-0.0686
3321.0,-0.0686
3320.0,-0.0686
3319.0,-0.0685
3318.0,-0.0685
3317.0,-0.0684
3316.0,-0.0683
3315.0,-0.0682
3314.0,-0.0682
3313.0,-0.0683
3312.0,-0.0683
3311.0,-0.0683
3310.0,-0.0682
3309.0,-0.0682
3308.0,-0.0681
3307.0,-0.068
3306.0,-0.0679
3305.0,-0.0678
3304.0,-0.0676
3303.0,-0.0675
3302.0,-0.0674
3301.0,-0.0674
3300.0,-0.0674
3299.0,-0.0673
3298.0,-0.0672
3297.0,-0.0671
3296.0,-0.067
3295.0,-0.0669
3294.0,-0.0668
3293.0,-0.0667
3292.0,-0.0666
3291.0,-0.0666
3290.0,-0.0666
3289.0,-0.0666
3288.0,-0.0665
3287.0,-0.0664
3286.0,-0.0662
3285.0,-0.0661
3284.0,-0.0659
3283.0,-0.0658
3282.0,-0.0657
3281.0,-0.0657
3280.0,-0.0656
3279.0,-0.0655
3278.0,-0.0654
3277.0,-0.0653
3276.0,-0.0653
3275.0,-0.0652
3274.0,-0.0651
3273.0,-0.0649
3272.0,-0.0647
3271.0,-0.0646
3270.0,-0.0644
3269.0,-0.0643
3268.0,-0.0641
3267.0,-0.064
3266.0,-0.0638
3265.0,-0.0637
3264.0,-0.0636
3263.0,-0.0635
3262.0,-0.0634
3261.0,-0.0632
3260.0,-0.0631
3259.0,-0.063
3258.0,-0.0629
3257.0,-0.0628
3256.0,-0.0627
3255.0,-0.0625
3254.0,-0.0624
3253.0,-0.0622
3252.0,-0.062
3251.0,-0.0618
3250.0,-0.0616
3249.0,-0.0615
3248.0,-0.0613
3247.0,-0.0611
3246.0,-0.0609
3245.0,-0.0608
3244.0,-0.0608
3243.0,-0.0608
3242.0,-0.0608
3241.0,-0.0606
3240.0,-0.0604
3239.0,-0.0602
3238.0,-0.0601
3237.0,-0.0601
3236.0,-0.06
3235.0,-0.06
3234.0,-0.0598
3233.0,-0.0597
3232.0,-0.0595
3231.0,-0.0594
3230.0,-0.0593
3229.0,-0.0592
3228.0,-0.0591
3227.0,-0.059
3226.0,-0.059
3225.0,-0.0589
3224.0,-0.0588
3223.0,-0.0586
3222.0,-0.0585
3221.0,-0.0583
3220.0,-0.0582
3219.0,-0.0581
3218.0,-0.0579
3217.0,-0.0577
3216.0,-0.0574
3215.0,-0.0571
3214.0,-0.0569
3213.0,-0.0566
3212.0,-0.0564
3211.0,-0.0564
3210.0,-0.0563
3209.0,-0.0562
3208.0,-0.0561
3207.0,-0.0558
3206.0,-0.0555
3205.0,-0.0551
3204.0,-0.0547
3203.0,-0.0544
3202.0,-0.054
3201.0,-0.0537
3200.0,-0.0535
3199.0,-0.0533
3198.0,-0.0531
3197.0,-0.0529
3196.0,-0.0526
3195.0,-0.0522
3194.0,-0.0519
3193.0,-0.0516
3192.0,-0.0513
3191.0,-0.0511
3190.0,-0.0509
3189.0,-0.0506
3188.0,-0.0502
3187.0,-0.0499
3186.0,-0.0497
3185.0,-0.0495
3184.0,-0.0493
3183.0,-0.0491
3182.0,-0.0488
3181.0,-0.0485
3180.0,-0.0482
3179.0,-0.0478
3178.0,-0.0474
3177.0,-0.047
3176.0,-0.0466
3175.0,-0.0463
3174.0,-0.0461
3173.0,-0.0458
3172.0,-0.0456
3171.0,-0.0454
3170.0,-0.0451
3169.0,-0.0448
3168.0,-0.0445
3167.0,-0.0442
3166.0,-0.0439
3165.0,-0.0436
3164.0,-0.0434
3163.0,-0.0431
3162.0,-0.0429
3161.0,-0.0426
3160.0,-0.0422
3159.0,-0.0419
3158.0,-0.0416
3157.0,-0.0413
3156.0,-0.0412
3155.0,-0.041
3154.0,-0.0407
3153.0,-0.0404
3152.0,-0.04
3151.0,-0.0397
3150.0,-0.0394
3149.0,-0.0391
3148.0,-0.0388
3147.0,-0.0385
3146.0,-0.0382
3145.0,-0.038
3144.0,-0.0379
3143.0,-0.0377
3142.0,-0.0376
3141.0,-0.0374
3140.0,-0.0371
3139.0,-0.0367
3138.0,-0.0364
3137.0,-0.036
3136.0,-0.0357
3135.0,-0.0355
3134.0,-0.0352
3133.0,-0.035
3132.0,-0.0348
3131.0,-0.0345
3130.0,-0.0342
3129.0,-0.0339
3128.0,-0.0337
3127.0,-0.0334
3126.0,-0.0333
3125.0,-0.0332
3124.0,-0.033
3123.0,-0.0328
3122.0,-0.0326
3121.0,-0.0323
3120.0,-0.032
3119.0,-0.0316
3118.0,-0.0313
3117.0,-0.0311
3116.0,-0.031
3115.0,-0.0308
3114.0,-0.0307
3113.0,-0.0304
3112.0,-0.0302
3111.0,-0.0299
3110.0,-0.0296
3109.0,-0.0294
3108.0,-0.0291
3107.0,-0.0289
3106.0,-0.0287
3105.0,-0.0285
3104.0,-0.0283
3103.0,-0.028
3102.0,-0.0278
3101.0,-0.0276
3100.0,-0.0274
3099.0,-0.0272
3098.0,-0.0269
3097.0,-0.0267
3096.0,-0.0266
3095.0,-0.0264
3094.0,-0.0261
3093.0,-0.0259
3092.0,-0.0256
3091.0,-0.0254
3090.0,-0.0253
3089.0,-0.0251
3088.0,-0.0249
3087.0,-0.0247
3086.0,-0.0245
3085.0,-0.0243
3084.0,-0.0241
3083.0,-0.024
3082.0,-0.0238
3081.0,-0.0237
3080.0,-0.0236
3079.0,-0.0235
3078.0,-0.0234
3077.0,-0.0232
3076.0,-0.023
3075.0,-0.0228
3074.0,-0.0225
3073.0,-0.0223
3072.0,-0.0221
3071.0,-0.0218
3070.0,-0.0215
3069.0,-0.0213
3068.0,-0.0211
3067.0,-0.021
3066.0,-0.021
3065.0,-0.021
3064.0,-0.0209
3063.0,-0.0208
3062.0,-0.0207
3061.0,-0.0206
3060.0,-0.0204
3059.0,-0.0202
3058.0,-0.02
3057.0,-0.0198
3056.0,-0.0197
3055.0,-0.0196
3054.0,-0.0195
3053.0,-0.0193
3052.0,-0.0192
3051.0,-0.0191
3050.0,-0.0189
3049.0,-0.0188
3048.0,-0.0187
3047.0,-0.0185
3046.0,-0.0184
3045.0,-0.0182
3044.0,-0.018
3043.0,-0.0179
3042.0,-0.0177
3041.0,-0.0175
3040.0,-0.0174
3039.0,-0.0172
3038.0,-0.0171
3037.0,-0.017
3036.0,-0.0168
3035.0,-0.0165
3034.0,-0.0163
3033.0,-0.0161
3032.0,-0.016
3031.0,-0.0158
3030.0,-0.0156
3029.0,-0.0153
3028.0,-0.0149
3027.0,-0.0145
3026.0,-0.0141
3025.0,-0.0136
3024.0,-0.0132
3023.0,-0.0127
3022.0,-0.0123
3021.0,-0.0118
3020.0,-0.0113
3019.0,-0.0108
3018.0,-0.0103
3017.0,-0.0097
3016.0,-0.009
3015.0,-0.0082
3014.0,-0.0073
3013.0,-0.0063
3012.0,-0.0052
3011.0,-0.0041
3010.0,-0.0031
3009.0,-0.002
3008.0,-0.0009
3007.0,0.0003
3006.0,0.0016
3005.0,0.0029
3004.0,0.0042
3003.0,0.0054
3002.0,0.0065
3001.0,0.0076
3000.0,0.0086
2999.0,0.0094
2998.0,0.0103
2997.0,0.011
2996.0,0.0116
2995.0,0.012
2994.0,0.012
2993.0,0.0116
2992.0,0.0109
2991.0,0.01
2990.0,0.0089
2989.0,0.0077
2988.0,0.0065
2987.0,0.0054
2986.0,0.0042
2985.0,0.0032
2984.0,0.0023
2983.0,0.0016
2982.0,0.001
2981.0,0.0005
2980.0,0.0001
2979.0,-0.0002
2978.0,-0.0005
2977.0,-0.0007
2976.0,-0.0008
2975.0,-0.0009
2974.0,-0.001
2973.0,-0.001
2972.0,-0.001
2971.0,-0.0009
2970.0,-0.0008
2969.0,-0.0006
2968.0,-0.0004
2967.0,-0.0001
2966.0,0.0001
2965.0,0.0003
2964.0,0.0005
2963.0,0.0008
2962.0,0.0011
2961.0,0.0016
2960.0,0.002
2959.0,0.0025
2958.0,0.0031
2957.0,0.0037
2956.0,0.0043
2955.0,0.0051
2954.0,0.006
2953.0,0.0069
2952.0,0.0079
2951.0,0.009
2950.0,0.0101
2949.0,0.011
2948.0,0.0118
2947.0,0.0124
2946.0,0.0128
2945.0,0.0129
2944.0,0.0128
2943.0,0.0124
2942.0,0.0117
2941.0,0.0107
2940.0,0.0096
2939.0,0.0085
2938.0,0.0074
2937.0,0.0064
2936.0,0.0055
2935.0,0.0046
2934.0,0.0038
2933.0,0.0031
2932.0,0.0026
2931.0,0.0022
2930.0,0.0018
2929.0,0.0015
2928.0,0.0011
2927.0,0.0008
2926.0,0.0005
2925.0,0.0003
2924.0,0.0
2923.0,-0.0002
2922.0,-0.0004
2921.0,-0.0006
2920.0,-0.0008
2919.0,-0.001
2918.0,-0.0012
2917.0,-0.0013
2916.0,-0.0015
2915.0,-0.0016
2914.0,-0.0017
2913.0,-0.0018
2912.0,-0.0019
2911.0,-0.0019
2910.0,-0.002
2909.0,-0.002
2908.0,-0.0021
2907.0,-0.0021
2906.0,-0.0021
2905.0,-0.0021
2904.0,-0.0021
2903.0,-0.0021
2902.0,-0.0021
2901.0,-0.0021
2900.0,-0.0021
2899.0,-0.0021
2898.0,-0.0021
2897.0,-0.0021
2896.0,-0.0021
2895.0,-0.0021
2894.0,-0.0021
2893.0,-0.0022
2892.0,-0.0021
2891.0,-0.002
2890.0,-0.0019
2889.0,-0.0017
2888.0,-0.0015
2887.0,-0.0012
2886.0,-0.001
2885.0,-0.0007
2884.0,-0.0005
2883.0,-0.0002
2882.0,-0.0001
2881.0,-0.0
2880.0,-0.0001
2879.0,-0.0002
2878.0,-0.0003
2877.0,-0.0005
2876.0,-0.0008
2875.0,-0.0011
2874.0,-0.0014
2873.0,-0.0017
2872.0,-0.0021
2871.0,-0.0024
2870.0,-0.0027
2869.0,-0.0029
2868.0,-0.0031
2867.0,-0.0033
2866.0,-0.0034
2865.0,-0.0035
2864.0,-0.0036
2863.0,-0.0035
2862.0,-0.0035
2861.0,-0.0035
2860.0,-0.0034
2859.0,-0.0034
2858.0,-0.0034
2857.0,-0.0035
2856.0,-0.0035
2855.0,-0.0035
2854.0,-0.0034
2853.0,-0.0034
2852.0,-0.0035
2851.0,-0.0036
2850.0,-0.0037
2849.0,-0.0038
2848.0,-0.0039
2847.0,-0.0039
2846.0,-0.004
2845.0,-0.004
2844.0,-0.0041
2843.0,-0.0042
2842.0,-0.0042
2841.0,-0.0042
2840.0,-0.0042
2839.0,-0.0042
2838.0,-0.0041
2837.0,-0.0041
2836.0,-0.0041
2835.0,-0.0041
2834.0,-0.0041
2833.0,-0.0041
2832.0,-0.0041
2831.0,-0.004
2830.0,-0.0039
2829.0,-0.0038
2828.0,-0.0038
2827.0,-0.0038
2826.0,-0.0038
2825.0,-0.0039
2824.0,-0.004
2823.0,-0.0041
2822.0,-0.0042
2821.0,-0.0042
2820.0,-0.0042
2819.0,-0.0042
2818.0,-0.0042
2817.0,-0.0042
2816.0,-0.0042
2815.0,-0.0042
2814.0,-0.0042
2813.0,-0.0041
2812.0,-0.0041
2811.0,-0.0041
2810.0,-0.0042
2809.0,-0.0043
2808.0,-0.0044
2807.0,-0.0045
2806.0,-0.0045
2805.0,-0.0045
2804.0,-0.0045
2803.0,-0.0045
2802.0,-0.0045
2801.0,-0.0045
2800.0,-0.0045
2799.0,-0.0045
2798.0,-0.0045
2797.0,-0.0044
2796.0,-0.0044
2795.0,-0.0044
2794.0,-0.0044
2793.0,-0.0045
2792.0,-0.0045
2791.0,-0.0046
2790.0,-0.0046
2789.0,-0.0046
2788.0,-0.0046
2787.0,-0.0047
2786.0,-0.0047
2785.0,-0.0047
2784.0,-0.0047
2783.0,-0.0046
2782.0,-0.0046
2781.0,-0.0046
2780.0,-0.0045
2779.0,-0.0045
2778.0,-0.0045
2777.0,-0.0045
2776.0,-0.0046
2775.0,-0.0046
2774.0,-0.0046
2773.0,-0.0046
2772.0,-0.0046
2771.0,-0.0046
2770.0,-0.0046
2769.0,-0.0046
2768.0,-0.0046
2767.0,-0.0046
2766.0,-0.0046
2765.0,-0.0047
2764.0,-0.0047
2763.0,-0.0047
2762.0,-0.0047
2761.0,-0.0047
2760.0,-0.0047
2759.0,-0.0047
2758.0,-0.0047
2757.0,-0.0046
2756.0,-0.0045
2755.0,-0.0044
2754.0,-0.0043
2753.0,-0.0043
2752.0,-0.0043
2751.0,-0.0044
2750.0,-0.0045
2749.0,-0.0045
2748.0,-0.0045
2747.0,-0.0045
2746.0,-0.0045
2745.0,-0.0045
2744.0,-0.0045
2743.0,-0.0044
2742.0,-0.0043
2741.0,-0.0043
2740.0,-0.0043
2739.0,-0.0043
2738.0,-0.0043
2737.0,-0.0043
2736.0,-0.0043
2735.0,-0.0043
2734.0,-0.0043
2733.0,-0.0044
2732.0,-0.0045
2731.0,-0.0045
2730.0,-0.0044
2729.0,-0.0044
2728.0,-0.0043
2727.0,-0.0043
2726.0,-0.0043
2725.0,-0.0043
2724.0,-0.0044
2723.0,-0.0043
2722.0,-0.0043
2721.0,-0.0043
2720.0,-0.0042
2719.0,-0.0042
2718.0,-0.0042
2717.0,-0.0041
2716.0,-0.0041
2715.0,-0.0041
2714.0,-0.0042
2713.0,-0.0042
2712.0,-0.0042
2711.0,-0.0041
2710.0,-0.0041
2709.0,-0.0041
2708.0,-0.0041
2707.0,-0.0041
2706.0,-0.0042
2705.0,-0.0042
2704.0,-0.0042
2703.0,-0.0042
2702.0,-0.0042
2701.0,-0.0042
2700.0,-0.0041
2699.0,-0.0042
2698.0,-0.0042
2697.0,-0.0042
2696.0,-0.0041
2695.0,-0.0041
2694.0,-0.004
2693.0,-0.004
2692.0,-0.0039
2691.0,-0.0039
2690.0,-0.0039
2689.0,-0.0039
2688.0,-0.004
2687.0,-0.0041
2686.0,-0.0042
2685.0,-0.0042
2684.0,-0.0042
2683.0,-0.0041
2682.0,-0.004
2681.0,-0.004
2680.0,-0.004
2679.0,-0.004
2678.0,-0.004
2677.0,-0.0041
2676.0,-0.004
2675.0,-0.004
2674.0,-0.004
2673.0,-0.004
2672.0,-0.0039
2671.0,-0.0039
2670.0,-0.0039
2669.0,-0.0038
2668.0,-0.0038
2667.0,-0.0038
2666.0,-0.0039
2665.0,-0.0039
2664.0,-0.0038
2663.0,-0.0038
2662.0,-0.0038
2661.0,-0.0038
2660.0,-0.0038
2659.0,-0.0038
2658.0,-0.0038
2657.0,-0.0038
2656.0,-0.0038
2655.0,-0.0038
2654.0,-0.0038
2653.0,-0.0038
2652.0,-0.0037
2651.0,-0.0037
2650.0,-0.0037
2649.0,-0.0037
2648.0,-0.0037
2647.0,-0.0038
2646.0,-0.0038
2645.0,-0.0038
2644.0,-0.0037
2643.0,-0.0036
2642.0,-0.0036
2641.0,-0.0036
2640.0,-0.0036
2639.0,-0.0037
2638.0,-0.0037
2637.0,-0.0037
2636.0,-0.0038
2635.0,-0.0038
2634.0,-0.0038
2633.0,-0.0038
2632.0,-0.0037
2631.0,-0.0037
2630.0,-0.0037
2629.0,-0.0037
2628.0,-0.0038
2627.0,-0.0038
2626.0,-0.0038
2625.0,-0.0037
2624.0,-0.0037
2623.0,-0.0037
2622.0,-0.0038
2621.0,-0.0038
2620.0,-0.0039
2619.0,-0.0039
2618.0,-0.0039
2617.0,-0.0039
2616.0,-0.0039
2615.0,-0.0039
2614.0,-0.0038
2613.0,-0.0038
2612.0,-0.0038
2611.0,-0.0039
2610.0,-0.0039
2609.0,-0.0039
2608.0,-0.0039
2607.0,-0.0038
2606.0,-0.0038
2605.0,-0.0038
2604.0,-0.0038
2603.0,-0.0038
2602.0,-0.0038
2601.0,-0.0038
2600.0,-0.0038
2599.0,-0.0038
2598.0,-0.0038
2597.0,-0.0038
2596.0,-0.0038
2595.0,-0.0039
2594.0,-0.0039
2593.0,-0.004
2592.0,-0.004
2591.0,-0.004
2590.0,-0.0039
2589.0,-0.0038
2588.0,-0.0038
2587.0,-0.0038
2586.0,-0.0039
2585.0,-0.0039
2584.0,-0.0039
2583.0,-0.004
2582.0,-0.004
2581.0,-0.004
2580.0,-0.0041
2579.0,-0.0042
2578.0,-0.0042
2577.0,-0.0041
2576.0,-0.0041
2575.0,-0.004
2574.0,-0.004
2573.0,-0.004
2572.0,-0.004
2571.0,-0.0039
2570.0,-0.004
2569.0,-0.004
2568.0,-0.004
2567.0,-0.004
2566.0,-0.004
2565.0,-0.004
2564.0,-0.004
2563.0,-0.004
2562.0,-0.004
2561.0,-0.0041
2560.0,-0.0041
2559.0,-0.004
2558.0,-0.0041
2557.0,-0.0041
2556.0,-0.0041
2555.0,-0.0042
2554.0,-0.0042
2553.0,-0.0042
2552.0,-0.0042
2551.0,-0.0042
2550.0,-0.0042
2549.0,-0.0042
2548.0,-0.0042
2547.0,-0.0042
2546.0,-0.0042
2545.0,-0.0041
2544.0,-0.0041
2543.0,-0.004
2542.0,-0.004
2541.0,-0.004
2540.0,-0.0041
2539.0,-0.0041
2538.0,-0.0042
2537.0,-0.0042
2536.0,-0.0042
2535.0,-0.0042
2534.0,-0.0042
2533.0,-0.0042
2532.0,-0.0043
2531.0,-0.0043
2530.0,-0.0043
2529.0,-0.0043
2528.0,-0.0044
2527.0,-0.0044
2526.0,-0.0044
2525.0,-0.0044
2524.0,-0.0043
2523.0,-0.0043
2522.0,-0.0043
2521.0,-0.0043
2520.0,-0.0043
2519.0,-0.0042
2518.0,-0.0043
2517.0,-0.0043
2516.0,-0.0044
2515.0,-0.0044
2514.0,-0.0044
2513.0,-0.0043
2512.0,-0.0042
2511.0,-0.0041
2510.0,-0.0041
2509.0,-0.0041
2508.0,-0.0042
2507.0,-0.0042
2506.0,-0.0042
2505.0,-0.0043
2504.0,-0.0043
2503.0,-0.0043
2502.0,-0.0043
2501.0,-0.0044
2500.0,-0.0044
2499.0,-0.0044
2498.0,-0.0044
2497.0,-0.0044
2496.0,-0.0044
2495.0,-0.0044
2494.0,-0.0045
2493.0,-0.0044
2492.0,-0.0044
2491.0,-0.0044
2490.0,-0.0044
2489.0,-0.0045
2488.0,-0.0045
2487.0,-0.0045
2486.0,-0.0046
2485.0,-0.0046
2484.0,-0.0046
2483.0,-0.0045
2482.0,-0.0046
2481.0,-0.0046
2480.0,-0.0047
2479.0,-0.0048
2478.0,-0.0048
2477.0,-0.0047
2476.0,-0.0047
2475.0,-0.0047
2474.0,-0.0048
2473.0,-0.0048
2472.0,-0.0048
2471.0,-0.0048
2470.0,-0.0048
2469.0,-0.0048
2468.0,-0.0048
2467.0,-0.0049
2466.0,-0.0049
2465.0,-0.005
2464.0,-0.005
2463.0,-0.005
2462.0,-0.005
2461.0,-0.005
2460.0,-0.005
2459.0,-0.0051
2458.0,-0.0052
2457.0,-0.0053
2456.0,-0.0052
2455.0,-0.0052
2454.0,-0.0051
2453.0,-0.0051
2452.0,-0.0051
2451.0,-0.0051
2450.0,-0.0051
2449.0,-0.0051
2448.0,-0.0051
2447.0,-0.0051
2446.0,-0.0051
2445.0,-0.0051
2444.0,-0.0051
2443.0,-0.0051
2442.0,-0.0051
2441.0,-0.0051
2440.0,-0.0051
2439.0,-0.0051
2438.0,-0.0051
2437.0,-0.005
2436.0,-0.0049
2435.0,-0.0049
2434.0,-0.0049
2433.0,-0.0049
2432.0,-0.0049
2431.0,-0.0049
2430.0,-0.0048
2429.0,-0.0048
2428.0,-0.0048
2427.0,-0.0048
2426.0,-0.0048
2425.0,-0.0048
2424.0,-0.0048
2423.0,-0.0049
2422.0,-0.0049
2421.0,-0.0049
2420.0,-0.0048
2419.0,-0.0048
2418.0,-0.0048
2417.0,-0.0048
2416.0,-0.0047
2415.0,-0.0047
2414.0,-0.0047
2413.0,-0.0047
2412.0,-0.0046
2411.0,-0.0046
2410.0,-0.0046
2409.0,-0.0046
2408.0,-0.0046
2407.0,-0.0046
2406.0,-0.0046
2405.0,-0.0046
2404.0,-0.0045
2403.0,-0.0045
2402.0,-0.0046
2401.0,-0.0046
2400.0,-0.0046
2399.0,-0.0047
2398.0,-0.0047
2397.0,-0.0047
2396.0,-0.0047
2395.0,-0.0047
2394.0,-0.0047
2393.0,-0.0047
2392.0,-0.0048
2391.0,-0.0048
2390.0,-0.005
2389.0,-0.0052
2388.0,-0.0055
2387.0,-0.0059
2386.0,-0.0063
2385.0,-0.0068
2384.0,-0.0071
2383.0,-0.0074
2382.0,-0.0076
2381.0,-0.0077
2380.0,-0.0077
2379.0,-0.0075
2378.0,-0.0075
2377.0,-0.0075
2376.0,-0.0076
2375.0,-0.0077
2374.0,-0.008
2373.0,-0.0082
2372.0,-0.0083
2371.0,-0.0084
2370.0,-0.0085
2369.0,-0.0086
2368.0,-0.0086
2367.0,-0.0087
2366.0,-0.0088
2365.0,-0.0089
2364.0,-0.0091
2363.0,-0.0095
2362.0,-0.0101
2361.0,-0.0102
2360.0,-0.0097
2359.0,-0.0091
2358.0,-0.0084
2357.0,-0.0079
2356.0,-0.008
2355.0,-0.0091
2354.0,-0.0104
2353.0,-0.011
2352.0,-0.0107
2351.0,-0.01
2350.0,-0.0096
2349.0,-0.0094
2348.0,-0.0095
2347.0,-0.0097
2346.0,-0.0101
2345.0,-0.0106
2344.0,-0.0111
2343.0,-0.0115
2342.0,-0.0114
2341.0,-0.0108
2340.0,-0.0104
2339.0,-0.0105
2338.0,-0.0109
2337.0,-0.011
2336.0,-0.0106
2335.0,-0.01
2334.0,-0.0096
2333.0,-0.0096
2332.0,-0.0099
2331.0,-0.0106
2330.0,-0.0113
2329.0,-0.0119
2328.0,-0.0123
2327.0,-0.0122
2326.0,-0.0118
2325.0,-0.0111
2324.0,-0.0102
2323.0,-0.0096
2322.0,-0.0093
2321.0,-0.0094
2320.0,-0.0096
2319.0,-0.0097
2318.0,-0.0098
2317.0,-0.0099
2316.0,-0.0099
2315.0,-0.0101
2314.0,-0.0103
2313.0,-0.0107
2312.0,-0.0111
2311.0,-0.0115
2310.0,-0.0117
2309.0,-0.0116
2308.0,-0.0113
2307.0,-0.011
2306.0,-0.0106
2305.0,-0.0105
2304.0,-0.0105
2303.0,-0.0106
2302.0,-0.0107
2301.0,-0.0106
2300.0,-0.0105
2299.0,-0.0103
2298.0,-0.0102
2297.0,-0.01
2296.0,-0.0099
2295.0,-0.0097
2294.0,-0.0096
2293.0,-0.0093
2292.0,-0.0091
2291.0,-0.0089
2290.0,-0.0087
2289.0,-0.0084
2288.0,-0.0081
2287.0,-0.0078
2286.0,-0.0076
2285.0,-0.0074
2284.0,-0.0073
2283.0,-0.0072
2282.0,-0.0073
2281.0,-0.0073
2280.0,-0.0074
2279.0,-0.0075
2278.0,-0.0076
2277.0,-0.0076
2276.0,-0.0076
2275.0,-0.0076
2274.0,-0.0076
2273.0,-0.0076
2272.0,-0.0076
2271.0,-0.0076
2270.0,-0.0075
2269.0,-0.0074
2268.0,-0.0074
2267.0,-0.0075
2266.0,-0.0075
2265.0,-0.0075
2264.0,-0.0075
2263.0,-0.0074
2262.0,-0.0074
2261.0,-0.0074
2260.0,-0.0075
2259.0,-0.0075
2258.0,-0.0074
2257.0,-0.0074
2256.0,-0.0074
2255.0,-0.0073
2254.0,-0.0073
2253.0,-0.0073
2252.0,-0.0073
2251.0,-0.0073
2250.0,-0.0073
2249.0,-0.0072
2248.0,-0.0072
2247.0,-0.0073
2246.0,-0.0073
2245.0,-0.0072
2244.0,-0.0072
2243.0,-0.0072
2242.0,-0.0071
2241.0,-0.0071
2240.0,-0.0071
2239.0,-0.0071
2238.0,-0.0071
2237.0,-0.0071
2236.0,-0.0072
2235.0,-0.0072
2234.0,-0.0072
2233.0,-0.0072
2232.0,-0.0072
2231.0,-0.0072
2230.0,-0.0072
2229.0,-0.0072
2228.0,-0.0073
2227.0,-0.0073
2226.0,-0.0073
2225.0,-0.0074
2224.0,-0.0074
2223.0,-0.0075
2222.0,-0.0075
2221.0,-0.0075
2220.0,-0.0075
2219.0,-0.0075
2218.0,-0.0076
2217.0,-0.0077
2216.0,-0.0077
2215.0,-0.0078
2214.0,-0.0078
2213.0,-0.0077
2212.0,-0.0078
2211.0,-0.0078
2210.0,-0.0078
2209.0,-0.0079
2208.0,-0.0079
2207.0,-0.0079
2206.0,-0.0079
2205.0,-0.0079
2204.0,-0.0079
2203.0,-0.0078
2202.0,-0.0078
2201.0,-0.0078
2200.0,-0.0079
2199.0,-0.0079
2198.0,-0.0079
2197.0,-0.0079
2196.0,-0.0079
2195.0,-0.0079
2194.0,-0.0079
2193.0,-0.008
2192.0,-0.008
2191.0,-0.008
2190.0,-0.008
2189.0,-0.008
2188.0,-0.008
2187.0,-0.008
2186.0,-0.008
2185.0,-0.008
2184.0,-0.008
2183.0,-0.0081
2182.0,-0.0081
2181.0,-0.0081
2180.0,-0.0081
2179.0,-0.008
2178.0,-0.008
2177.0,-0.008
2176.0,-0.008
2175.0,-0.008
2174.0,-0.008
2173.0,-0.0081
2172.0,-0.0081
2171.0,-0.0081
2170.0,-0.0081
2169.0,-0.0081
2168.0,-0.0081
2167.0,-0.0081
2166.0,-0.0081
2165.0,-0.0081
2164.0,-0.0082
2163.0,-0.0082
2162.0,-0.0082
2161.0,-0.0082
2160.0,-0.0082
2159.0,-0.0082
2158.0,-0.0082
2157.0,-0.0082
2156.0,-0.0081
2155.0,-0.0081
2154.0,-0.0081
2153.0,-0.0081
2152.0,-0.0081
2151.0,-0.0081
2150.0,-0.0081
2149.0,-0.008
2148.0,-0.008
2147.0,-0.0081
2146.0,-0.0081
2145.0,-0.0081
2144.0,-0.0081
2143.0,-0.0081
2142.0,-0.008
2141.0,-0.0079
2140.0,-0.0079
2139.0,-0.0079
2138.0,-0.0079
2137.0,-0.0079
2136.0,-0.0079
2135.0,-0.0079
2134.0,-0.0079
2133.0,-0.0078
2132.0,-0.0078
2131.0,-0.0078
2130.0,-0.0078
2129.0,-0.0078
2128.0,-0.0078
2127.0,-0.0079
2126.0,-0.0079
2125.0,-0.0079
2124.0,-0.0079
2123.0,-0.0078
2122.0,-0.0078
2121.0,-0.0078
2120.0,-0.0078
2119.0,-0.0078
2118.0,-0.0079
2117.0,-0.0079
2116.0,-0.008
2115.0,-0.008
2114.0,-0.008
2113.0,-0.008
2112.0,-0.008
2111.0,-0.008
2110.0,-0.008
2109.0,-0.008
2108.0,-0.008
2107.0,-0.008
2106.0,-0.008
2105.0,-0.0079
2104.0,-0.0079
2103.0,-0.008
2102.0,-0.008
2101.0,-0.008
2100.0,-0.008
2099.0,-0.0081
2098.0,-0.0081
2097.0,-0.0081
2096.0,-0.008
2095.0,-0.008
2094.0,-0.0079
2093.0,-0.0079
2092.0,-0.0079
2091.0,-0.0078
2090.0,-0.0078
2089.0,-0.0078
2088.0,-0.0078
2087.0,-0.0078
2086.0,-0.0078
2085.0,-0.0078
2084.0,-0.0078
2083.0,-0.0078
2082.0,-0.0078
2081.0,-0.0078
2080.0,-0.0079
2079.0,-0.0079
2078.0,-0.008
2077.0,-0.008
2076.0,-0.0081
2075.0,-0.0081
2074.0,-0.0081
2073.0,-0.0082
2072.0,-0.0082
2071.0,-0.0082
2070.0,-0.0082
2069.0,-0.0083
2068.0,-0.0083
2067.0,-0.0083
2066.0,-0.0084
2065.0,-0.0085
2064.0,-0.0085
2063.0,-0.0085
2062.0,-0.0086
2061.0,-0.0086
2060.0,-0.0086
2059.0,-0.0087
2058.0,-0.0087
2057.0,-0.0088
2056.0,-0.0088
2055.0,-0.0089
2054.0,-0.009
2053.0,-0.0091
2052.0,-0.0092
2051.0,-0.0092
2050.0,-0.0093
2049.0,-0.0093
2048.0,-0.0094
2047.0,-0.0094
2046.0,-0.0095
2045.0,-0.0095
2044.0,-0.0096
2043.0,-0.0097
2042.0,-0.0097
2041.0,-0.0097
2040.0,-0.0097
2039.0,-0.0098
2038.0,-0.0099
2037.0,-0.0099
2036.0,-0.01
2035.0,-0.01
2034.0,-0.01
2033.0,-0.01
2032.0,-0.0101
2031.0,-0.0101
2030.0,-0.0101
2029.0,-0.0101
2028.0,-0.0102
2027.0,-0.0102
2026.0,-0.0101
2025.0,-0.0101
2024.0,-0.0102
2023.0,-0.0102
2022.0,-0.0102
2021.0,-0.0102
2020.0,-0.0102
2019.0,-0.0101
2018.0,-0.0101
2017.0,-0.0101
2016.0,-0.0101
2015.0,-0.01
2014.0,-0.01
2013.0,-0.01
2012.0,-0.0099
2011.0,-0.0099
2010.0,-0.0099
2009.0,-0.0099
2008.0,-0.0099
2007.0,-0.0099
2006.0,-0.0098
2005.0,-0.0098
2004.0,-0.0097
2003.0,-0.0097
2002.0,-0.0097
2001.0,-0.0097
2000.0,-0.0097
1999.0,-0.0097
1998.0,-0.0097
1997.0,-0.0097
1996.0,-0.0098
1995.0,-0.0098
1994.0,-0.0099
1993.0,-0.0099
1992.0,-0.0099
1991.0,-0.0099
1990.0,-0.0098
1989.0,-0.0098
1988.0,-0.0098
1987.0,-0.0098
1986.0,-0.0098
1985.0,-0.0098
1984.0,-0.0097
1983.0,-0.0097
1982.0,-0.0097
1981.0,-0.0097
1980.0,-0.0097
1979.0,-0.0098
1978.0,-0.0098
1977.0,-0.0098
1976.0,-0.0098
1975.0,-0.0097
1974.0,-0.0097
1973.0,-0.0096
1972.0,-0.0096
1971.0,-0.0095
1970.0,-0.0095
1969.0,-0.0095
1968.0,-0.0096
1967.0,-0.0096
1966.0,-0.0096
1965.0,-0.0097
1964.0,-0.0097
1963.0,-0.0097
1962.0,-0.0098
1961.0,-0.0098
1960.0,-0.0098
1959.0,-0.0099
1958.0,-0.01
1957.0,-0.01
1956.0,-0.0101
1955.0,-0.0101
1954.0,-0.0102
1953.0,-0.0102
1952.0,-0.0103
1951.0,-0.0103
1950.0,-0.0104
1949.0,-0.0104
1948.0,-0.0104
1947.0,-0.0105
1946.0,-0.0105
1945.0,-0.0106
1944.0,-0.0106
1943.0,-0.0107
1942.0,-0.0107
1941.0,-0.0107
1940.0,-0.0107
1939.0,-0.0107
1938.0,-0.0108
1937.0,-0.0108
1936.0,-0.0108
1935.0,-0.0108
1934.0,-0.0109
1933.0,-0.0109
1932.0,-0.011
1931.0,-0.011
1930.0,-0.011
1929.0,-0.011
1928.0,-0.011
1927.0,-0.011
1926.0,-0.011
1925.0,-0.011
1924.0,-0.011
1923.0,-0.011
1922.0,-0.0109
1921.0,-0.0109
1920.0,-0.0109
1919.0,-0.0109
1918.0,-0.011
1917.0,-0.011
1916.0,-0.011
1915.0,-0.011
1914.0,-0.011
1913.0,-0.011
1912.0,-0.0111
1911.0,-0.0111
1910.0,-0.0111
1909.0,-0.011
1908.0,-0.0109
1907.0,-0.0109
1906.0,-0.011
1905.0,-0.0111
1904.0,-0.0111
1903.0,-0.0111
1902.0,-0.0111
1901.0,-0.0111
1900.0,-0.0111
1899.0,-0.0111
1898.0,-0.0112
1897.0,-0.0112
1896.0,-0.0112
1895.0,-0.0112
1894.0,-0.0112
1893.0,-0.0112
1892.0,-0.0111
1891.0,-0.0112
1890.0,-0.0112
1889.0,-0.0113
1888.0,-0.0112
1887.0,-0.0112
1886.0,-0.0112
1885.0,-0.0112
1884.0,-0.0112
1883.0,-0.0113
1882.0,-0.0113
1881.0,-0.0113
1880.0,-0.0113
1879.0,-0.0113
1878.0,-0.0113
1877.0,-0.0113
1876.0,-0.0113
1875.0,-0.0113
1874.0,-0.0113
1873.0,-0.0112
1872.0,-0.0112
1871.0,-0.0111
1870.0,-0.0112
1869.0,-0.0112
1868.0,-0.0111
1867.0,-0.0111
1866.0,-0.0111
1865.0,-0.011
1864.0,-0.011
1863.0,-0.0109
1862.0,-0.0109
1861.0,-0.0109
1860.0,-0.0108
1859.0,-0.0107
1858.0,-0.0106
1857.0,-0.0106
1856.0,-0.0105
1855.0,-0.0104
1854.0,-0.0104
1853.0,-0.0103
1852.0,-0.0101
1851.0,-0.01
1850.0,-0.01
1849.0,-0.0099
1848.0,-0.0097
1847.0,-0.0096
1846.0,-0.0095
1845.0,-0.0095
1844.0,-0.0093
1843.0,-0.0091
1842.0,-0.0089
1841.0,-0.0087
1840.0,-0.0084
1839.0,-0.0081
1838.0,-0.0079
1837.0,-0.0077
1836.0,-0.0074
1835.0,-0.0072
1834.0,-0.007
1833.0,-0.0068
1832.0,-0.0065
1831.0,-0.0063
1830.0,-0.0061
1829.0,-0.0058
1828.0,-0.0055
1827.0,-0.0052
1826.0,-0.005
1825.0,-0.0046
1824.0,-0.0043
1823.0,-0.004
1822.0,-0.0038
1821.0,-0.0036
1820.0,-0.0033
1819.0,-0.003
1818.0,-0.0028
1817.0,-0.0026
1816.0,-0.0023
1815.0,-0.002
1814.0,-0.0019
1813.0,-0.0017
1812.0,-0.0013
1811.0,-0.001
1810.0,-0.0007
1809.0,-0.0003
1808.0,0.0003
1807.0,0.0007
1806.0,0.001
1805.0,0.0015
1804.0,0.002
1803.0,0.0025
1802.0,0.003
1801.0,0.0037
1800.0,0.0046
1799.0,0.0054
1798.0,0.0061
1797.0,0.007
1796.0,0.0081
1795.0,0.0092
1794.0,0.0104
1793.0,0.0124
1792.0,0.0152
1791.0,0.0181
1790.0,0.0206
1789.0,0.0234
1788.0,0.0266
1787.0,0.0303
1786.0,0.0348
1785.0,0.0402
1784.0,0.0458
1783.0,0.0512
1782.0,0.0569
1781.0,0.0637
1780.0,0.0709
1779.0,0.0774
1778.0,0.083
1777.0,0.0887
1776.0,0.0944
1775.0,0.0997
1774.0,0.1055
1773.0,0.1138
1772.0,0.1238
1771.0,0.1322
1770.0,0.1393
1769.0,0.1477
1768.0,0.1582
1767.0,0.1693
1766.0,0.1796
1765.0,0.1899
1764.0,0.202
1763.0,0.2179
1762.0,0.2376
1761.0,0.2577
1760.0,0.2745
1759.0,0.2888
1758.0,0.3045
1757.0,0.3235
1756.0,0.341
1755.0,0.3524
1754.0,0.3595
1753.0,0.3664
1752.0,0.3741
1751.0,0.3804
1750.0,0.3844
1749.0,0.3867
1748.0,0.3857
1747.0,0.3804
1746.0,0.3721
1745.0,0.3617
1744.0,0.3482
1743.0,0.3319
1742.0,0.3144
1741.0,0.2947
1740.0,0.2717
1739.0,0.2494
1738.0,0.2322
1737.0,0.2187
1736.0,0.2039
1735.0,0.1838
1734.0,0.1626
1733.0,0.1483
1732.0,0.1389
1731.0,0.1306
1730.0,0.1226
1729.0,0.1153
1728.0,0.1089
1727.0,0.1035
1726.0,0.0989
1725.0,0.0947
1724.0,0.0904
1723.0,0.0867
1722.0,0.0837
1721.0,0.081
1720.0,0.0779
1719.0,0.0743
1718.0,0.0707
1717.0,0.0676
1716.0,0.0646
1715.0,0.0617
1714.0,0.0594
1713.0,0.0571
1712.0,0.0546
1711.0,0.0521
1710.0,0.0498
1709.0,0.0477
1708.0,0.0455
1707.0,0.0431
1706.0,0.0409
1705.0,0.039
1704.0,0.0374
1703.0,0.0359
1702.0,0.0344
1701.0,0.0326
1700.0,0.0306
1699.0,0.0291
1698.0,0.0281
1697.0,0.027
1696.0,0.0255
1695.0,0.0241
1694.0,0.0232
1693.0,0.0224
1692.0,0.0215
1691.0,0.0204
1690.0,0.0194
1689.0,0.0185
1688.0,0.0177
1687.0,0.0168
1686.0,0.0161
1685.0,0.0152
1684.0,0.0141
1683.0,0.0133
1682.0,0.0126
1681.0,0.012
1680.0,0.0112
1679.0,0.0104
1678.0,0.0098
1677.0,0.0091
1676.0,0.0081
1675.0,0.0072
1674.0,0.0066
1673.0,0.0062
1672.0,0.0056
1671.0,0.0049
1670.0,0.0041
1669.0,0.0034
1668.0,0.0027
1667.0,0.0021
1666.0,0.0017
1665.0,0.0012
1664.0,0.0005
1663.0,-0.0002
1662.0,-0.0008
1661.0,-0.0013
1660.0,-0.0018
1659.0,-0.0023
1658.0,-0.0028
1657.0,-0.0031
1656.0,-0.0036
1655.0,-0.0041
1654.0,-0.0046
1653.0,-0.0049
1652.0,-0.0052
1651.0,-0.0053
1650.0,-0.0051
1649.0,-0.005
1648.0,-0.005
1647.0,-0.0049
1646.0,-0.0045
1645.0,-0.0043
1644.0,-0.0041
1643.0,-0.0038
1642.0,-0.0034
1641.0,-0.0031
1640.0,-0.0029
1639.0,-0.0027
1638.0,-0.0027
1637.0,-0.0028
1636.0,-0.0033
1635.0,-0.004
1634.0,-0.0045
1633.0,-0.0051
1632.0,-0.0057
1631.0,-0.0063
1630.0,-0.0069
1629.0,-0.0074
1628.0,-0.0079
1627.0,-0.0082
1626.0,-0.0084
1625.0,-0.0087
1624.0,-0.0091
1623.0,-0.0095
1622.0,-0.0097
1621.0,-0.0097
1620.0,-0.0098
1619.0,-0.0099
1618.0,-0.0101
1617.0,-0.0102
1616.0,-0.0103
1615.0,-0.0104
1614.0,-0.0103
1613.0,-0.0103
1612.0,-0.0103
1611.0,-0.0103
1610.0,-0.0102
1609.0,-0.0102
1608.0,-0.0102
1607.0,-0.0101
1606.0,-0.0101
1605.0,-0.01
1604.0,-0.01
1603.0,-0.0099
1602.0,-0.0098
1601.0,-0.0096
1600.0,-0.0095
1599.0,-0.0094
1598.0,-0.0092
1597.0,-0.0091
1596.0,-0.009
1595.0,-0.0089
1594.0,-0.0087
1593.0,-0.0086
1592.0,-0.0085
1591.0,-0.0084
1590.0,-0.0083
1589.0,-0.0081
1588.0,-0.008
1587.0,-0.0078
1586.0,-0.0077
1585.0,-0.0075
1584.0,-0.0074
1583.0,-0.0073
1582.0,-0.0072
1581.0,-0.0071
1580.0,-0.0069
1579.0,-0.0069
1578.0,-0.0068
1577.0,-0.0068
1576.0,-0.0067
1575.0,-0.0066
1574.0,-0.0066
1573.0,-0.0065
1572.0,-0.0065
1571.0,-0.0065
1570.0,-0.0065
1569.0,-0.0064
1568.0,-0.0063
1567.0,-0.0062
1566.0,-0.0063
1565.0,-0.0062
1564.0,-0.0062
1563.0,-0.0061
1562.0,-0.006
1561.0,-0.006
1560.0,-0.006
1559.0,-0.0059
1558.0,-0.0059
1557.0,-0.0059
1556.0,-0.0059
1555.0,-0.0058
1554.0,-0.0057
1553.0,-0.0057
1552.0,-0.0056
1551.0,-0.0055
1550.0,-0.0055
1549.0,-0.0054
1548.0,-0.0053
1547.0,-0.0053
1546.0,-0.0053
1545.0,-0.0053
1544.0,-0.0053
1543.0,-0.0052
1542.0,-0.0053
1541.0,-0.0052
1540.0,-0.0049
1539.0,-0.0048
1538.0,-0.0049
1537.0,-0.0049
1536.0,-0.0049
1535.0,-0.0049
1534.0,-0.005
1533.0,-0.0049
1532.0,-0.0047
1531.0,-0.0047
1530.0,-0.0047
1529.0,-0.0046
1528.0,-0.0046
1527.0,-0.0046
1526.0,-0.0047
1525.0,-0.0047
1524.0,-0.0047
1523.0,-0.0047
1522.0,-0.0047
1521.0,-0.0046
1520.0,-0.0044
1519.0,-0.0044
1518.0,-0.0045
1517.0,-0.0045
1516.0,-0.0044
1515.0,-0.0044
1514.0,-0.0045
1513.0,-0.0045
1512.0,-0.0045
1511.0,-0.0045
1510.0,-0.0046
1509.0,-0.0046
1508.0,-0.0044
1507.0,-0.0042
1506.0,-0.0042
1505.0,-0.0043
1504.0,-0.0044
1503.0,-0.0044
1502.0,-0.0044
1501.0,-0.0044
1500.0,-0.0043
1499.0,-0.0042
1498.0,-0.0042
1497.0,-0.0042
1496.0,-0.0041
1495.0,-0.004
1494.0,-0.004
1493.0,-0.004
1492.0,-0.0039
1491.0,-0.0039
1490.0,-0.004
1489.0,-0.0039
1488.0,-0.0036
1487.0,-0.0035
1486.0,-0.0034
1485.0,-0.0032
1484.0,-0.0029
1483.0,-0.0027
1482.0,-0.0024
1481.0,-0.0021
1480.0,-0.0016
1479.0,-0.0012
1478.0,-0.0008
1477.0,-0.0001
1476.0,0.0008
1475.0,0.0017
1474.0,0.003
1473.0,0.0055
1472.0,0.0087
1471.0,0.0116
1470.0,0.0141
1469.0,0.017
1468.0,0.0204
1467.0,0.0246
1466.0,0.0304
1465.0,0.0381
1464.0,0.0459
1463.0,0.0522
1462.0,0.0573
1461.0,0.0621
1460.0,0.0669
1459.0,0.0724
1458.0,0.0801
1457.0,0.0894
1456.0,0.0953
1455.0,0.0978
1454.0,0.0992
1453.0,0.1002
1452.0,0.1007
1451.0,0.1006
1450.0,0.0997
1449.0,0.0978
1448.0,0.0946
1447.0,0.0904
1446.0,0.0855
1445.0,0.0799
1444.0,0.0733
1443.0,0.066
1442.0,0.0587
1441.0,0.0518
1440.0,0.0456
1439.0,0.0401
1438.0,0.0346
1437.0,0.0288
1436.0,0.0239
1435.0,0.021
1434.0,0.0191
1433.0,0.0174
1432.0,0.0156
1431.0,0.0139
1430.0,0.0124
1429.0,0.0111
1428.0,0.0101
1427.0,0.0093
1426.0,0.0086
1425.0,0.0078
1424.0,0.007
1423.0,0.0065
1422.0,0.0061
1421.0,0.0056
1420.0,0.0049
1419.0,0.0045
1418.0,0.0042
1417.0,0.0038
1416.0,0.0036
1415.0,0.0034
1414.0,0.0032
1413.0,0.0029
1412.0,0.0027
1411.0,0.0026
1410.0,0.0025
1409.0,0.0024
1408.0,0.0023
1407.0,0.0023
1406.0,0.0023
1405.0,0.0024
1404.0,0.0027
1403.0,0.0033
1402.0,0.0039
1401.0,0.0046
1400.0,0.0058
1399.0,0.0076
1398.0,0.0098
1397.0,0.0123
1396.0,0.0159
1395.0,0.0208
1394.0,0.0263
1393.0,0.0313
1392.0,0.0362
1391.0,0.0411
1390.0,0.0463
1389.0,0.052
1388.0,0.0587
1387.0,0.0658
1386.0,0.0717
1385.0,0.0759
1384.0,0.0789
1383.0,0.0809
1382.0,0.0815
1381.0,0.0807
1380.0,0.0785
1379.0,0.0752
1378.0,0.0712
1377.0,0.0672
1376.0,0.0638
1375.0,0.0616
1374.0,0.0613
1373.0,0.0625
1372.0,0.0646
1371.0,0.0671
1370.0,0.0698
1369.0,0.0724
1368.0,0.0747
1367.0,0.0764
1366.0,0.0775
1365.0,0.0784
1364.0,0.0794
1363.0,0.0805
1362.0,0.0817
1361.0,0.0825
1360.0,0.083
1359.0,0.0831
1358.0,0.0829
1357.0,0.0822
1356.0,0.0811
1355.0,0.0795
1354.0,0.0776
1353.0,0.0754
1352.0,0.073
1351.0,0.0704
1350.0,0.0676
1349.0,0.0648
1348.0,0.0621
1347.0,0.0596
1346.0,0.0572
1345.0,0.055
1344.0,0.053
1343.0,0.0512
1342.0,0.0494
1341.0,0.0477
1340.0,0.0461
1339.0,0.0447
1338.0,0.0434
1337.0,0.0423
1336.0,0.0413
1335.0,0.0403
1334.0,0.0393
1333.0,0.0384
1332.0,0.0376
1331.0,0.0369
1330.0,0.0363
1329.0,0.0358
1328.0,0.0354
1327.0,0.0351
1326.0,0.035
1325.0,0.0349
1324.0,0.0347
1323.0,0.0346
1322.0,0.0345
1321.0,0.0345
1320.0,0.0344
1319.0,0.0343
1318.0,0.0343
1317.0,0.0342
1316.0,0.0342
1315.0,0.0341
1314.0,0.0342
1313.0,0.0342
1312.0,0.0343
1311.0,0.0345
1310.0,0.0346
1309.0,0.0346
1308.0,0.0347
1307.0,0.0347
1306.0,0.0347
1305.0,0.0346
1304.0,0.0345
1303.0,0.0343
1302.0,0.0341
1301.0,0.0337
1300.0,0.0332
1299.0,0.0326
1298.0,0.0318
1297.0,0.0309
1296.0,0.0298
1295.0,0.0286
1294.0,0.0275
1293.0,0.0265
1292.0,0.0257
1291.0,0.0253
1290.0,0.0254
1289.0,0.0261
1288.0,0.0274
1287.0,0.0293
1286.0,0.0317
1285.0,0.0345
1284.0,0.0378
1283.0,0.0414
1282.0,0.0451
1281.0,0.0489
1280.0,0.0528
1279.0,0.0567
1278.0,0.0605
1277.0,0.0642
1276.0,0.0676
1275.0,0.0707
1274.0,0.0735
1273.0,0.076
1272.0,0.0782
1271.0,0.0801
1270.0,0.0816
1269.0,0.0827
1268.0,0.0835
1267.0,0.0839
1266.0,0.0839
1265.0,0.0835
1264.0,0.0828
1263.0,0.0819
1262.0,0.0808
1261.0,0.0794
1260.0,0.078
1259.0,0.0765
1258.0,0.075
1257.0,0.0734
1256.0,0.0719
1255.0,0.0705
1254.0,0.0692
1253.0,0.068
1252.0,0.0669
1251.0,0.0661
1250.0,0.0653
1249.0,0.0648
1248.0,0.0644
1247.0,0.0642
1246.0,0.0641
1245.0,0.0642
1244.0,0.0645
1243.0,0.0649
1242.0,0.0654
1241.0,0.066
1240.0,0.0668
1239.0,0.0678
1238.0,0.0689
1237.0,0.0701
1236.0,0.0715
1235.0,0.0731
1234.0,0.075
1233.0,0.0772
1232.0,0.0796
1231.0,0.0823
1230.0,0.0852
1229.0,0.0885
1228.0,0.092
1227.0,0.0959
1226.0,0.1001
1225.0,0.1045
1224.0,0.1092
1223.0,0.1142
1222.0,0.1193
1221.0,0.1246
1220.0,0.1301
1219.0,0.1356
1218.0,0.1412
1217.0,0.1467
1216.0,0.152
1215.0,0.1571
1214.0,0.1619
1213.0,0.1663
1212.0,0.1702
1211.0,0.1736
1210.0,0.1764
1209.0,0.1786
1208.0,0.1805
1207.0,0.182
1206.0,0.1834
1205.0,0.1846
1204.0,0.1858
1203.0,0.1872
1202.0,0.1888
1201.0,0.1907
1200.0,0.193
1199.0,0.196
1198.0,0.1996
1197.0,0.204
1196.0,0.2091
1195.0,0.2152
1194.0,0.2223
1193.0,0.2305
1192.0,0.2398
1191.0,0.2506
1190.0,0.2627
1189.0,0.2762
1188.0,0.291
1187.0,0.3071
1186.0,0.3237
1185.0,0.3401
1184.0,0.3551
1183.0,0.3676
1182.0,0.3756
1181.0,0.3773
1180.0,0.3717
1179.0,0.3586
1178.0,0.3388
1177.0,0.314
1176.0,0.2865
1175.0,0.2586
1174.0,0.2317
1173.0,0.2068
1172.0,0.1845
1171.0,0.1649
1170.0,0.1478
1169.0,0.1328
1168.0,0.1198
1167.0,0.1086
1166.0,0.0989
1165.0,0.0905
1164.0,0.0832
1163.0,0.0769
1162.0,0.0713
1161.0,0.0665
1160.0,0.0623
1159.0,0.0587
1158.0,0.0556
1157.0,0.0531
1156.0,0.0511
1155.0,0.0497
1154.0,0.0488
1153.0,0.0486
1152.0,0.0491
1151.0,0.0504
1150.0,0.0525
1149.0,0.0557
1148.0,0.0599
1147.0,0.0654
1146.0,0.0722
1145.0,0.0802
1144.0,0.0895
1143.0,0.0998
1142.0,0.1111
1141.0,0.1231
1140.0,0.1355
1139.0,0.1479
1138.0,0.1602
1137.0,0.1719
1136.0,0.1829
1135.0,0.1931
1134.0,0.2024
1133.0,0.2107
1132.0,0.2179
1131.0,0.2241
1130.0,0.2289
1129.0,0.2321
1128.0,0.2334
1127.0,0.2326
1126.0,0.2298
1125.0,0.2251
1124.0,0.2191
1123.0,0.2126
1122.0,0.2062
1121.0,0.2002
1120.0,0.1949
1119.0,0.1905
1118.0,0.1869
1117.0,0.1841
1116.0,0.1822
1115.0,0.1813
1114.0,0.1816
1113.0,0.1832
1112.0,0.1862
1111.0,0.1906
1110.0,0.1964
1109.0,0.2037
1108.0,0.2122
1107.0,0.2219
1106.0,0.2325
1105.0,0.2436
1104.0,0.2552
1103.0,0.2673
1102.0,0.2798
1101.0,0.2925
1100.0,0.3055
1099.0,0.3187
1098.0,0.3321
1097.0,0.3456
1096.0,0.3593
1095.0,0.3732
1094.0,0.3874
1093.0,0.4018
1092.0,0.4166
1091.0,0.4315
1090.0,0.4465
1089.0,0.4611
1088.0,0.4748
1087.0,0.4872
1086.0,0.4977
1085.0,0.5057
1084.0,0.5108
1083.0,0.5132
1082.0,0.5126
1081.0,0.509
1080.0,0.5026
1079.0,0.4935
1078.0,0.4822
1077.0,0.4685
1076.0,0.4529
1075.0,0.4358
1074.0,0.4173
1073.0,0.3981
1072.0,0.3784
1071.0,0.3587
1070.0,0.3393
1069.0,0.3205
1068.0,0.3028
1067.0,0.2865
1066.0,0.2719
1065.0,0.2594
1064.0,0.249
1063.0,0.2409
1062.0,0.2352
1061.0,0.2318
1060.0,0.2304
1059.0,0.2307
1058.0,0.2322
1057.0,0.2346
1056.0,0.2376
1055.0,0.2409
1054.0,0.2443
1053.0,0.2478
1052.0,0.2514
1051.0,0.2552
1050.0,0.2592
1049.0,0.2633
1048.0,0.2672
1047.0,0.2707
1046.0,0.2736
1045.0,0.2755
1044.0,0.2762
1043.0,0.2757
1042.0,0.2739
1041.0,0.2708
1040.0,0.2663
1039.0,0.2605
1038.0,0.2537
1037.0,0.2461
1036.0,0.2381
1035.0,0.23
1034.0,0.2222
1033.0,0.2149
1032.0,0.2083
1031.0,0.2024
1030.0,0.1972
1029.0,0.1927
1028.0,0.1885
1027.0,0.1846
1026.0,0.1807
1025.0,0.1767
1024.0,0.1724
1023.0,0.1677
1022.0,0.1627
1021.0,0.1574
1020.0,0.1519
1019.0,0.1463
1018.0,0.1407
1017.0,0.1351
1016.0,0.1296
1015.0,0.1243
1014.0,0.1193
1013.0,0.1147
1012.0,0.1105
1011.0,0.1067
1010.0,0.1032
1009.0,0.1001
1008.0,0.0973
1007.0,0.0946
1006.0,0.0922
1005.0,0.0899
1004.0,0.0878
1003.0,0.0859
1002.0,0.0841
1001.0,0.0825
1000.0,0.081
999.0,0.0795
998.0,0.0782
997.0,0.077
996.0,0.0759
995.0,0.0747
994.0,0.0736
993.0,0.0726
992.0,0.0715
991.0,0.0705
990.0,0.0695
989.0,0.0686
988.0,0.0678
987.0,0.067
986.0,0.0662
985.0,0.0654
984.0,0.0646
983.0,0.0637
982.0,0.0629
981.0,0.0621
980.0,0.0613
979.0,0.0606
978.0,0.0599
977.0,0.0593
976.0,0.0587
975.0,0.0581
974.0,0.0575
973.0,0.0569
972.0,0.0563
971.0,0.0558
970.0,0.0554
969.0,0.0551
968.0,0.0549
967.0,0.0547
966.0,0.0548
965.0,0.0552
964.0,0.056
963.0,0.0571
962.0,0.0586
961.0,0.0603
960.0,0.0621
959.0,0.0637
958.0,0.065
957.0,0.0659
956.0,0.0662
955.0,0.0661
954.0,0.0656
953.0,0.0648
952.0,0.0638
951.0,0.0627
950.0,0.0616
949.0,0.0607
948.0,0.0597
947.0,0.0588
946.0,0.0579
945.0,0.0572
944.0,0.0566
943.0,0.056
942.0,0.0554
941.0,0.0549
940.0,0.0545
939.0,0.0541
938.0,0.0537
937.0,0.0534
936.0,0.0532
935.0,0.0529
934.0,0.0528
933.0,0.0526
932.0,0.0525
931.0,0.0524
930.0,0.0523
929.0,0.0523
928.0,0.0523
927.0,0.0524
926.0,0.0525
925.0,0.0525
924.0,0.0525
923.0,0.0524
922.0,0.0523
921.0,0.0523
920.0,0.0523
919.0,0.0522
918.0,0.0521
917.0,0.052
916.0,0.0519
915.0,0.0517
914.0,0.0516
913.0,0.0514
912.0,0.0513
911.0,0.0513
910.0,0.0512
909.0,0.0511
908.0,0.051
907.0,0.0509
906.0,0.0508
905.0,0.0507
904.0,0.0505
903.0,0.0504
902.0,0.0503
901.0,0.0504
900.0,0.0506
899.0,0.0507
898.0,0.0507
897.0,0.0507
896.0,0.0507
895.0,0.0506
894.0,0.0505
893.0,0.0502
892.0,0.0498
891.0,0.0491
890.0,0.0483
889.0,0.0475
888.0,0.0468
887.0,0.0462
886.0,0.046
885.0,0.0463
884.0,0.0472
883.0,0.0487
882.0,0.051
881.0,0.0539
880.0,0.0574
879.0,0.0613
878.0,0.0656
877.0,0.07
876.0,0.0745
875.0,0.0787
874.0,0.0824
873.0,0.0857
872.0,0.0883
871.0,0.0904
870.0,0.0919
869.0,0.0928
868.0,0.0933
867.0,0.0933
866.0,0.093
865.0,0.0923
864.0,0.0911
863.0,0.0893
862.0,0.087
861.0,0.0841
860.0,0.0807
859.0,0.0769
858.0,0.0729
857.0,0.0689
856.0,0.065
855.0,0.0614
854.0,0.0584
853.0,0.0561
852.0,0.0545
851.0,0.0534
850.0,0.0527
849.0,0.0521
848.0,0.0515
847.0,0.0507
846.0,0.0496
845.0,0.0481
844.0,0.0465
843.0,0.0448
842.0,0.0432
841.0,0.0416
840.0,0.0403
839.0,0.039
838.0,0.038
837.0,0.0372
836.0,0.0365
835.0,0.0358
834.0,0.0351
833.0,0.0346
832.0,0.034
831.0,0.0336
830.0,0.0331
829.0,0.0326
828.0,0.0321
827.0,0.0317
826.0,0.0314
825.0,0.0311
824.0,0.0308
823.0,0.0304
822.0,0.0301
821.0,0.0297
820.0,0.0293
819.0,0.029
818.0,0.0287
817.0,0.0284
816.0,0.0281
815.0,0.0278
814.0,0.0276
813.0,0.0274
812.0,0.0273
811.0,0.0269
810.0,0.0265
809.0,0.0261
808.0,0.0258
807.0,0.0255
806.0,0.0254
805.0,0.0252
804.0,0.0251
803.0,0.0249
802.0,0.0246
801.0,0.0245
800.0,0.0243
799.0,0.0242
798.0,0.0241
797.0,0.0241
796.0,0.024
795.0,0.024
794.0,0.024
793.0,0.0242
792.0,0.0245
791.0,0.0249
790.0,0.0254
789.0,0.0261
788.0,0.0268
787.0,0.0275
786.0,0.0283
785.0,0.0291
784.0,0.03
783.0,0.031
782.0,0.032
781.0,0.0328
780.0,0.0336
779.0,0.0344
778.0,0.0353
777.0,0.0365
776.0,0.0378
775.0,0.0392
774.0,0.0405
773.0,0.042
772.0,0.0435
771.0,0.0452
770.0,0.047
769.0,0.0489
768.0,0.0509
767.0,0.053
766.0,0.0555
765.0,0.0583
764.0,0.0615
763.0,0.0648
762.0,0.0682
761.0,0.0715
760.0,0.0746
759.0,0.0773
758.0,0.0796
757.0,0.0814
756.0,0.0827
755.0,0.0833
754.0,0.0834
753.0,0.0831
752.0,0.0825
751.0,0.0817
750.0,0.0806
749.0,0.0794
748.0,0.0781
747.0,0.0767
746.0,0.0753
745.0,0.074
744.0,0.0727
743.0,0.0715
742.0,0.0703
741.0,0.0691
740.0,0.0675
739.0,0.0657
738.0,0.0637
737.0,0.0615
736.0,0.0587
735.0,0.0554
734.0,0.0516
733.0,0.0478
732.0,0.0445
731.0,0.0419
730.0,0.0398
729.0,0.0382
728.0,0.0371
727.0,0.0366
726.0,0.0366
725.0,0.0372
724.0,0.0382
723.0,0.0393
722.0,0.0402
721.0,0.0412
720.0,0.0428
719.0,0.0448
718.0,0.0469
717.0,0.0486
716.0,0.0503
715.0,0.0519
714.0,0.0535
713.0,0.0547
712.0,0.0555
711.0,0.056
710.0,0.0564
709.0,0.0565
708.0,0.0565
707.0,0.0564
706.0,0.0565
705.0,0.0566
704.0,0.0565
703.0,0.0564
702.0,0.0566
701.0,0.057
700.0,0.0572
699.0,0.057
698.0,0.0562
697.0,0.0552
696.0,0.0544
695.0,0.0541
694.0,0.0543
693.0,0.0545
692.0,0.0544
691.0,0.0536
690.0,0.0524
689.0,0.0512
688.0,0.0505
687.0,0.0503
686.0,0.0502
685.0,0.0504
684.0,0.0508
683.0,0.0513
682.0,0.0513
681.0,0.0507
680.0,0.0497
679.0,0.0491
678.0,0.0491
677.0,0.0496
676.0,0.05
675.0,0.0502
674.0,0.0498
673.0,0.0489
672.0,0.0482
671.0,0.0487
670.0,0.0512
669.0,0.0552
668.0,0.0594
667.0,0.0586
666.0,0.0535
665.0,0.0488
664.0,0.0461
663.0,0.0448
662.0,0.0442
661.0,0.0438
660.0,0.0433
659.0,0.0427
658.0,0.042
657.0,0.0417
656.0,0.0418
655.0,0.042
654.0,0.0421
653.0,0.042
652.0,0.0417
651.0,0.0412
650.0,0.0404
649.0,0.0396
648.0,0.0392
647.0,0.0392
646.0,0.0393
645.0,0.0392
644.0,0.039
643.0,0.0386
642.0,0.0382
641.0,0.0379
640.0,0.0378
639.0,0.038
638.0,0.0386
637.0,0.0399
636.0,0.0418
635.0,0.0434
634.0,0.0437
633.0,0.0424
632.0,0.0403
631.0,0.0383
630.0,0.0367
629.0,0.0353
628.0,0.0345
627.0,0.0341
626.0,0.034
625.0,0.0337
624.0,0.033
623.0,0.0322
622.0,0.0311
621.0,0.03
620.0,0.0292
619.0,0.0289
618.0,0.029
617.0,0.0294
616.0,0.0294
615.0,0.0289
614.0,0.0278
613.0,0.0265
612.0,0.0256
611.0,0.0251
610.0,0.0246
609.0,0.0239
608.0,0.0234
607.0,0.0234
606.0,0.0235
605.0,0.0236
604.0,0.0235
603.0,0.0235
602.0,0.0237
601.0,0.0242
600.0,0.0248
