nm,Intensity
526.508,829.2
526.645,830.8
526.782,830.8
526.919,832.3
527.055,831.5
527.192,831.2
527.329,831.2
527.465,830.9
527.602,830.9
527.739,830.2
527.875,831.2
528.012,830.1
528.149,830.9
528.285,830.4
528.422,831.0
528.558,830.8
528.695,830.4
528.832,831.0
528.968,830.4
529.105,829.8
529.241,830.6
529.378,830.7
529.514,832.1
529.651,830.8
529.787,831.6
529.924,830.3
530.061,830.6
530.197,831.7
530.334,831.1
530.47,830.5
530.606,830.0
530.743,829.0
530.879,831.4
531.016,829.4
531.152,831.1
531.289,830.2
531.425,830.8
531.562,829.9
531.698,832.4
531.834,830.3
531.971,834.3
532.107,851.8
532.244,863.8
532.38,840.5
532.516,832.6
532.653,830.2
532.789,829.7
532.925,830.2
533.062,830.6
533.198,831.1
533.334,830.5
533.471,832.8
533.607,843.4
533.743,947.9
533.879,1468.5
534.016,2351.2
534.152,2822.4
534.288,2847.1
534.424,2743.0
534.561,2672.8
534.697,2628.0
534.833,2550.0
534.969,2460.8
535.106,2394.0
535.242,2337.8
535.378,2282.9
535.514,2293.5
535.65,2250.7
535.786,2235.5
535.923,2190.5
536.059,2150.7
536.195,2114.1
536.331,2096.5
536.467,2074.8
536.603,2062.3
536.739,2054.4
536.876,2066.4
537.012,2051.8
537.148,2060.8
537.284,2046.6
537.42,2035.0
537.556,2034.9
537.692,2026.3
537.828,2041.8
537.964,2034.0
538.1,2043.9
538.236,2043.5
538.372,2044.2
538.508,2045.1
538.644,2047.3
538.78,2049.5
538.916,2053.5
539.052,2045.0
539.188,2049.1
539.324,2062.6
539.46,2077.1
539.596,2096.0
539.732,2113.6
539.868,2119.4
540.004,2131.8
540.14,2145.9
540.275,2124.6
540.411,2116.7
540.547,2117.9
540.683,2114.3
540.819,2108.1
540.955,2114.9
541.091,2103.8
541.227,2121.3
541.362,2129.5
541.498,2105.0
541.634,2128.3
541.77,2124.3
541.906,2127.6
542.041,2123.3
542.177,2132.8
542.313,2132.5
542.449,2140.4
542.585,2167.7
542.72,2170.4
542.856,2167.7
542.992,2191.8
543.128,2189.5
543.263,2183.8
543.399,2184.0
543.535,2192.8
543.67,2199.1
543.806,2208.3
543.942,2209.0
544.078,2224.4
544.213,2208.9
544.349,2214.8
544.485,2210.5
544.62,2231.2
544.756,2222.6
544.892,2250.9
545.027,2239.9
545.163,2250.2
545.298,2257.5
545.434,2247.5
545.57,2261.3
545.705,2264.9
545.841,2258.6
545.976,2266.3
546.112,2274.8
546.248,2273.2
546.383,2283.0
546.519,2286.6
546.654,2302.7
546.79,2303.6
546.925,2297.2
547.061,2306.4
547.196,2306.8
547.332,2293.5
547.467,2308.5
547.603,2332.3
547.738,2312.7
547.874,2318.2
548.009,2319.8
548.145,2330.5
548.28,2338.3
548.416,2354.4
548.551,2342.3
548.686,2344.3
548.822,2374.9
548.957,2359.0
549.093,2378.0
549.228,2374.6
549.363,2370.0
549.499,2381.2
549.634,2381.2
549.77,2381.2
549.905,2374.2
550.04,2392.3
550.176,2397.2
550.311,2418.2
550.446,2440.8
550.582,2575.9
550.717,2789.7
550.852,2604.8
550.988,2456.4
551.123,2429.9
551.258,2433.8
551.394,2439.0
551.529,2441.1
551.664,2443.6
551.799,2440.1
551.935,2462.4
552.07,2455.9
552.205,2456.4
552.34,2470.4
552.476,2472.6
552.611,2470.8
552.746,2526.4
552.881,2570.8
553.016,2552.0
553.152,2499.1
553.287,2496.2
553.422,2476.9
553.557,2498.8
553.692,2511.0
553.827,2500.5
553.963,2527.6
554.098,2524.4
554.233,2522.1
554.368,2527.4
554.503,2533.4
554.638,2525.4
554.773,2537.7
554.908,2552.1
555.043,2563.0
555.179,2565.6
555.314,2569.2
555.449,2575.9
555.584,2608.8
555.719,2631.5
555.854,2631.8
555.989,2629.6
556.124,2621.5
556.259,2642.7
556.394,2652.8
556.529,2644.0
556.664,2662.7
556.799,2680.1
556.934,2663.2
557.069,2690.9
557.204,2731.7
557.339,2806.2
557.474,2953.0
557.609,3126.3
557.744,3169.3
557.879,2965.7
558.014,2785.3
558.149,2728.4
558.284,2698.9
558.419,2704.4
558.553,2706.2
558.688,2690.3
558.823,2686.7
558.958,2683.5
559.093,2686.8
559.228,2675.0
559.363,2680.6
559.498,2684.8
559.632,2681.0
559.767,2706.2
559.902,2706.2
560.037,2712.7
560.172,2727.8
560.307,2712.5
560.441,2724.2
560.576,2720.8
560.711,2723.5
560.846,2727.4
560.981,2742.1
561.115,2747.9
561.25,2757.3
561.385,2769.6
561.52,2784.0
561.654,2783.4
561.789,2798.8
561.924,2808.4
562.059,2852.5
562.193,2849.1
562.328,2845.5
562.463,2833.0
562.598,2831.4
562.732,2834.0
562.867,2836.7
563.002,2851.9
563.136,2847.2
563.271,2860.1
563.406,2870.8
563.54,2847.9
563.675,2888.9
563.81,2892.0
563.944,2901.4
564.079,2906.1
564.213,2915.5
564.348,2929.1
564.483,2956.8
564.617,2995.6
564.752,3024.7
564.887,3066.5
565.021,3159.9
565.156,3248.0
565.29,3180.1
565.425,3131.4
565.559,3127.3
565.694,3159.1
565.828,3154.8
565.963,3148.2
566.098,3127.1
566.232,3080.9
566.367,3031.5
566.501,3018.7
566.636,2985.0
566.77,3001.3
566.905,2974.2
567.039,2958.8
567.174,2978.2
567.308,2977.4
567.443,3027.0
567.577,3062.8
567.711,3121.8
567.846,3115.7
567.98,3130.9
568.115,3089.3
568.249,3061.0
568.384,3048.5
568.518,3035.5
568.652,3072.1
568.787,3051.7
568.921,3066.2
569.056,3077.1
569.19,3077.7
569.324,3091.4
569.459,3085.7
569.593,3111.8
569.727,3143.6
569.862,3142.7
569.996,3129.4
570.131,3166.7
570.265,3177.3
570.399,3213.7
570.534,3225.5
570.668,3272.5
570.802,3326.4
570.936,3418.9
571.071,3520.3
571.205,3646.7
571.339,3729.4
571.474,3748.5
571.608,3666.8
571.742,3520.5
571.876,3444.1
572.011,3396.0
572.145,3384.4
572.279,3305.0
572.413,3259.2
572.548,3253.3
572.682,3245.5
572.816,3229.1
572.95,3242.6
573.084,3254.0
573.219,3248.9
573.353,3249.0
573.487,3262.3
573.621,3275.1
573.755,3280.2
573.889,3276.8
574.024,3277.7
574.158,3296.8
574.292,3288.5
574.426,3294.1
574.56,3305.7
574.694,3305.1
574.828,3306.0
574.963,3326.7
575.097,3312.3
575.231,3363.3
575.365,3400.9
575.499,3447.5
575.633,3438.4
575.767,3390.1
575.901,3361.5
576.035,3373.9
576.169,3363.1
576.303,3393.8
576.437,3389.9
576.571,3400.1
576.706,3429.1
576.84,3433.0
576.974,3440.8
577.108,3458.7
577.242,3453.3
577.376,3443.0
577.51,3429.9
577.644,3408.4
577.778,3398.2
577.912,3412.8
578.046,3416.3
578.179,3394.9
578.313,3430.9
578.447,3413.4
578.581,3430.7
578.715,3440.0
578.849,3441.5
578.983,3452.9
579.117,3442.2
579.251,3464.1
579.385,3474.8
579.519,3483.5
579.653,3480.3
579.787,3460.6
579.921,3467.2
580.054,3481.7
580.188,3479.0
580.322,3504.9
580.456,3493.7
580.59,3502.5
580.724,3531.9
580.858,3534.4
580.991,3553.6
581.125,3547.1
581.259,3540.7
581.393,3595.4
581.527,3595.7
581.661,3705.3
581.794,3922.4
581.928,4339.3
582.062,5071.8
582.196,5841.4
582.33,5440.2
582.463,4381.9
582.597,3873.4
582.731,3714.3
582.865,3659.6
582.998,3648.9
583.132,3614.7
583.266,3613.5
583.4,3603.9
583.533,3592.3
583.667,3625.3
583.801,3628.0
583.935,3639.8
584.068,3630.9
584.202,3653.1
584.336,3631.4
584.469,3681.9
584.603,3670.2
584.737,3659.4
584.87,3676.9
585.004,3658.6
585.138,3717.9
585.271,3742.5
585.405,3801.2
585.539,3945.3
585.672,4165.4
585.806,4473.2
585.94,4750.8
586.073,4876.6
586.207,4765.0
586.34,4574.5
586.474,4378.3
586.608,4194.0
586.741,4001.3
586.875,3871.4
587.008,3819.1
587.142,3805.7
587.276,3766.9
587.409,3781.7
587.543,3751.6
587.676,3755.9
587.81,3754.7
587.943,3755.7
588.077,3743.4
588.21,3732.4
588.344,3742.1
588.478,3722.1
588.611,3726.9
588.745,3727.5
588.878,3731.8
589.012,3751.7
589.145,3731.4
589.279,3729.7
589.412,3749.3
589.546,3728.1
589.679,3744.7
589.812,3740.7
589.946,3738.0
590.079,3741.8
590.213,3756.7
590.346,3740.6
590.48,3751.5
590.613,3748.0
590.747,3774.2
590.88,3791.2
591.013,3771.4
591.147,3785.6
591.28,3801.8
591.414,3781.0
591.547,3798.3
591.68,3805.1
591.814,3774.7
591.947,3797.8
592.081,3793.5
592.214,3782.0
592.347,3789.3
592.481,3765.5
592.614,3785.2
592.747,3799.2
592.881,3774.4
593.014,3789.6
593.147,3795.5
593.281,3787.8
593.414,3810.6
593.547,3796.9
593.681,3805.6
593.814,3806.8
593.947,3803.4
594.081,3811.0
594.214,3809.0
594.347,3800.1
594.48,3815.8
594.614,3814.8
594.747,3857.5
594.88,3841.6
595.014,3842.1
595.147,3864.5
595.28,3876.8
595.413,3872.7
595.547,3878.8
595.68,3893.7
595.813,3850.0
595.946,3892.9
596.079,3877.3
596.213,3873.4
596.346,3903.8
596.479,3897.9
596.612,3896.3
596.745,3903.3
596.879,3890.5
597.012,3880.3
597.145,3916.5
597.278,3905.3
597.411,3918.1
597.545,3928.5
597.678,3915.9
597.811,3945.3
597.944,3930.9
598.077,3945.7
598.21,3961.1
598.343,3980.4
598.476,3973.3
598.61,3967.9
598.743,3978.6
598.876,3979.5
599.009,4013.0
599.142,4004.7
599.275,4007.7
599.408,3987.5
599.541,4009.1
599.674,4002.9
599.807,4012.1
599.941,3995.4
600.074,4000.8
600.207,4002.7
600.34,3992.8
600.473,3997.1
600.606,4008.0
600.739,3984.3
600.872,3986.5
601.005,3989.0
601.138,4008.2
601.271,4010.0
601.404,3995.9
601.537,4009.6
601.67,4011.7
601.803,4009.8
601.936,4030.4
602.069,4005.1
602.202,4021.4
602.335,4027.4
602.468,4028.6
602.601,4042.9
602.734,4049.4
602.867,4078.2
603.0,4053.6
603.133,4064.8
603.266,4086.9
603.399,4090.5
603.532,4072.5
603.664,4101.1
603.797,4099.1
603.93,4098.9
604.063,4097.3
604.196,4086.2
604.329,4100.5
604.462,4095.4
604.595,4094.8
604.728,4094.5
604.861,4089.7
604.994,4073.4
605.126,4084.9
605.259,4097.5
605.392,4043.1
605.525,4053.9
605.658,4065.2
605.791,4069.4
605.924,4064.4
606.056,4068.1
606.189,4058.3
606.322,4066.2
606.455,4052.4
606.588,4066.6
606.721,4080.2
606.853,4116.4
606.986,4097.4
607.119,4094.7
607.252,4108.4
607.385,4132.0
607.517,4121.6
607.65,4142.0
607.783,4156.0
607.916,4158.4
608.049,4183.0
608.181,4184.1
608.314,4197.4
608.447,4199.3
608.58,4217.0
608.712,4207.4
608.845,4231.9
608.978,4225.7
609.111,4264.5
609.243,4270.3
609.376,4252.0
609.509,4272.5
609.641,4270.5
609.774,4256.7
609.907,4287.3
610.04,4284.1
610.172,4275.6
610.305,4300.7
610.438,4284.6
610.57,4288.4
610.703,4299.7
610.836,4313.1
610.968,4309.7
611.101,4322.4
611.234,4332.1
611.366,4340.9
611.499,4325.2
611.632,4359.3
611.764,4402.7
611.897,4391.2
612.03,4403.7
612.162,4426.9
612.295,4451.6
612.428,4463.5
612.56,4465.4
612.693,4484.4
612.825,4496.1
612.958,4513.4
613.091,4539.9
613.223,4567.8
613.356,4562.9
613.488,4582.3
613.621,4606.1
613.754,4604.9
613.886,4640.1
614.019,4634.1
614.151,4639.6
614.284,4658.5
614.416,4663.3
614.549,4669.7
614.681,4665.8
614.814,4676.8
614.947,4663.3
615.079,4697.5
615.212,4697.7
615.344,4717.0
615.477,4688.6
615.609,4722.3
615.742,4715.3
615.874,4716.8
616.007,4733.1
616.139,4746.5
616.272,4745.5
616.404,4756.8
616.537,4768.1
616.669,4786.6
616.802,4794.1
616.934,4825.9
617.067,4848.2
617.199,4847.0
617.332,4865.4
617.464,4879.4
617.596,4891.4
617.729,4916.2
617.861,4911.4
617.994,4935.4
618.126,4973.2
618.259,4958.1
618.391,4972.6
618.524,4991.0
618.656,4981.1
618.788,5009.0
618.921,5015.3
619.053,4979.0
619.186,4971.7
619.318,5014.1
619.45,5024.0
619.583,5031.4
619.715,5012.5
619.848,5051.9
619.98,5078.2
620.112,5055.6
620.245,5034.9
620.377,5057.1
620.509,5083.7
620.642,5091.0
620.774,5109.0
620.907,5089.7
621.039,5117.9
621.171,5148.9
621.304,5142.6
621.436,5144.6
621.568,5183.2
621.701,5174.4
621.833,5167.1
621.965,5201.6
622.097,5210.3
622.23,5226.6
622.362,5258.7
622.494,5276.4
622.627,5304.1
622.759,5288.9
622.891,5294.6
623.024,5338.5
623.156,5344.7
623.288,5351.3
623.42,5372.9
623.553,5388.4
623.685,5417.7
623.817,5420.8
623.949,5431.9
624.082,5461.0
624.214,5451.6
624.346,5495.2
624.479,5499.0
624.611,5492.4
624.743,5532.4
624.875,5545.5
625.007,5529.0
625.14,5545.5
625.272,5578.0
625.404,5562.6
625.536,5558.9
625.669,5585.9
625.801,5590.5
625.933,5591.8
626.065,5624.6
626.197,5584.6
626.33,5611.5
626.462,5613.8
626.594,5634.9
626.726,5650.7
626.858,5634.9
626.99,5652.3
627.123,5682.7
627.255,5673.1
627.387,5709.9
627.519,5706.7
627.651,5726.5
627.783,5711.3
627.916,5756.5
628.048,5774.0
628.18,5751.3
628.312,5791.3
628.444,5792.2
628.576,5821.7
628.708,5804.0
628.84,5853.5
628.973,5905.0
629.105,5879.8
629.237,5907.1
629.369,5913.3
629.501,5930.9
629.633,5987.2
629.765,5975.2
629.897,5963.4
630.029,5975.1
630.161,5972.5
630.294,5996.1
630.426,6000.0
630.558,6012.9
630.69,6016.1
630.822,6027.7
630.954,6092.9
631.086,6088.5
631.218,6125.2
631.35,6178.8
631.482,6202.0
631.614,6234.0
631.746,6277.6
631.878,6287.0
632.01,6336.6
632.142,6295.5
632.274,6299.7
632.406,6243.9
632.538,6233.3
632.67,6242.1
632.802,6264.6
632.934,6213.2
633.066,6266.5
633.198,6270.0
633.33,6285.6
633.462,6279.5
633.594,6267.4
633.726,6268.8
633.858,6250.7
633.99,6255.0
634.122,6267.7
634.254,6259.8
634.386,6270.4
634.518,6248.7
634.65,6271.9
634.782,6246.2
634.914,6255.8
635.046,6295.2
635.178,6294.6
635.31,6322.8
635.442,6378.2
635.574,6400.4
635.706,6415.8
635.838,6463.2
635.97,6566.8
636.102,6621.2
636.234,6672.5
636.365,6762.5
636.497,6869.2
636.629,6941.2
636.761,6925.0
636.893,6812.5
637.025,6696.4
637.157,6609.7
637.289,6580.1
637.421,6532.9
637.553,6550.8
637.685,6524.9
637.816,6512.5
637.948,6510.5
638.08,6546.9
638.212,6555.8
638.344,6546.3
638.476,6532.8
638.608,6554.4
638.74,6546.1
638.871,6577.0
639.003,6600.1
639.135,6587.5
639.267,6616.1
639.399,6589.5
639.531,6609.9
639.662,6605.0
639.794,6636.4
639.926,6637.6
640.058,6655.0
640.19,6672.1
640.322,6667.1
640.453,6639.7
640.585,6652.5
640.717,6655.3
640.849,6684.2
640.981,6722.1
641.113,6717.9
641.244,6729.1
641.376,6711.6
641.508,6729.8
641.64,6717.7
641.772,6756.9
641.903,6771.1
642.035,6779.4
642.167,6754.0
642.299,6737.8
642.43,6785.6
642.562,6765.4
642.694,6804.7
642.826,6781.8
642.958,6751.1
643.089,6760.4
643.221,6725.0
643.353,6739.5
643.485,6745.6
643.616,6702.2
643.748,6731.8
643.88,6731.9
644.012,6714.8
644.143,6715.5
644.275,6738.8
644.407,6740.8
644.538,6715.2
644.67,6717.1
644.802,6751.1
644.934,6754.3
645.065,6708.1
645.197,6737.3
645.329,6719.6
645.461,6759.7
645.592,6747.5
645.724,6760.9
645.856,6750.2
645.987,6750.4
646.119,6771.9
646.251,6786.4
646.382,6789.7
646.514,6796.7
646.646,6799.8
646.777,6831.2
646.909,6815.9
647.041,6833.4
647.172,6849.0
647.304,6844.9
647.436,6886.1
647.567,6889.2
647.699,6848.6
647.831,6859.3
647.962,6897.0
648.094,6870.0
648.226,6866.2
648.357,6847.3
648.489,6881.3
648.621,6862.3
648.752,6870.7
648.884,6875.7
649.016,6854.2
649.147,6822.5
649.279,6818.0
649.411,6844.4
649.542,6833.0
649.674,6877.6
649.805,6845.8
649.937,6844.1
650.069,6865.2
650.2,6868.2
650.332,6838.3
650.463,6856.9
650.595,6850.2
650.727,6850.2
650.858,6881.4
650.99,6876.6
651.121,6860.7
651.253,6866.6
651.385,6876.9
651.516,6890.1
651.648,6909.8
651.779,6874.3
651.911,6895.7
652.043,6875.6
652.174,6910.4
652.306,6929.0
652.437,6921.5
652.569,6934.8
652.7,6920.9
652.832,6951.3
652.963,6953.9
653.095,6913.0
653.227,6946.1
653.358,6932.9
653.49,6917.2
653.621,6952.1
653.753,6947.1
653.884,6953.8
654.016,6978.7
654.147,6961.3
654.279,6984.9
654.41,6976.2
654.542,6955.2
654.674,6962.2
654.805,6949.8
654.937,6980.7
655.068,6943.0
655.2,6949.5
655.331,6965.4
655.463,6963.9
655.594,7001.0
655.726,6987.9
655.857,6971.2
655.989,6934.9
656.12,6979.3
656.252,6969.3
656.383,6966.7
656.515,6944.7
656.646,6949.9
656.778,6992.9
656.909,6995.5
657.041,6994.3
657.172,7003.6
657.304,7010.9
657.435,6985.2
657.567,6994.4
657.698,7026.5
657.829,7001.5
657.961,7027.4
658.092,7044.6
658.224,6993.1
658.355,7048.9
658.487,7031.7
658.618,7042.7
658.75,7037.0
658.881,7024.6
659.013,7023.2
659.144,7044.8
659.275,7069.8
659.407,7078.6
659.538,7065.6
659.67,7019.5
659.801,7059.6
659.933,7063.3
660.064,7065.0
660.196,7017.7
660.327,6989.2
660.458,7009.3
660.59,7007.9
660.721,7008.4
660.853,7017.3
660.984,6985.0
661.116,7003.2
661.247,7007.6
661.378,7005.0
661.51,6913.9
661.641,6967.3
661.773,6960.5
661.904,6958.9
662.035,6956.1
662.167,6959.5
662.298,6936.9
662.43,6929.3
662.561,6944.5
662.692,6961.5
662.824,6921.3
662.955,6920.0
663.087,6924.5
