nm,Intensity
526.486,830.267
526.622,829.667
526.759,829.367
526.896,829.867
527.033,828.967
527.169,829.533
527.306,828.933
527.443,829.433
527.579,829.333
527.716,828.967
527.853,828.133
527.989,829.6
528.126,828.833
528.263,829.067
528.399,829.2
528.536,829.5
528.672,828.667
528.809,828.2
528.946,829.167
529.082,829.367
529.219,830.233
529.355,829.167
529.492,829.3
529.628,829.467
529.765,828.967
529.901,828.967
530.038,829.967
530.174,829.2
530.311,829.567
530.447,829.467
530.584,829.133
530.72,828.767
530.857,829.633
530.993,827.6
531.13,829.0
531.266,829.267
531.403,829.2
531.539,829.4
531.676,829.7
531.812,828.767
531.948,832.1
532.085,859.033
532.221,884.2
532.358,847.233
532.494,830.3
532.63,828.867
532.767,829.1
532.903,829.5
533.039,829.1
533.176,829.2
533.312,829.333
533.448,828.633
533.585,828.967
533.721,836.333
533.857,876.1
533.993,955.967
534.13,1007.33
534.266,1021.3
534.402,1017.07
534.539,1016.9
534.675,1026.7
534.811,1029.4
534.947,1025.27
535.083,1022.87
535.22,1023.9
535.356,1025.23
535.492,1027.77
535.628,1028.3
535.764,1031.97
535.901,1032.17
536.037,1030.1
536.173,1032.43
536.309,1032.4
536.445,1032.2
536.581,1033.97
536.717,1030.13
536.854,1035.8
536.99,1033.43
537.126,1039.2
537.262,1038.33
537.398,1037.23
537.534,1035.33
537.67,1036.23
537.806,1037.67
537.942,1036.83
538.078,1040.77
538.214,1040.5
538.35,1042.63
538.486,1042.73
538.622,1043.5
538.758,1039.97
538.894,1041.37
539.03,1040.57
539.166,1042.23
539.302,1046.47
539.438,1044.27
539.574,1043.83
539.71,1041.4
539.846,1040.5
539.982,1047.1
540.118,1046.77
540.254,1043.6
540.39,1048.83
540.526,1045.57
540.662,1047.67
540.798,1045.63
540.933,1048.77
541.069,1046.7
541.205,1051.67
541.341,1048.33
541.477,1044.53
541.613,1050.5
541.749,1048.47
541.884,1048.23
542.02,1048.9
542.156,1051.43
542.292,1050.17
542.428,1052.53
542.563,1049.9
542.699,1052.33
542.835,1050.33
542.971,1054.67
543.106,1053.47
543.242,1056.23
543.378,1052.3
543.514,1054.1
543.649,1059.4
543.785,1060.33
543.921,1056.47
544.057,1053.8
544.192,1055.33
544.328,1056.8
544.464,1057.9
544.599,1055.57
544.735,1054.2
544.871,1057.77
545.006,1061.07
545.142,1058.43
545.278,1056.83
545.413,1059.93
545.549,1061.3
545.684,1063.17
545.82,1059.57
545.956,1057.23
546.091,1057.97
546.227,1059.57
546.362,1058.17
546.498,1057.43
546.634,1059.83
546.769,1056.1
546.905,1060.77
547.04,1061.8
547.176,1060.8
547.311,1058.83
547.447,1061.3
547.582,1064.9
547.718,1061.3
547.853,1057.57
547.989,1060.63
548.124,1057.67
548.26,1056.0
548.395,1063.83
548.531,1062.2
548.666,1063.47
548.802,1063.07
548.937,1059.4
549.072,1061.9
549.208,1061.2
549.343,1062.83
549.479,1060.03
549.614,1061.8
549.75,1063.37
549.885,1060.73
550.02,1061.03
550.156,1064.13
550.291,1057.3
550.426,1059.23
550.562,1060.2
550.697,1061.97
550.832,1060.87
550.968,1063.07
551.103,1061.53
551.238,1063.87
551.374,1063.83
551.509,1058.9
551.644,1061.67
551.78,1064.97
551.915,1063.13
552.05,1063.77
552.185,1065.2
552.321,1063.57
552.456,1066.83
552.591,1066.9
552.726,1059.53
552.862,1063.43
552.997,1061.97
553.132,1063.53
553.267,1061.13
553.403,1063.03
553.538,1061.67
553.673,1067.27
553.808,1066.73
553.943,1065.07
554.078,1064.73
554.214,1065.3
554.349,1068.57
554.484,1066.6
554.619,1065.13
554.754,1067.27
554.889,1065.97
555.024,1069.7
555.16,1065.4
555.295,1064.03
555.43,1064.17
555.565,1064.37
555.7,1064.0
555.835,1065.17
555.97,1068.83
556.105,1075.9
556.24,1071.23
556.375,1067.03
556.51,1066.2
556.645,1066.67
556.78,1069.43
556.915,1068.47
557.05,1073.13
557.185,1071.1
557.32,1068.17
557.455,1063.2
557.59,1063.93
557.725,1068.97
557.86,1066.67
557.995,1066.87
558.13,1066.53
558.265,1064.33
558.4,1064.83
558.535,1067.23
558.67,1062.47
558.805,1067.27
558.94,1066.97
559.075,1067.27
559.21,1068.6
559.345,1068.13
559.479,1069.3
559.614,1069.93
559.749,1073.27
559.884,1071.43
560.019,1073.9
560.154,1075.23
560.289,1072.33
560.424,1073.23
560.558,1073.67
560.693,1075.47
560.828,1074.43
560.963,1076.67
561.098,1079.07
561.232,1075.2
561.367,1080.87
561.502,1077.37
561.637,1075.83
561.772,1074.33
561.906,1073.4
562.041,1078.13
562.176,1079.03
562.311,1082.03
562.445,1076.93
562.58,1075.33
562.715,1083.23
562.85,1084.5
562.984,1085.33
563.119,1086.03
563.254,1088.27
563.388,1089.2
563.523,1090.03
563.658,1086.1
563.792,1090.4
563.927,1091.47
564.062,1091.97
564.196,1094.77
564.331,1096.6
564.466,1094.57
564.6,1098.23
564.735,1097.1
564.87,1103.57
565.004,1097.33
565.139,1101.03
565.273,1098.5
565.408,1096.67
565.543,1097.53
565.677,1102.47
565.812,1102.57
565.946,1101.87
566.081,1100.97
566.215,1098.43
566.35,1101.1
566.485,1103.2
566.619,1102.03
566.754,1102.5
566.888,1107.2
567.023,1106.43
567.157,1108.0
567.292,1104.0
567.426,1111.6
567.561,1106.37
567.695,1109.23
567.83,1107.7
567.964,1109.13
568.099,1104.1
568.233,1113.9
568.368,1113.53
568.502,1114.0
568.636,1114.67
568.771,1116.33
568.905,1120.27
569.04,1120.07
569.174,1122.73
569.309,1123.1
569.443,1126.5
569.577,1126.2
569.712,1125.73
569.846,1124.7
569.98,1127.13
570.115,1126.87
570.249,1127.83
570.384,1132.17
570.518,1130.67
570.652,1133.93
570.787,1131.83
570.921,1130.8
571.055,1137.0
571.19,1139.23
571.324,1135.1
571.458,1136.63
571.592,1138.63
571.727,1146.83
571.861,1141.3
571.995,1141.87
572.13,1142.6
572.264,1142.53
572.398,1146.17
572.532,1150.87
572.667,1152.37
572.801,1158.17
572.935,1160.6
573.069,1153.0
573.204,1155.77
573.338,1157.2
573.472,1156.93
573.606,1156.83
573.74,1159.5
573.875,1165.17
574.009,1167.57
574.143,1165.57
574.277,1165.7
574.411,1164.2
574.545,1165.1
574.68,1164.43
574.814,1167.97
574.948,1169.67
575.082,1168.03
575.216,1168.1
575.35,1168.07
575.484,1172.5
575.619,1173.13
575.753,1172.53
575.887,1174.4
576.021,1175.97
576.155,1178.9
576.289,1181.57
576.423,1182.6
576.557,1181.33
576.691,1185.33
576.825,1188.87
576.959,1190.7
577.093,1195.63
577.227,1192.6
577.361,1188.2
577.495,1190.7
577.629,1188.97
577.763,1190.1
577.897,1187.8
578.031,1186.6
578.165,1192.67
578.299,1193.4
578.433,1193.77
578.567,1190.23
578.701,1197.1
578.835,1197.67
578.969,1198.23
579.103,1198.17
579.237,1201.8
579.371,1206.57
579.505,1202.97
579.639,1206.77
579.773,1206.57
579.907,1206.07
580.041,1203.5
580.175,1211.93
580.309,1207.43
580.442,1214.1
580.576,1215.2
580.71,1213.87
580.844,1214.1
580.978,1220.57
581.112,1217.83
581.246,1220.0
581.38,1219.0
581.513,1220.67
581.647,1222.7
581.781,1222.7
581.915,1225.1
582.049,1224.87
582.183,1227.73
582.316,1225.37
582.45,1225.3
582.584,1229.8
582.718,1227.43
582.852,1229.47
582.985,1229.9
583.119,1228.3
583.253,1235.0
583.387,1234.27
583.52,1232.07
583.654,1235.7
583.788,1234.53
583.922,1236.87
584.055,1235.57
584.189,1233.13
584.323,1235.7
584.456,1239.17
584.59,1239.73
584.724,1245.03
584.858,1242.53
584.991,1242.03
585.125,1241.17
585.259,1244.77
585.392,1241.9
585.526,1244.13
585.66,1245.97
585.793,1246.3
585.927,1252.13
586.061,1251.53
586.194,1249.77
586.328,1253.23
586.462,1255.4
586.595,1255.23
586.729,1262.33
586.862,1261.3
586.996,1258.5
587.13,1264.23
587.263,1259.03
587.397,1264.77
587.53,1266.1
587.664,1261.77
587.797,1267.67
587.931,1265.8
588.065,1263.0
588.198,1262.47
588.332,1258.3
588.465,1265.7
588.599,1265.43
588.732,1263.17
588.866,1267.6
588.999,1266.07
589.133,1267.6
589.266,1266.43
589.4,1261.83
589.533,1267.0
589.667,1271.47
589.8,1271.1
589.934,1272.47
590.067,1275.13
590.201,1274.07
590.334,1272.83
590.468,1271.93
590.601,1276.67
590.735,1278.33
590.868,1276.83
591.001,1278.07
591.135,1276.43
591.268,1271.67
591.402,1277.37
591.535,1279.37
591.669,1275.63
591.802,1279.23
591.935,1285.53
592.069,1278.9
592.202,1281.97
592.335,1281.13
592.469,1278.5
592.602,1283.7
592.736,1284.07
592.869,1283.1
593.002,1281.37
593.136,1278.47
593.269,1283.73
593.402,1282.33
593.536,1281.97
593.669,1276.27
593.802,1285.6
593.936,1284.83
594.069,1281.8
594.202,1283.87
594.336,1288.6
594.469,1286.57
594.602,1290.03
594.735,1293.0
594.869,1289.8
595.002,1286.17
595.135,1297.17
595.268,1292.53
595.402,1292.47
595.535,1296.87
595.668,1296.37
595.801,1294.83
595.935,1296.1
596.068,1298.2
596.201,1298.9
596.334,1295.5
596.468,1293.57
596.601,1297.97
596.734,1294.27
596.867,1298.77
597.0,1302.63
597.133,1301.0
597.267,1297.1
597.4,1302.4
597.533,1301.3
597.666,1299.33
597.799,1303.0
597.932,1303.9
598.066,1304.13
598.199,1308.63
598.332,1306.43
598.465,1302.7
598.598,1304.87
598.731,1307.53
598.864,1315.0
598.998,1313.0
599.131,1305.43
599.264,1309.77
599.397,1304.9
599.53,1309.73
599.663,1307.13
599.796,1312.0
599.929,1306.67
600.062,1306.8
600.195,1309.4
600.328,1305.2
600.461,1306.7
600.594,1305.7
600.727,1306.57
600.86,1300.1
600.994,1305.17
601.127,1305.83
601.26,1303.83
601.393,1300.9
601.526,1301.63
601.659,1302.6
601.792,1300.33
601.925,1302.6
602.058,1299.83
602.191,1308.8
602.324,1301.57
602.457,1305.0
602.589,1309.5
602.722,1302.57
602.855,1304.03
602.988,1308.8
603.121,1310.83
603.254,1304.13
603.387,1308.53
603.52,1309.63
603.653,1309.47
603.786,1306.23
603.919,1309.33
604.052,1305.23
604.185,1303.33
604.318,1303.5
604.451,1305.2
604.583,1300.73
604.716,1297.77
604.849,1296.6
604.982,1297.17
605.115,1289.8
605.248,1291.3
605.381,1291.2
605.514,1291.9
605.646,1285.5
605.779,1293.63
605.912,1285.37
606.045,1287.93
606.178,1287.83
606.311,1283.13
606.443,1285.9
606.576,1286.57
606.709,1285.23
606.842,1285.9
606.975,1284.57
607.107,1286.87
607.24,1280.47
607.373,1289.67
607.506,1286.7
607.639,1285.27
607.771,1285.43
607.904,1287.23
608.037,1287.8
608.17,1287.6
608.302,1290.47
608.435,1286.7
608.568,1289.0
608.701,1289.17
608.833,1291.27
608.966,1289.7
609.099,1293.03
609.232,1286.43
609.364,1288.23
609.497,1286.07
609.63,1284.47
609.762,1280.4
609.895,1284.9
610.028,1285.8
610.161,1282.0
610.293,1277.33
610.426,1282.3
610.559,1280.6
610.691,1281.9
610.824,1278.27
610.957,1276.67
611.089,1278.9
611.222,1280.7
611.355,1274.6
611.487,1276.4
611.62,1281.8
611.752,1282.43
611.885,1279.5
612.018,1281.63
612.15,1281.83
612.283,1284.63
612.416,1286.3
612.548,1286.27
612.681,1284.23
612.813,1285.33
612.946,1284.37
613.078,1287.73
613.211,1289.3
613.344,1291.33
613.476,1291.27
613.609,1289.17
613.741,1287.03
613.874,1293.2
614.006,1288.2
614.139,1289.1
614.272,1289.8
614.404,1287.83
614.537,1285.2
614.669,1289.67
614.802,1289.23
614.934,1283.67
615.067,1283.0
615.199,1282.53
615.332,1281.67
615.464,1281.4
615.597,1281.6
615.729,1280.33
615.862,1279.13
615.994,1280.57
616.127,1277.4
616.259,1277.2
616.392,1279.0
616.524,1275.4
616.657,1278.73
616.789,1279.57
616.922,1279.37
617.054,1275.43
617.186,1277.67
617.319,1272.07
617.451,1276.27
617.584,1281.1
617.716,1280.07
617.849,1275.97
617.981,1279.13
618.113,1275.63
618.246,1276.77
618.378,1277.2
618.511,1272.03
618.643,1271.5
618.775,1275.77
618.908,1272.57
619.04,1274.7
619.173,1268.53
619.305,1271.33
619.437,1268.43
619.57,1266.4
619.702,1269.67
619.834,1265.33
619.967,1269.17
620.099,1269.53
620.231,1266.53
620.364,1261.8
620.496,1264.53
620.628,1262.97
620.761,1263.57
620.893,1261.83
621.025,1263.43
621.158,1263.37
621.29,1261.17
621.422,1261.83
621.555,1262.43
621.687,1258.8
621.819,1259.47
621.952,1262.07
622.084,1259.97
622.216,1260.87
622.348,1263.3
622.481,1261.93
622.613,1263.6
622.745,1258.77
622.878,1259.1
623.01,1262.6
623.142,1256.47
623.274,1258.87
623.407,1261.57
623.539,1255.57
623.671,1260.9
623.803,1253.5
623.935,1257.57
624.068,1256.37
624.2,1260.3
624.332,1251.93
624.464,1253.93
624.597,1252.73
624.729,1254.77
624.861,1252.9
624.993,1258.57
625.125,1253.5
625.258,1250.47
625.39,1251.03
625.522,1252.57
625.654,1250.07
625.786,1253.43
625.918,1251.83
626.051,1248.77
626.183,1254.0
626.315,1248.23
626.447,1249.6
626.579,1252.07
626.711,1252.03
626.844,1256.93
626.976,1263.33
627.108,1261.73
627.24,1257.7
627.372,1251.27
627.504,1249.93
627.636,1252.5
627.768,1253.87
627.901,1260.3
628.033,1271.03
628.165,1266.9
628.297,1274.77
628.429,1275.87
628.561,1279.8
628.693,1286.33
628.825,1283.93
628.957,1273.57
629.089,1272.87
629.221,1268.77
629.354,1267.23
629.486,1268.93
629.618,1270.93
629.75,1264.33
629.882,1261.97
630.014,1261.13
630.146,1259.37
630.278,1263.33
630.41,1261.27
630.542,1254.4
630.674,1248.97
630.806,1248.93
630.938,1247.43
631.07,1251.37
631.202,1247.37
631.334,1253.27
631.466,1258.2
631.598,1254.8
631.73,1259.13
631.862,1259.57
631.994,1249.2
632.126,1248.57
632.258,1243.1
632.39,1240.07
632.522,1230.1
632.654,1226.4
632.786,1227.43
632.918,1226.77
633.05,1224.03
633.182,1222.0
633.314,1225.33
633.446,1224.6
633.578,1222.67
633.71,1217.6
633.842,1218.4
633.974,1217.2
634.106,1215.07
634.237,1217.5
634.369,1213.6
634.501,1218.17
634.633,1211.43
634.765,1215.93
634.897,1214.03
635.029,1217.7
635.161,1211.87
635.293,1212.53
635.425,1212.87
635.557,1210.87
635.689,1211.27
635.82,1210.6
635.952,1213.27
636.084,1214.33
636.216,1212.73
636.348,1211.6
636.48,1209.6
636.612,1212.2
636.744,1213.2
636.875,1208.77
637.007,1209.17
637.139,1206.93
637.271,1208.67
637.403,1208.07
637.535,1206.57
637.667,1208.63
637.798,1201.2
637.93,1209.43
638.062,1208.73
638.194,1204.63
638.326,1208.97
638.458,1207.07
638.589,1207.13
638.721,1205.23
638.853,1202.63
638.985,1203.4
639.117,1200.47
639.248,1202.87
639.38,1205.07
639.512,1201.87
639.644,1204.17
639.776,1199.13
639.907,1204.53
640.039,1205.4
640.171,1203.77
640.303,1202.6
640.435,1201.1
640.566,1199.03
640.698,1201.13
640.83,1206.27
640.962,1198.07
641.093,1201.83
641.225,1198.83
641.357,1199.63
641.489,1199.0
641.62,1196.3
641.752,1201.0
641.884,1197.97
642.016,1198.17
642.147,1200.03
642.279,1200.93
642.411,1199.5
642.543,1198.03
642.674,1194.37
642.806,1192.73
642.938,1193.03
643.069,1191.57
643.201,1190.9
643.333,1192.67
643.465,1194.03
643.596,1193.13
643.728,1189.2
643.86,1187.57
643.991,1184.77
644.123,1186.33
644.255,1183.97
644.386,1183.17
644.518,1188.27
644.65,1187.3
644.781,1184.57
644.913,1183.73
645.045,1183.73
645.176,1185.6
645.308,1181.4
645.44,1182.33
645.571,1182.1
645.703,1181.57
645.835,1185.53
645.966,1181.57
646.098,1185.93
646.23,1182.87
646.361,1185.67
646.493,1184.5
646.625,1187.57
646.756,1187.7
646.888,1188.23
647.019,1184.67
647.151,1179.23
647.283,1186.17
647.414,1186.57
647.546,1181.8
647.678,1183.7
647.809,1184.3
647.941,1189.77
648.072,1183.8
648.204,1184.53
648.336,1179.77
648.467,1181.53
648.599,1182.3
648.73,1183.7
648.862,1185.2
648.993,1184.2
649.125,1180.73
649.257,1179.37
649.388,1179.67
649.52,1181.27
649.651,1181.27
649.783,1177.97
649.914,1179.0
650.046,1179.67
650.178,1175.73
650.309,1174.43
650.441,1179.87
650.572,1182.03
650.704,1175.5
650.835,1175.7
650.967,1176.87
651.098,1173.57
651.23,1179.03
651.361,1178.7
651.493,1179.33
651.625,1179.3
651.756,1180.3
651.888,1180.63
652.019,1176.3
652.151,1180.4
652.282,1178.43
652.414,1177.63
652.545,1178.5
652.677,1180.8
652.808,1181.93
652.94,1179.67
653.071,1180.7
653.203,1179.57
653.334,1178.67
653.466,1181.9
653.597,1180.47
653.729,1176.93
653.86,1178.97
653.992,1178.43
654.123,1177.57
654.255,1180.27
654.386,1180.23
654.518,1179.13
654.649,1180.07
654.78,1181.3
654.912,1181.57
655.043,1182.7
655.175,1174.17
655.306,1177.87
655.438,1181.07
655.569,1180.67
655.701,1179.87
655.832,1179.53
655.964,1178.9
656.095,1177.5
656.226,1179.77
656.358,1180.7
656.489,1180.7
656.621,1181.1
656.752,1182.1
656.884,1181.93
657.015,1183.6
657.146,1181.1
657.278,1186.13
657.409,1184.07
657.541,1181.37
657.672,1178.27
657.804,1184.9
657.935,1181.8
658.066,1183.47
658.198,1185.67
658.329,1185.47
658.461,1184.17
658.592,1186.1
658.723,1188.03
658.855,1183.4
658.986,1185.97
659.118,1184.47
659.249,1186.73
659.38,1190.97
659.512,1189.57
659.643,1183.27
659.774,1183.9
659.906,1188.23
660.037,1184.43
660.169,1189.93
660.3,1186.77
660.431,1186.83
660.563,1181.8
660.694,1184.17
660.825,1184.4
660.957,1182.8
661.088,1186.27
661.22,1189.57
661.351,1179.93
661.482,1184.13
661.614,1185.3
661.745,1184.13
661.876,1184.27
662.008,1183.83
662.139,1183.03
662.27,1178.2
662.402,1177.17
662.533,1177.13
662.664,1181.13
662.796,1180.47
662.927,1178.73
663.058,1180.57
