cm-1,A
4000.0,-0.0048
3999.0,-0.0049
3998.0,-0.0049
3997.0,-0.0049
3996.0,-0.0048
3995.0,-0.0047
3994.0,-0.0047
3993.0,-0.0047
3992.0,-0.0047
3991.0,-0.0047
3990.0,-0.0047
3989.0,-0.0047
3988.0,-0.0047
3987.0,-0.0048
3986.0,-0.0048
3985.0,-0.0048
3984.0,-0.0048
3983.0,-0.0048
3982.0,-0.0047
3981.0,-0.0047
3980.0,-0.0047
3979.0,-0.0047
3978.0,-0.0047
3977.0,-0.0047
3976.0,-0.0047
3975.0,-0.0046
3974.0,-0.0046
3973.0,-0.0046
3972.0,-0.0046
3971.0,-0.0046
3970.0,-0.0047
3969.0,-0.0047
3968.0,-0.0048
3967.0,-0.0049
3966.0,-0.0049
3965.0,-0.0049
3964.0,-0.0049
3963.0,-0.0049
3962.0,-0.0049
3961.0,-0.0048
3960.0,-0.0049
3959.0,-0.0049
3958.0,-0.005
3957.0,-0.005
3956.0,-0.0049
3955.0,-0.0048
3954.0,-0.0048
3953.0,-0.0047
3952.0,-0.0047
3951.0,-0.0047
3950.0,-0.0047
3949.0,-0.0047
3948.0,-0.0046
3947.0,-0.0045
3946.0,-0.0046
3945.0,-0.0047
3944.0,-0.0048
3943.0,-0.005
3942.0,-0.005
3941.0,-0.005
3940.0,-0.0049
3939.0,-0.0048
3938.0,-0.0047
3937.0,-0.0046
3936.0,-0.0046
3935.0,-0.0047
3934.0,-0.0048
3933.0,-0.0048
3932.0,-0.0049
3931.0,-0.0048
3930.0,-0.0048
3929.0,-0.0048
3928.0,-0.0048
3927.0,-0.0048
3926.0,-0.0048
3925.0,-0.0048
3924.0,-0.0047
3923.0,-0.0047
3922.0,-0.0047
3921.0,-0.0047
3920.0,-0.0047
3919.0,-0.0047
3918.0,-0.0047
3917.0,-0.0046
3916.0,-0.0046
3915.0,-0.0045
3914.0,-0.0045
3913.0,-0.0046
3912.0,-0.0046
3911.0,-0.0046
3910.0,-0.0046
3909.0,-0.0046
3908.0,-0.0046
3907.0,-0.0046
3906.0,-0.0045
3905.0,-0.0045
3904.0,-0.0046
3903.0,-0.0046
3902.0,-0.0047
3901.0,-0.0047
3900.0,-0.0046
3899.0,-0.0046
3898.0,-0.0045
3897.0,-0.0044
3896.0,-0.0044
3895.0,-0.0044
3894.0,-0.0044
3893.0,-0.0044
3892.0,-0.0045
3891.0,-0.0045
3890.0,-0.0045
3889.0,-0.0045
3888.0,-0.0045
3887.0,-0.0045
3886.0,-0.0046
3885.0,-0.0046
3884.0,-0.0045
3883.0,-0.0045
3882.0,-0.0046
3881.0,-0.0047
3880.0,-0.0047
3879.0,-0.0047
3878.0,-0.0047
3877.0,-0.0046
3876.0,-0.0046
3875.0,-0.0046
3874.0,-0.0045
3873.0,-0.0044
3872.0,-0.0044
3871.0,-0.0044
3870.0,-0.0043
3869.0,-0.0043
3868.0,-0.0043
3867.0,-0.0044
3866.0,-0.0045
3865.0,-0.0046
3864.0,-0.0046
3863.0,-0.0045
3862.0,-0.0045
3861.0,-0.0045
3860.0,-0.0046
3859.0,-0.0046
3858.0,-0.0047
3857.0,-0.0046
3856.0,-0.0045
3855.0,-0.0044
3854.0,-0.0044
3853.0,-0.0044
3852.0,-0.0045
3851.0,-0.0045
3850.0,-0.0046
3849.0,-0.0046
3848.0,-0.0045
3847.0,-0.0045
3846.0,-0.0044
3845.0,-0.0044
3844.0,-0.0044
3843.0,-0.0044
3842.0,-0.0043
3841.0,-0.0042
3840.0,-0.0042
3839.0,-0.0041
3838.0,-0.0041
3837.0,-0.0042
3836.0,-0.0042
3835.0,-0.0042
3834.0,-0.0042
3833.0,-0.0043
3832.0,-0.0042
3831.0,-0.0042
3830.0,-0.0042
3829.0,-0.0041
3828.0,-0.0042
3827.0,-0.0043
3826.0,-0.0043
3825.0,-0.0043
3824.0,-0.0043
3823.0,-0.0043
3822.0,-0.0044
3821.0,-0.0044
3820.0,-0.0043
3819.0,-0.0043
3818.0,-0.0043
3817.0,-0.0043
3816.0,-0.0042
3815.0,-0.0042
3814.0,-0.0042
3813.0,-0.0042
3812.0,-0.0042
3811.0,-0.0042
3810.0,-0.0041
3809.0,-0.0041
3808.0,-0.0041
3807.0,-0.0041
3806.0,-0.004
3805.0,-0.0039
3804.0,-0.0039
3803.0,-0.0039
3802.0,-0.0041
3801.0,-0.0041
3800.0,-0.0041
3799.0,-0.004
3798.0,-0.004
3797.0,-0.004
3796.0,-0.004
3795.0,-0.0042
3794.0,-0.0043
3793.0,-0.0043
3792.0,-0.0043
3791.0,-0.0043
3790.0,-0.0043
3789.0,-0.0043
3788.0,-0.0043
3787.0,-0.0043
3786.0,-0.0043
3785.0,-0.0043
3784.0,-0.0044
3783.0,-0.0044
3782.0,-0.0044
3781.0,-0.0043
3780.0,-0.0043
3779.0,-0.0043
3778.0,-0.0043
3777.0,-0.0043
3776.0,-0.0044
3775.0,-0.0044
3774.0,-0.0044
3773.0,-0.0043
3772.0,-0.0043
3771.0,-0.0042
3770.0,-0.0041
3769.0,-0.004
3768.0,-0.004
3767.0,-0.004
3766.0,-0.004
3765.0,-0.004
3764.0,-0.0041
3763.0,-0.0041
3762.0,-0.0041
3761.0,-0.0042
3760.0,-0.0043
3759.0,-0.0044
3758.0,-0.0045
3757.0,-0.0046
3756.0,-0.0046
3755.0,-0.0046
3754.0,-0.0045
3753.0,-0.0044
3752.0,-0.0044
3751.0,-0.0043
3750.0,-0.0042
3749.0,-0.0043
3748.0,-0.0044
3747.0,-0.0046
3746.0,-0.0048
3745.0,-0.0051
3744.0,-0.0053
3743.0,-0.0053
3742.0,-0.0053
3741.0,-0.0054
3740.0,-0.0054
3739.0,-0.0054
3738.0,-0.0054
3737.0,-0.0054
3736.0,-0.0056
3735.0,-0.0057
3734.0,-0.0058
3733.0,-0.0059
3732.0,-0.0059
3731.0,-0.006
3730.0,-0.006
3729.0,-0.0061
3728.0,-0.0062
3727.0,-0.0061
3726.0,-0.006
3725.0,-0.0059
3724.0,-0.0058
3723.0,-0.0058
3722.0,-0.0057
3721.0,-0.0056
3720.0,-0.0054
3719.0,-0.0052
3718.0,-0.005
3717.0,-0.0048
3716.0,-0.0046
3715.0,-0.0046
3714.0,-0.0048
3713.0,-0.0053
3712.0,-0.0057
3711.0,-0.0058
3710.0,-0.0058
3709.0,-0.0057
3708.0,-0.0057
3707.0,-0.0057
3706.0,-0.0056
3705.0,-0.0055
3704.0,-0.0054
3703.0,-0.0054
3702.0,-0.0054
3701.0,-0.0055
3700.0,-0.0056
3699.0,-0.0057
3698.0,-0.0057
3697.0,-0.0056
3696.0,-0.0056
3695.0,-0.0056
3694.0,-0.0056
3693.0,-0.0056
3692.0,-0.0055
3691.0,-0.0054
3690.0,-0.0052
3689.0,-0.0052
3688.0,-0.0053
3687.0,-0.0054
3686.0,-0.0054
3685.0,-0.0054
3684.0,-0.0053
3683.0,-0.0053
3682.0,-0.0053
3681.0,-0.0053
3680.0,-0.0052
3679.0,-0.0052
3678.0,-0.0051
3677.0,-0.005
3676.0,-0.0051
3675.0,-0.0051
3674.0,-0.0053
3673.0,-0.0054
3672.0,-0.0055
3671.0,-0.0056
3670.0,-0.0056
3669.0,-0.0057
3668.0,-0.0057
3667.0,-0.0058
3666.0,-0.0059
3665.0,-0.006
3664.0,-0.0061
3663.0,-0.0061
3662.0,-0.0062
3661.0,-0.0064
3660.0,-0.0065
3659.0,-0.0066
3658.0,-0.0066
3657.0,-0.0067
3656.0,-0.0067
3655.0,-0.0067
3654.0,-0.0067
3653.0,-0.0068
3652.0,-0.007
3651.0,-0.0074
3650.0,-0.0078
3649.0,-0.008
3648.0,-0.0081
3647.0,-0.0081
3646.0,-0.0082
3645.0,-0.0084
3644.0,-0.0086
3643.0,-0.0088
3642.0,-0.009
3641.0,-0.0092
3640.0,-0.0095
3639.0,-0.0098
3638.0,-0.01
3637.0,-0.0103
3636.0,-0.0105
3635.0,-0.0108
3634.0,-0.011
3633.0,-0.0112
3632.0,-0.0112
3631.0,-0.0119
3630.0,-0.0122
3629.0,-0.0123
3628.0,-0.0125
3627.0,-0.0125
3626.0,-0.0126
3625.0,-0.0127
3624.0,-0.0126
3623.0,-0.0125
3622.0,-0.0125
3621.0,-0.0125
3620.0,-0.0126
3619.0,-0.0128
3618.0,-0.013
3617.0,-0.0131
3616.0,-0.0131
3615.0,-0.0132
3614.0,-0.0134
3613.0,-0.0137
3612.0,-0.014
3611.0,-0.0144
3610.0,-0.0147
3609.0,-0.0151
3608.0,-0.0154
3607.0,-0.0157
3606.0,-0.0159
3605.0,-0.0162
3604.0,-0.0165
3603.0,-0.0167
3602.0,-0.0169
3601.0,-0.017
3600.0,-0.017
3599.0,-0.0171
3598.0,-0.0173
3597.0,-0.0176
3596.0,-0.018
3595.0,-0.0183
3594.0,-0.0185
3593.0,-0.0186
3592.0,-0.0187
3591.0,-0.0187
3590.0,-0.0188
3589.0,-0.0189
3588.0,-0.0191
3587.0,-0.0192
3586.0,-0.0194
3585.0,-0.0196
3584.0,-0.0197
3583.0,-0.0199
3582.0,-0.0199
3581.0,-0.0201
3580.0,-0.0203
3579.0,-0.0205
3578.0,-0.0207
3577.0,-0.021
3576.0,-0.0212
3575.0,-0.0214
3574.0,-0.0216
3573.0,-0.0218
3572.0,-0.022
3571.0,-0.0222
3570.0,-0.0225
3569.0,-0.0227
3568.0,-0.0229
3567.0,-0.023
3566.0,-0.0231
3565.0,-0.0233
3564.0,-0.0235
3563.0,-0.0237
3562.0,-0.0237
3561.0,-0.0238
3560.0,-0.0239
3559.0,-0.0242
3558.0,-0.0245
3557.0,-0.0248
3556.0,-0.025
3555.0,-0.0251
3554.0,-0.0252
3553.0,-0.0254
3552.0,-0.0256
3551.0,-0.0259
3550.0,-0.0262
3549.0,-0.0264
3548.0,-0.0266
3547.0,-0.0268
3546.0,-0.0271
3545.0,-0.0273
3544.0,-0.0275
3543.0,-0.0277
3542.0,-0.0279
3541.0,-0.028
3540.0,-0.0282
3539.0,-0.0284
3538.0,-0.0286
3537.0,-0.0288
3536.0,-0.0289
3535.0,-0.0291
3534.0,-0.0292
3533.0,-0.0294
3532.0,-0.0297
3531.0,-0.03
3530.0,-0.0303
3529.0,-0.0306
3528.0,-0.0307
3527.0,-0.0309
3526.0,-0.031
3525.0,-0.0312
3524.0,-0.0314
3523.0,-0.0316
3522.0,-0.0319
3521.0,-0.0321
3520.0,-0.0323
3519.0,-0.0325
3518.0,-0.0327
3517.0,-0.033
3516.0,-0.0334
3515.0,-0.0338
3514.0,-0.0341
3513.0,-0.0342
3512.0,-0.0343
3511.0,-0.0344
3510.0,-0.0346
3509.0,-0.0349
3508.0,-0.0352
3507.0,-0.0355
3506.0,-0.0358
3505.0,-0.036
3504.0,-0.0362
3503.0,-0.0365
3502.0,-0.0367
3501.0,-0.0369
3500.0,-0.0371
3499.0,-0.0373
3498.0,-0.0375
3497.0,-0.0377
3496.0,-0.0379
3495.0,-0.0381
3494.0,-0.0384
3493.0,-0.0386
3492.0,-0.0389
3491.0,-0.0392
3490.0,-0.0395
3489.0,-0.0398
3488.0,-0.0401
3487.0,-0.0404
3486.0,-0.0407
3485.0,-0.041
3484.0,-0.0412
3483.0,-0.0415
3482.0,-0.0419
3481.0,-0.0423
3480.0,-0.0426
3479.0,-0.0429
3478.0,-0.0431
3477.0,-0.0432
3476.0,-0.0434
3475.0,-0.0436
3474.0,-0.0438
3473.0,-0.0441
3472.0,-0.0444
3471.0,-0.0447
3470.0,-0.045
3469.0,-0.0453
3468.0,-0.0456
3467.0,-0.046
3466.0,-0.0463
3465.0,-0.0467
3464.0,-0.0471
3463.0,-0.0474
3462.0,-0.0476
3461.0,-0.0478
3460.0,-0.0479
3459.0,-0.048
3458.0,-0.0482
3457.0,-0.0485
3456.0,-0.0488
3455.0,-0.0492
3454.0,-0.0497
3453.0,-0.0501
3452.0,-0.0505
3451.0,-0.0507
3450.0,-0.0509
3449.0,-0.051
3448.0,-0.0511
3447.0,-0.0513
3446.0,-0.0516
3445.0,-0.0519
3444.0,-0.0524
3443.0,-0.0527
3442.0,-0.053
3441.0,-0.0532
3440.0,-0.0533
3439.0,-0.0535
3438.0,-0.0538
3437.0,-0.0543
3436.0,-0.0547
3435.0,-0.0551
3434.0,-0.0555
3433.0,-0.0557
3432.0,-0.056
3431.0,-0.0562
3430.0,-0.0564
3429.0,-0.0566
3428.0,-0.0568
3427.0,-0.057
3426.0,-0.0572
3425.0,-0.0576
3424.0,-0.0579
3423.0,-0.0582
3422.0,-0.0586
3421.0,-0.0589
3420.0,-0.0593
3419.0,-0.0595
3418.0,-0.0597
3417.0,-0.06
3416.0,-0.0603
3415.0,-0.0608
3414.0,-0.0613
3413.0,-0.0618
3412.0,-0.0621
3411.0,-0.0624
3410.0,-0.0625
3409.0,-0.0627
3408.0,-0.063
3407.0,-0.0634
3406.0,-0.0637
3405.0,-0.0641
3404.0,-0.0644
3403.0,-0.0648
3402.0,-0.0652
3401.0,-0.0656
3400.0,-0.0659
3399.0,-0.0661
3398.0,-0.0663
3397.0,-0.0666
3396.0,-0.067
3395.0,-0.0675
3394.0,-0.0679
3393.0,-0.0683
3392.0,-0.0686
3391.0,-0.0688
3390.0,-0.069
3389.0,-0.0692
3388.0,-0.0695
3387.0,-0.0699
3386.0,-0.0703
3385.0,-0.0707
3384.0,-0.0711
3383.0,-0.0714
3382.0,-0.0717
3381.0,-0.0719
3380.0,-0.0721
3379.0,-0.0723
3378.0,-0.0725
3377.0,-0.0726
3376.0,-0.0728
3375.0,-0.073
3374.0,-0.0733
3373.0,-0.0736
3372.0,-0.0738
3371.0,-0.0739
3370.0,-0.0739
3369.0,-0.074
3368.0,-0.0741
3367.0,-0.0743
3366.0,-0.0744
3365.0,-0.0745
3364.0,-0.0745
3363.0,-0.0746
3362.0,-0.0747
3361.0,-0.0749
3360.0,-0.0751
3359.0,-0.0752
3358.0,-0.0752
3357.0,-0.0753
3356.0,-0.0753
3355.0,-0.0754
3354.0,-0.0756
3353.0,-0.0758
3352.0,-0.0759
3351.0,-0.076
3350.0,-0.076
3349.0,-0.0759
3348.0,-0.0757
3347.0,-0.0756
3346.0,-0.0755
3345.0,-0.0754
3344.0,-0.0754
3343.0,-0.0754
3342.0,-0.0755
3341.0,-0.0756
3340.0,-0.0756
3339.0,-0.0757
3338.0,-0.0757
3337.0,-0.0757
3336.0,-0.0757
3335.0,-0.0755
3334.0,-0.0752
3333.0,-0.075
3332.0,-0.0748
3331.0,-0.0747
3330.0,-0.0746
3329.0,-0.0745
3328.0,-0.0743
3327.0,-0.0741
3326.0,-0.074
3325.0,-0.0741
3324.0,-0.0741
3323.0,-0.074
3322.0,-0.0739
3321.0,-0.0737
3320.0,-0.0735
3319.0,-0.0733
3318.0,-0.0732
3317.0,-0.0731
3316.0,-0.073
3315.0,-0.0728
3314.0,-0.0726
3313.0,-0.0723
3312.0,-0.0721
3311.0,-0.072
3310.0,-0.0719
3309.0,-0.0718
3308.0,-0.0718
3307.0,-0.0716
3306.0,-0.0714
3305.0,-0.0711
3304.0,-0.0708
3303.0,-0.0706
3302.0,-0.0703
3301.0,-0.0701
3300.0,-0.0698
3299.0,-0.0697
3298.0,-0.0695
3297.0,-0.0694
3296.0,-0.0693
3295.0,-0.0691
3294.0,-0.069
3293.0,-0.0689
3292.0,-0.0688
3291.0,-0.0686
3290.0,-0.0683
3289.0,-0.0681
3288.0,-0.0678
3287.0,-0.0677
3286.0,-0.0675
3285.0,-0.0674
3284.0,-0.0673
3283.0,-0.067
3282.0,-0.0668
3281.0,-0.0666
3280.0,-0.0665
3279.0,-0.0664
3278.0,-0.0663
3277.0,-0.0661
3276.0,-0.0659
3275.0,-0.0657
3274.0,-0.0656
3273.0,-0.0654
3272.0,-0.0653
3271.0,-0.0652
3270.0,-0.0651
3269.0,-0.0651
3268.0,-0.065
3267.0,-0.0649
3266.0,-0.0646
3265.0,-0.0643
3264.0,-0.0641
3263.0,-0.0639
3262.0,-0.0638
3261.0,-0.0637
3260.0,-0.0637
3259.0,-0.0636
3258.0,-0.0636
3257.0,-0.0635
3256.0,-0.0633
3255.0,-0.0632
3254.0,-0.0631
3253.0,-0.063
3252.0,-0.0629
3251.0,-0.0628
3250.0,-0.0626
3249.0,-0.0625
3248.0,-0.0624
3247.0,-0.0623
3246.0,-0.0622
3245.0,-0.062
3244.0,-0.0617
3243.0,-0.0615
3242.0,-0.0613
3241.0,-0.0612
3240.0,-0.0611
3239.0,-0.061
3238.0,-0.0609
3237.0,-0.0607
3236.0,-0.0605
3235.0,-0.0603
3234.0,-0.0602
3233.0,-0.0601
3232.0,-0.0601
3231.0,-0.06
3230.0,-0.0598
3229.0,-0.0596
3228.0,-0.0592
3227.0,-0.0589
3226.0,-0.0586
3225.0,-0.0583
3224.0,-0.0581
3223.0,-0.058
3222.0,-0.0578
3221.0,-0.0576
3220.0,-0.0574
3219.0,-0.0572
3218.0,-0.057
3217.0,-0.0568
3216.0,-0.0566
3215.0,-0.0563
3214.0,-0.0561
3213.0,-0.0558
3212.0,-0.0555
3211.0,-0.0552
3210.0,-0.0549
3209.0,-0.0546
3208.0,-0.0544
3207.0,-0.0542
3206.0,-0.054
3205.0,-0.0537
3204.0,-0.0534
3203.0,-0.053
3202.0,-0.0527
3201.0,-0.0524
3200.0,-0.0522
3199.0,-0.052
3198.0,-0.0519
3197.0,-0.0517
3196.0,-0.0515
3195.0,-0.0513
3194.0,-0.051
3193.0,-0.0507
3192.0,-0.0504
3191.0,-0.0501
3190.0,-0.0497
3189.0,-0.0494
3188.0,-0.0491
3187.0,-0.0488
3186.0,-0.0484
3185.0,-0.048
3184.0,-0.0476
3183.0,-0.0473
3182.0,-0.047
3181.0,-0.0468
3180.0,-0.0465
3179.0,-0.0463
3178.0,-0.0461
3177.0,-0.0458
3176.0,-0.0455
3175.0,-0.0452
3174.0,-0.0449
3173.0,-0.0446
3172.0,-0.0443
3171.0,-0.044
3170.0,-0.0437
3169.0,-0.0435
3168.0,-0.0433
3167.0,-0.0431
3166.0,-0.0428
3165.0,-0.0426
3164.0,-0.0424
3163.0,-0.0422
3162.0,-0.042
3161.0,-0.0418
3160.0,-0.0415
3159.0,-0.0412
3158.0,-0.0409
3157.0,-0.0406
3156.0,-0.0403
3155.0,-0.04
3154.0,-0.0398
3153.0,-0.0396
3152.0,-0.0394
3151.0,-0.0392
3150.0,-0.0389
3149.0,-0.0386
3148.0,-0.0383
3147.0,-0.0381
3146.0,-0.0378
3145.0,-0.0374
3144.0,-0.0371
3143.0,-0.0368
3142.0,-0.0366
3141.0,-0.0364
3140.0,-0.0363
3139.0,-0.0361
3138.0,-0.036
3137.0,-0.0358
3136.0,-0.0355
3135.0,-0.0353
3134.0,-0.035
3133.0,-0.0347
3132.0,-0.0344
3131.0,-0.0343
3130.0,-0.0341
3129.0,-0.0339
3128.0,-0.0336
3127.0,-0.0333
3126.0,-0.033
3125.0,-0.0327
3124.0,-0.0325
3123.0,-0.0323
3122.0,-0.0322
3121.0,-0.0321
3120.0,-0.032
3119.0,-0.0318
3118.0,-0.0315
3117.0,-0.0313
3116.0,-0.0311
3115.0,-0.0309
3114.0,-0.0307
3113.0,-0.0304
3112.0,-0.0302
3111.0,-0.03
3110.0,-0.0298
3109.0,-0.0296
3108.0,-0.0294
3107.0,-0.0292
3106.0,-0.029
3105.0,-0.0288
3104.0,-0.0286
3103.0,-0.0284
3102.0,-0.0283
3101.0,-0.0281
3100.0,-0.0279
3099.0,-0.0277
3098.0,-0.0276
3097.0,-0.0274
3096.0,-0.0273
3095.0,-0.0271
3094.0,-0.0269
3093.0,-0.0267
3092.0,-0.0265
3091.0,-0.0263
3090.0,-0.0261
3089.0,-0.0259
3088.0,-0.0258
3087.0,-0.0256
3086.0,-0.0255
3085.0,-0.0253
3084.0,-0.0251
3083.0,-0.0249
3082.0,-0.0248
3081.0,-0.0246
3080.0,-0.0245
3079.0,-0.0243
3078.0,-0.0241
3077.0,-0.024
3076.0,-0.0238
3075.0,-0.0237
3074.0,-0.0236
3073.0,-0.0235
3072.0,-0.0233
3071.0,-0.0232
3070.0,-0.0231
3069.0,-0.0231
3068.0,-0.0229
3067.0,-0.0228
3066.0,-0.0226
3065.0,-0.0224
3064.0,-0.0223
3063.0,-0.0222
3062.0,-0.022
3061.0,-0.0218
3060.0,-0.0216
3059.0,-0.0215
3058.0,-0.0214
3057.0,-0.0213
3056.0,-0.0212
3055.0,-0.021
3054.0,-0.0209
3053.0,-0.0207
3052.0,-0.0205
3051.0,-0.0203
3050.0,-0.0202
3049.0,-0.0202
3048.0,-0.0202
3047.0,-0.0201
3046.0,-0.0199
3045.0,-0.0197
3044.0,-0.0196
3043.0,-0.0194
3042.0,-0.0193
3041.0,-0.0191
3040.0,-0.019
3039.0,-0.0188
3038.0,-0.0188
3037.0,-0.0188
3036.0,-0.0188
3035.0,-0.0187
3034.0,-0.0186
3033.0,-0.0185
3032.0,-0.0184
3031.0,-0.0183
3030.0,-0.0182
3029.0,-0.0181
3028.0,-0.0179
3027.0,-0.0177
3026.0,-0.0175
3025.0,-0.0173
3024.0,-0.0172
3023.0,-0.0172
3022.0,-0.0173
3021.0,-0.0173
3020.0,-0.0172
3019.0,-0.0172
3018.0,-0.0171
3017.0,-0.017
3016.0,-0.0169
3015.0,-0.0168
3014.0,-0.0167
3013.0,-0.0166
3012.0,-0.0165
3011.0,-0.0164
3010.0,-0.0162
3009.0,-0.0161
3008.0,-0.016
3007.0,-0.0159
3006.0,-0.0158
3005.0,-0.0157
3004.0,-0.0156
3003.0,-0.0155
3002.0,-0.0154
3001.0,-0.0154
3000.0,-0.0153
2999.0,-0.0152
2998.0,-0.0151
2997.0,-0.015
2996.0,-0.0149
2995.0,-0.0148
2994.0,-0.0147
2993.0,-0.0147
2992.0,-0.0146
2991.0,-0.0145
2990.0,-0.0144
2989.0,-0.0143
2988.0,-0.0142
2987.0,-0.0142
2986.0,-0.0141
2985.0,-0.0141
2984.0,-0.0141
2983.0,-0.0141
2982.0,-0.0141
2981.0,-0.014
2980.0,-0.0139
2979.0,-0.0138
2978.0,-0.0137
2977.0,-0.0136
2976.0,-0.0135
2975.0,-0.0135
2974.0,-0.0134
2973.0,-0.0133
2972.0,-0.0132
2971.0,-0.0131
2970.0,-0.013
2969.0,-0.013
2968.0,-0.013
2967.0,-0.0129
2966.0,-0.0129
2965.0,-0.0128
2964.0,-0.0126
2963.0,-0.0125
2962.0,-0.0125
2961.0,-0.0125
2960.0,-0.0125
2959.0,-0.0125
2958.0,-0.0125
2957.0,-0.0123
2956.0,-0.0122
2955.0,-0.0122
2954.0,-0.0121
2953.0,-0.0121
2952.0,-0.0121
2951.0,-0.012
2950.0,-0.0119
2949.0,-0.0119
2948.0,-0.0119
2947.0,-0.0119
2946.0,-0.0118
2945.0,-0.0117
2944.0,-0.0116
2943.0,-0.0114
2942.0,-0.0113
2941.0,-0.0113
2940.0,-0.0112
2939.0,-0.0112
2938.0,-0.0112
2937.0,-0.0112
2936.0,-0.0111
2935.0,-0.0111
2934.0,-0.011
2933.0,-0.011
2932.0,-0.011
2931.0,-0.011
2930.0,-0.011
2929.0,-0.0109
2928.0,-0.0108
2927.0,-0.0107
2926.0,-0.0107
2925.0,-0.0106
2924.0,-0.0106
2923.0,-0.0106
2922.0,-0.0106
2921.0,-0.0106
2920.0,-0.0106
2919.0,-0.0105
2918.0,-0.0104
2917.0,-0.0103
2916.0,-0.0102
2915.0,-0.0101
2914.0,-0.0101
2913.0,-0.0101
2912.0,-0.0101
2911.0,-0.0101
2910.0,-0.0101
2909.0,-0.01
2908.0,-0.0099
2907.0,-0.0098
2906.0,-0.0098
2905.0,-0.0098
2904.0,-0.0098
2903.0,-0.0098
2902.0,-0.0097
2901.0,-0.0096
2900.0,-0.0096
2899.0,-0.0095
2898.0,-0.0094
2897.0,-0.0094
2896.0,-0.0094
2895.0,-0.0094
2894.0,-0.0094
2893.0,-0.0094
2892.0,-0.0094
2891.0,-0.0094
2890.0,-0.0094
2889.0,-0.0094
2888.0,-0.0094
2887.0,-0.0094
2886.0,-0.0093
2885.0,-0.0092
2884.0,-0.0092
2883.0,-0.0092
2882.0,-0.0091
2881.0,-0.0091
2880.0,-0.009
2879.0,-0.009
2878.0,-0.009
2877.0,-0.009
2876.0,-0.009
2875.0,-0.0089
2874.0,-0.0089
2873.0,-0.0088
2872.0,-0.0088
2871.0,-0.0088
2870.0,-0.0087
2869.0,-0.0087
2868.0,-0.0087
2867.0,-0.0087
2866.0,-0.0086
2865.0,-0.0086
2864.0,-0.0086
2863.0,-0.0085
2862.0,-0.0084
2861.0,-0.0084
2860.0,-0.0084
2859.0,-0.0084
2858.0,-0.0084
2857.0,-0.0084
2856.0,-0.0084
2855.0,-0.0084
2854.0,-0.0084
2853.0,-0.0083
2852.0,-0.0083
2851.0,-0.0083
2850.0,-0.0083
2849.0,-0.0083
2848.0,-0.0083
2847.0,-0.0082
2846.0,-0.0082
2845.0,-0.0081
2844.0,-0.0081
2843.0,-0.008
2842.0,-0.008
2841.0,-0.0079
2840.0,-0.0079
2839.0,-0.0079
2838.0,-0.0079
2837.0,-0.0079
2836.0,-0.0079
2835.0,-0.0078
2834.0,-0.0078
2833.0,-0.0078
2832.0,-0.0078
2831.0,-0.0078
2830.0,-0.0077
2829.0,-0.0077
2828.0,-0.0076
2827.0,-0.0076
2826.0,-0.0075
2825.0,-0.0074
2824.0,-0.0074
2823.0,-0.0074
2822.0,-0.0074
2821.0,-0.0074
2820.0,-0.0074
2819.0,-0.0074
2818.0,-0.0075
2817.0,-0.0075
2816.0,-0.0075
2815.0,-0.0074
2814.0,-0.0074
2813.0,-0.0073
2812.0,-0.0072
2811.0,-0.0072
2810.0,-0.0071
2809.0,-0.0072
2808.0,-0.0072
2807.0,-0.0072
2806.0,-0.0072
2805.0,-0.0072
2804.0,-0.0071
2803.0,-0.0071
2802.0,-0.0072
2801.0,-0.0072
2800.0,-0.0073
2799.0,-0.0073
2798.0,-0.0072
2797.0,-0.0072
2796.0,-0.0071
2795.0,-0.0071
2794.0,-0.0071
2793.0,-0.007
2792.0,-0.007
2791.0,-0.007
2790.0,-0.0069
2789.0,-0.0069
2788.0,-0.0068
2787.0,-0.0068
2786.0,-0.0068
2785.0,-0.0068
2784.0,-0.0068
2783.0,-0.0068
2782.0,-0.0068
2781.0,-0.0068
2780.0,-0.0068
2779.0,-0.0068
2778.0,-0.0068
2777.0,-0.0067
2776.0,-0.0067
2775.0,-0.0066
2774.0,-0.0066
2773.0,-0.0066
2772.0,-0.0067
2771.0,-0.0067
2770.0,-0.0067
2769.0,-0.0067
2768.0,-0.0067
2767.0,-0.0067
2766.0,-0.0067
2765.0,-0.0067
2764.0,-0.0067
2763.0,-0.0066
2762.0,-0.0066
2761.0,-0.0067
2760.0,-0.0067
2759.0,-0.0067
2758.0,-0.0066
2757.0,-0.0065
2756.0,-0.0065
2755.0,-0.0064
2754.0,-0.0064
2753.0,-0.0064
2752.0,-0.0064
2751.0,-0.0064
2750.0,-0.0064
2749.0,-0.0064
2748.0,-0.0064
2747.0,-0.0064
2746.0,-0.0064
2745.0,-0.0065
2744.0,-0.0065
2743.0,-0.0064
2742.0,-0.0064
2741.0,-0.0064
2740.0,-0.0064
2739.0,-0.0064
2738.0,-0.0064
2737.0,-0.0063
2736.0,-0.0063
2735.0,-0.0063
2734.0,-0.0062
2733.0,-0.0062
2732.0,-0.0062
2731.0,-0.0062
2730.0,-0.0062
2729.0,-0.0062
2728.0,-0.0062
2727.0,-0.0061
2726.0,-0.0061
2725.0,-0.0061
2724.0,-0.0061
2723.0,-0.0061
2722.0,-0.0061
2721.0,-0.0061
2720.0,-0.0061
2719.0,-0.006
2718.0,-0.0059
2717.0,-0.0059
2716.0,-0.0059
2715.0,-0.006
2714.0,-0.0061
2713.0,-0.0061
2712.0,-0.0061
2711.0,-0.0061
2710.0,-0.006
2709.0,-0.006
2708.0,-0.006
2707.0,-0.006
2706.0,-0.006
2705.0,-0.0061
2704.0,-0.0061
2703.0,-0.0061
2702.0,-0.0061
2701.0,-0.006
2700.0,-0.006
2699.0,-0.0059
2698.0,-0.0059
2697.0,-0.006
2696.0,-0.006
2695.0,-0.0059
2694.0,-0.0059
2693.0,-0.0059
2692.0,-0.0059
2691.0,-0.0059
2690.0,-0.0059
2689.0,-0.0059
2688.0,-0.0059
2687.0,-0.0059
2686.0,-0.0059
2685.0,-0.0058
2684.0,-0.0058
2683.0,-0.0058
2682.0,-0.0058
2681.0,-0.0059
2680.0,-0.0059
2679.0,-0.0059
2678.0,-0.0058
2677.0,-0.0059
2676.0,-0.0059
2675.0,-0.0059
2674.0,-0.0059
2673.0,-0.0059
2672.0,-0.0058
2671.0,-0.0059
2670.0,-0.0059
2669.0,-0.0059
2668.0,-0.0059
2667.0,-0.0058
2666.0,-0.0058
2665.0,-0.0057
2664.0,-0.0057
2663.0,-0.0057
2662.0,-0.0057
2661.0,-0.0058
2660.0,-0.0058
2659.0,-0.0058
2658.0,-0.0057
2657.0,-0.0057
2656.0,-0.0056
2655.0,-0.0056
2654.0,-0.0055
2653.0,-0.0055
2652.0,-0.0056
2651.0,-0.0056
2650.0,-0.0057
2649.0,-0.0057
2648.0,-0.0056
2647.0,-0.0056
2646.0,-0.0056
2645.0,-0.0056
2644.0,-0.0056
2643.0,-0.0056
2642.0,-0.0056
2641.0,-0.0056
2640.0,-0.0056
2639.0,-0.0056
2638.0,-0.0056
2637.0,-0.0057
2636.0,-0.0057
2635.0,-0.0057
2634.0,-0.0057
2633.0,-0.0057
2632.0,-0.0057
2631.0,-0.0057
2630.0,-0.0057
2629.0,-0.0057
2628.0,-0.0056
2627.0,-0.0056
2626.0,-0.0056
2625.0,-0.0056
2624.0,-0.0056
2623.0,-0.0056
2622.0,-0.0056
2621.0,-0.0056
2620.0,-0.0056
2619.0,-0.0056
2618.0,-0.0056
2617.0,-0.0056
2616.0,-0.0056
2615.0,-0.0056
2614.0,-0.0055
2613.0,-0.0055
2612.0,-0.0055
2611.0,-0.0056
2610.0,-0.0055
2609.0,-0.0055
2608.0,-0.0055
2607.0,-0.0055
2606.0,-0.0055
2605.0,-0.0055
2604.0,-0.0055
2603.0,-0.0056
2602.0,-0.0057
2601.0,-0.0057
2600.0,-0.0058
2599.0,-0.0058
2598.0,-0.0057
2597.0,-0.0056
2596.0,-0.0054
2595.0,-0.0053
2594.0,-0.0053
2593.0,-0.0054
2592.0,-0.0054
2591.0,-0.0055
2590.0,-0.0055
2589.0,-0.0055
2588.0,-0.0055
2587.0,-0.0055
2586.0,-0.0055
2585.0,-0.0055
2584.0,-0.0055
2583.0,-0.0056
2582.0,-0.0056
2581.0,-0.0056
2580.0,-0.0055
2579.0,-0.0055
2578.0,-0.0054
2577.0,-0.0054
2576.0,-0.0054
2575.0,-0.0054
2574.0,-0.0054
2573.0,-0.0054
2572.0,-0.0054
2571.0,-0.0054
2570.0,-0.0054
2569.0,-0.0054
2568.0,-0.0054
2567.0,-0.0054
2566.0,-0.0055
2565.0,-0.0055
2564.0,-0.0056
2563.0,-0.0056
2562.0,-0.0056
2561.0,-0.0055
2560.0,-0.0054
2559.0,-0.0054
2558.0,-0.0054
2557.0,-0.0054
2556.0,-0.0054
2555.0,-0.0054
2554.0,-0.0054
2553.0,-0.0054
2552.0,-0.0054
2551.0,-0.0054
2550.0,-0.0054
2549.0,-0.0054
2548.0,-0.0055
2547.0,-0.0055
2546.0,-0.0056
2545.0,-0.0056
2544.0,-0.0056
2543.0,-0.0055
2542.0,-0.0054
2541.0,-0.0053
2540.0,-0.0053
2539.0,-0.0053
2538.0,-0.0053
2537.0,-0.0053
2536.0,-0.0054
2535.0,-0.0054
2534.0,-0.0054
2533.0,-0.0054
2532.0,-0.0054
2531.0,-0.0054
2530.0,-0.0054
2529.0,-0.0055
2528.0,-0.0056
2527.0,-0.0056
2526.0,-0.0056
2525.0,-0.0055
2524.0,-0.0054
2523.0,-0.0054
2522.0,-0.0054
2521.0,-0.0054
2520.0,-0.0055
2519.0,-0.0055
2518.0,-0.0055
2517.0,-0.0055
2516.0,-0.0055
2515.0,-0.0054
2514.0,-0.0054
2513.0,-0.0054
2512.0,-0.0054
2511.0,-0.0054
2510.0,-0.0054
2509.0,-0.0055
2508.0,-0.0055
2507.0,-0.0055
2506.0,-0.0056
2505.0,-0.0056
2504.0,-0.0057
2503.0,-0.0057
2502.0,-0.0056
2501.0,-0.0056
2500.0,-0.0055
2499.0,-0.0055
2498.0,-0.0055
2497.0,-0.0055
2496.0,-0.0055
2495.0,-0.0055
2494.0,-0.0055
2493.0,-0.0054
2492.0,-0.0055
2491.0,-0.0056
2490.0,-0.0057
2489.0,-0.0057
2488.0,-0.0057
2487.0,-0.0056
2486.0,-0.0055
2485.0,-0.0055
2484.0,-0.0056
2483.0,-0.0056
2482.0,-0.0056
2481.0,-0.0056
2480.0,-0.0056
2479.0,-0.0057
2478.0,-0.0057
2477.0,-0.0057
2476.0,-0.0058
2475.0,-0.0058
2474.0,-0.0058
2473.0,-0.0058
2472.0,-0.0058
2471.0,-0.0058
2470.0,-0.0058
2469.0,-0.0058
2468.0,-0.0058
2467.0,-0.0058
2466.0,-0.0058
2465.0,-0.0058
2464.0,-0.0058
2463.0,-0.0058
2462.0,-0.0058
2461.0,-0.0058
2460.0,-0.0058
2459.0,-0.0058
2458.0,-0.0058
2457.0,-0.0058
2456.0,-0.0058
2455.0,-0.0058
2454.0,-0.0058
2453.0,-0.0058
2452.0,-0.0058
2451.0,-0.0058
2450.0,-0.0058
2449.0,-0.0058
2448.0,-0.0058
2447.0,-0.0058
2446.0,-0.0059
2445.0,-0.0059
2444.0,-0.006
2443.0,-0.006
2442.0,-0.006
2441.0,-0.006
2440.0,-0.006
2439.0,-0.006
2438.0,-0.006
2437.0,-0.006
2436.0,-0.0059
2435.0,-0.0059
2434.0,-0.0059
2433.0,-0.0059
2432.0,-0.006
2431.0,-0.006
2430.0,-0.006
2429.0,-0.006
2428.0,-0.006
2427.0,-0.006
2426.0,-0.006
2425.0,-0.006
2424.0,-0.006
2423.0,-0.0061
2422.0,-0.0061
2421.0,-0.0061
2420.0,-0.0061
2419.0,-0.0061
2418.0,-0.006
2417.0,-0.006
2416.0,-0.0061
2415.0,-0.0061
2414.0,-0.0061
2413.0,-0.0061
2412.0,-0.0061
2411.0,-0.0061
2410.0,-0.0062
2409.0,-0.0063
2408.0,-0.0063
2407.0,-0.0063
2406.0,-0.0063
2405.0,-0.0062
2404.0,-0.0062
2403.0,-0.0062
2402.0,-0.0062
2401.0,-0.0062
2400.0,-0.0063
2399.0,-0.0063
2398.0,-0.0063
2397.0,-0.0063
2396.0,-0.0063
2395.0,-0.0063
2394.0,-0.0063
2393.0,-0.0063
2392.0,-0.0064
2391.0,-0.0065
2390.0,-0.0067
2389.0,-0.007
2388.0,-0.0073
2387.0,-0.0078
2386.0,-0.0084
2385.0,-0.0091
2384.0,-0.0097
2383.0,-0.0102
2382.0,-0.0106
2381.0,-0.0109
2380.0,-0.0111
2379.0,-0.0112
2378.0,-0.0112
2377.0,-0.011
2376.0,-0.0108
2375.0,-0.0107
2374.0,-0.0108
2373.0,-0.0111
2372.0,-0.0114
2371.0,-0.0114
2370.0,-0.0112
2369.0,-0.011
2368.0,-0.0108
2367.0,-0.0105
2366.0,-0.0102
2365.0,-0.0101
2364.0,-0.0108
2363.0,-0.0121
2362.0,-0.013
2361.0,-0.0124
2360.0,-0.0108
2359.0,-0.0098
2358.0,-0.0106
2357.0,-0.012
2356.0,-0.0126
2355.0,-0.0126
2354.0,-0.0124
2353.0,-0.0121
2352.0,-0.0119
2351.0,-0.0118
2350.0,-0.0119
2349.0,-0.0121
2348.0,-0.0124
2347.0,-0.0127
2346.0,-0.0129
2345.0,-0.0129
2344.0,-0.0129
2343.0,-0.0126
2342.0,-0.0118
2341.0,-0.0107
2340.0,-0.0101
2339.0,-0.0104
2338.0,-0.0114
2337.0,-0.0124
2336.0,-0.013
2335.0,-0.013
2334.0,-0.0124
2333.0,-0.0116
2332.0,-0.0112
2331.0,-0.0116
2330.0,-0.0126
2329.0,-0.0137
2328.0,-0.0146
2327.0,-0.0149
2326.0,-0.0146
2325.0,-0.0136
2324.0,-0.0125
2323.0,-0.0117
2322.0,-0.0114
2321.0,-0.0117
2320.0,-0.0121
2319.0,-0.0125
2318.0,-0.0127
2317.0,-0.0129
2316.0,-0.0131
2315.0,-0.0134
2314.0,-0.0139
2313.0,-0.0144
2312.0,-0.015
2311.0,-0.0154
2310.0,-0.0154
2309.0,-0.0151
2308.0,-0.0146
2307.0,-0.014
2306.0,-0.0134
2305.0,-0.013
2304.0,-0.0128
2303.0,-0.0127
2302.0,-0.0127
2301.0,-0.0125
2300.0,-0.0122
2299.0,-0.0119
2298.0,-0.0117
2297.0,-0.0114
2296.0,-0.0111
2295.0,-0.0108
2294.0,-0.0105
2293.0,-0.0101
2292.0,-0.0098
2291.0,-0.0095
2290.0,-0.0093
2289.0,-0.009
2288.0,-0.0087
2287.0,-0.0084
2286.0,-0.0081
2285.0,-0.0079
2284.0,-0.0077
2283.0,-0.0076
2282.0,-0.0076
2281.0,-0.0076
2280.0,-0.0076
2279.0,-0.0077
2278.0,-0.0077
2277.0,-0.0078
2276.0,-0.0078
2275.0,-0.0077
2274.0,-0.0077
2273.0,-0.0077
2272.0,-0.0077
2271.0,-0.0077
2270.0,-0.0077
2269.0,-0.0077
2268.0,-0.0076
2267.0,-0.0076
2266.0,-0.0075
2265.0,-0.0075
2264.0,-0.0075
2263.0,-0.0075
2262.0,-0.0074
2261.0,-0.0074
2260.0,-0.0073
2259.0,-0.0073
2258.0,-0.0073
2257.0,-0.0073
2256.0,-0.0073
2255.0,-0.0073
2254.0,-0.0073
2253.0,-0.0072
2252.0,-0.0071
2251.0,-0.007
2250.0,-0.0069
2249.0,-0.0068
2248.0,-0.0068
2247.0,-0.0068
2246.0,-0.0068
2245.0,-0.0069
2244.0,-0.0069
2243.0,-0.0069
2242.0,-0.0069
2241.0,-0.0069
2240.0,-0.0068
2239.0,-0.0068
2238.0,-0.0068
2237.0,-0.0067
2236.0,-0.0067
2235.0,-0.0066
2234.0,-0.0066
2233.0,-0.0065
2232.0,-0.0065
2231.0,-0.0065
2230.0,-0.0066
2229.0,-0.0066
2228.0,-0.0065
2227.0,-0.0065
2226.0,-0.0065
2225.0,-0.0065
2224.0,-0.0065
2223.0,-0.0065
2222.0,-0.0065
2221.0,-0.0064
2220.0,-0.0064
2219.0,-0.0064
2218.0,-0.0064
2217.0,-0.0064
2216.0,-0.0064
2215.0,-0.0064
2214.0,-0.0064
2213.0,-0.0064
2212.0,-0.0064
2211.0,-0.0064
2210.0,-0.0065
2209.0,-0.0065
2208.0,-0.0065
2207.0,-0.0064
2206.0,-0.0064
2205.0,-0.0064
2204.0,-0.0064
2203.0,-0.0064
2202.0,-0.0064
2201.0,-0.0064
2200.0,-0.0064
2199.0,-0.0064
2198.0,-0.0064
2197.0,-0.0064
2196.0,-0.0064
2195.0,-0.0064
2194.0,-0.0063
2193.0,-0.0063
2192.0,-0.0063
2191.0,-0.0063
2190.0,-0.0063
2189.0,-0.0063
2188.0,-0.0064
2187.0,-0.0064
2186.0,-0.0065
2185.0,-0.0065
2184.0,-0.0065
2183.0,-0.0065
2182.0,-0.0065
2181.0,-0.0065
2180.0,-0.0064
2179.0,-0.0064
2178.0,-0.0063
2177.0,-0.0063
2176.0,-0.0062
2175.0,-0.0062
2174.0,-0.0063
2173.0,-0.0063
2172.0,-0.0064
2171.0,-0.0064
2170.0,-0.0064
2169.0,-0.0064
2168.0,-0.0064
2167.0,-0.0064
2166.0,-0.0064
2165.0,-0.0065
2164.0,-0.0065
2163.0,-0.0064
2162.0,-0.0064
2161.0,-0.0064
2160.0,-0.0063
2159.0,-0.0063
2158.0,-0.0062
2157.0,-0.0062
2156.0,-0.0063
2155.0,-0.0063
2154.0,-0.0063
2153.0,-0.0063
2152.0,-0.0063
2151.0,-0.0063
2150.0,-0.0063
2149.0,-0.0063
2148.0,-0.0063
2147.0,-0.0063
2146.0,-0.0063
2145.0,-0.0063
2144.0,-0.0063
2143.0,-0.0064
2142.0,-0.0064
2141.0,-0.0063
2140.0,-0.0063
2139.0,-0.0063
2138.0,-0.0063
2137.0,-0.0063
2136.0,-0.0063
2135.0,-0.0063
2134.0,-0.0063
2133.0,-0.0063
2132.0,-0.0062
2131.0,-0.0062
2130.0,-0.0062
2129.0,-0.0062
2128.0,-0.0062
2127.0,-0.0062
2126.0,-0.0062
2125.0,-0.0063
2124.0,-0.0063
2123.0,-0.0062
2122.0,-0.0062
2121.0,-0.0063
2120.0,-0.0063
2119.0,-0.0063
2118.0,-0.0063
2117.0,-0.0064
2116.0,-0.0064
2115.0,-0.0065
2114.0,-0.0065
2113.0,-0.0064
2112.0,-0.0063
2111.0,-0.0062
2110.0,-0.0062
2109.0,-0.0062
2108.0,-0.0062
2107.0,-0.0063
2106.0,-0.0063
2105.0,-0.0064
2104.0,-0.0064
2103.0,-0.0065
2102.0,-0.0065
2101.0,-0.0064
2100.0,-0.0064
2099.0,-0.0063
2098.0,-0.0063
2097.0,-0.0063
2096.0,-0.0063
2095.0,-0.0063
2094.0,-0.0063
2093.0,-0.0063
2092.0,-0.0064
2091.0,-0.0064
2090.0,-0.0064
2089.0,-0.0063
2088.0,-0.0063
2087.0,-0.0063
2086.0,-0.0063
2085.0,-0.0063
2084.0,-0.0063
2083.0,-0.0064
2082.0,-0.0064
2081.0,-0.0064
2080.0,-0.0064
2079.0,-0.0064
2078.0,-0.0064
2077.0,-0.0064
2076.0,-0.0064
2075.0,-0.0064
2074.0,-0.0063
2073.0,-0.0063
2072.0,-0.0063
2071.0,-0.0063
2070.0,-0.0064
2069.0,-0.0064
2068.0,-0.0064
2067.0,-0.0064
2066.0,-0.0064
2065.0,-0.0063
2064.0,-0.0062
2063.0,-0.0062
2062.0,-0.0061
2061.0,-0.0061
2060.0,-0.0061
2059.0,-0.0062
2058.0,-0.0062
2057.0,-0.0062
2056.0,-0.0062
2055.0,-0.0062
2054.0,-0.0062
2053.0,-0.0062
2052.0,-0.0061
2051.0,-0.0061
2050.0,-0.0061
2049.0,-0.0061
2048.0,-0.0061
2047.0,-0.0061
2046.0,-0.0061
2045.0,-0.006
2044.0,-0.006
2043.0,-0.006
2042.0,-0.0061
2041.0,-0.0061
2040.0,-0.0061
2039.0,-0.0061
2038.0,-0.006
2037.0,-0.006
2036.0,-0.0059
2035.0,-0.0059
2034.0,-0.0059
2033.0,-0.006
2032.0,-0.006
2031.0,-0.006
2030.0,-0.006
2029.0,-0.006
2028.0,-0.006
2027.0,-0.0059
2026.0,-0.006
2025.0,-0.006
2024.0,-0.006
2023.0,-0.006
2022.0,-0.0059
2021.0,-0.0059
2020.0,-0.0059
2019.0,-0.0059
2018.0,-0.006
2017.0,-0.006
2016.0,-0.006
2015.0,-0.0059
2014.0,-0.0058
2013.0,-0.0058
2012.0,-0.0058
2011.0,-0.0058
2010.0,-0.0058
2009.0,-0.0059
2008.0,-0.0058
2007.0,-0.0058
2006.0,-0.0058
2005.0,-0.0058
2004.0,-0.0058
2003.0,-0.0058
2002.0,-0.0058
2001.0,-0.0057
2000.0,-0.0058
1999.0,-0.0058
1998.0,-0.0058
1997.0,-0.0058
1996.0,-0.0058
1995.0,-0.0058
1994.0,-0.0057
1993.0,-0.0057
1992.0,-0.0057
1991.0,-0.0057
1990.0,-0.0057
1989.0,-0.0057
1988.0,-0.0057
1987.0,-0.0057
1986.0,-0.0057
1985.0,-0.0057
1984.0,-0.0057
1983.0,-0.0057
1982.0,-0.0057
1981.0,-0.0056
1980.0,-0.0056
1979.0,-0.0056
1978.0,-0.0056
1977.0,-0.0055
1976.0,-0.0055
1975.0,-0.0055
1974.0,-0.0055
1973.0,-0.0055
1972.0,-0.0055
1971.0,-0.0055
1970.0,-0.0055
1969.0,-0.0056
1968.0,-0.0056
1967.0,-0.0056
1966.0,-0.0056
1965.0,-0.0055
1964.0,-0.0055
1963.0,-0.0055
1962.0,-0.0055
1961.0,-0.0055
1960.0,-0.0055
1959.0,-0.0055
1958.0,-0.0055
1957.0,-0.0055
1956.0,-0.0055
1955.0,-0.0055
1954.0,-0.0055
1953.0,-0.0055
1952.0,-0.0055
1951.0,-0.0055
1950.0,-0.0054
1949.0,-0.0054
1948.0,-0.0053
1947.0,-0.0053
1946.0,-0.0054
1945.0,-0.0054
1944.0,-0.0054
1943.0,-0.0054
1942.0,-0.0054
1941.0,-0.0054
1940.0,-0.0053
1939.0,-0.0053
1938.0,-0.0053
1937.0,-0.0052
1936.0,-0.0053
1935.0,-0.0053
1934.0,-0.0053
1933.0,-0.0053
1932.0,-0.0053
1931.0,-0.0054
1930.0,-0.0054
1929.0,-0.0054
1928.0,-0.0054
1927.0,-0.0053
1926.0,-0.0053
1925.0,-0.0053
1924.0,-0.0053
1923.0,-0.0053
1922.0,-0.0053
1921.0,-0.0053
1920.0,-0.0053
1919.0,-0.0053
1918.0,-0.0053
1917.0,-0.0053
1916.0,-0.0052
1915.0,-0.0052
1914.0,-0.0052
1913.0,-0.0052
1912.0,-0.0052
1911.0,-0.0052
1910.0,-0.0052
1909.0,-0.0052
1908.0,-0.0052
1907.0,-0.0052
1906.0,-0.0052
1905.0,-0.0052
1904.0,-0.0052
1903.0,-0.0052
1902.0,-0.0053
1901.0,-0.0053
1900.0,-0.0052
1899.0,-0.0052
1898.0,-0.0051
1897.0,-0.0051
1896.0,-0.0051
1895.0,-0.0051
1894.0,-0.0051
1893.0,-0.0051
1892.0,-0.005
1891.0,-0.005
1890.0,-0.005
1889.0,-0.0051
1888.0,-0.0051
1887.0,-0.0051
1886.0,-0.0051
1885.0,-0.0051
1884.0,-0.0051
1883.0,-0.0051
1882.0,-0.0051
1881.0,-0.0051
1880.0,-0.0051
1879.0,-0.0051
1878.0,-0.0051
1877.0,-0.0051
1876.0,-0.0051
1875.0,-0.005
1874.0,-0.005
1873.0,-0.005
1872.0,-0.005
1871.0,-0.005
1870.0,-0.0051
1869.0,-0.0051
1868.0,-0.0051
1867.0,-0.0051
1866.0,-0.0051
1865.0,-0.0051
1864.0,-0.0051
1863.0,-0.0052
1862.0,-0.0052
1861.0,-0.0052
1860.0,-0.0051
1859.0,-0.0051
1858.0,-0.0052
1857.0,-0.0052
1856.0,-0.0052
1855.0,-0.0052
1854.0,-0.0051
1853.0,-0.0051
1852.0,-0.0051
1851.0,-0.0051
1850.0,-0.005
1849.0,-0.005
1848.0,-0.0051
1847.0,-0.0051
1846.0,-0.0052
1845.0,-0.0053
1844.0,-0.0052
1843.0,-0.0052
1842.0,-0.0051
1841.0,-0.0051
1840.0,-0.0051
1839.0,-0.005
1838.0,-0.005
1837.0,-0.0051
1836.0,-0.0051
1835.0,-0.0051
1834.0,-0.0051
1833.0,-0.0051
1832.0,-0.0051
1831.0,-0.0051
1830.0,-0.0051
1829.0,-0.0051
1828.0,-0.0052
1827.0,-0.0052
1826.0,-0.0052
1825.0,-0.0052
1824.0,-0.0051
1823.0,-0.0051
1822.0,-0.0051
1821.0,-0.0051
1820.0,-0.005
1819.0,-0.005
1818.0,-0.005
1817.0,-0.005
1816.0,-0.005
1815.0,-0.005
1814.0,-0.005
1813.0,-0.005
1812.0,-0.005
1811.0,-0.005
1810.0,-0.005
1809.0,-0.005
1808.0,-0.0051
1807.0,-0.0051
1806.0,-0.0052
1805.0,-0.0052
1804.0,-0.0052
1803.0,-0.0052
1802.0,-0.0052
1801.0,-0.0052
1800.0,-0.0051
1799.0,-0.0051
1798.0,-0.0051
1797.0,-0.0051
1796.0,-0.0051
1795.0,-0.0051
1794.0,-0.0052
1793.0,-0.0052
1792.0,-0.0052
1791.0,-0.0052
1790.0,-0.0052
1789.0,-0.0052
1788.0,-0.0053
1787.0,-0.0053
1786.0,-0.0053
1785.0,-0.0053
1784.0,-0.0053
1783.0,-0.0052
1782.0,-0.0052
1781.0,-0.0052
1780.0,-0.0052
1779.0,-0.0052
1778.0,-0.0052
1777.0,-0.0053
1776.0,-0.0054
1775.0,-0.0054
1774.0,-0.0055
1773.0,-0.0056
1772.0,-0.0056
1771.0,-0.0055
1770.0,-0.0055
1769.0,-0.0055
1768.0,-0.0055
1767.0,-0.0054
1766.0,-0.0055
1765.0,-0.0055
1764.0,-0.0055
1763.0,-0.0056
1762.0,-0.0055
1761.0,-0.0055
1760.0,-0.0055
1759.0,-0.0055
1758.0,-0.0056
1757.0,-0.0056
1756.0,-0.0056
1755.0,-0.0057
1754.0,-0.0057
1753.0,-0.0057
1752.0,-0.0057
1751.0,-0.0057
1750.0,-0.0058
1749.0,-0.0058
1748.0,-0.0059
1747.0,-0.0059
1746.0,-0.0059
1745.0,-0.006
1744.0,-0.006
1743.0,-0.006
1742.0,-0.0061
1741.0,-0.0061
1740.0,-0.0062
1739.0,-0.0062
1738.0,-0.0062
1737.0,-0.0062
1736.0,-0.0062
1735.0,-0.0063
1734.0,-0.0064
1733.0,-0.0065
1732.0,-0.0066
1731.0,-0.0067
1730.0,-0.0068
1729.0,-0.0068
1728.0,-0.0069
1727.0,-0.007
1726.0,-0.007
1725.0,-0.0071
1724.0,-0.0072
1723.0,-0.0073
1722.0,-0.0073
1721.0,-0.0073
1720.0,-0.0074
1719.0,-0.0075
1718.0,-0.0078
1717.0,-0.008
1716.0,-0.0082
1715.0,-0.0084
1714.0,-0.0084
1713.0,-0.0085
1712.0,-0.0087
1711.0,-0.0088
1710.0,-0.009
1709.0,-0.0091
1708.0,-0.0093
1707.0,-0.0096
1706.0,-0.0098
1705.0,-0.01
1704.0,-0.0101
1703.0,-0.0102
1702.0,-0.0102
1701.0,-0.0104
1700.0,-0.0108
1699.0,-0.0112
1698.0,-0.0115
1697.0,-0.0117
1696.0,-0.0121
1695.0,-0.0125
1694.0,-0.0128
1693.0,-0.013
1692.0,-0.0133
1691.0,-0.0136
1690.0,-0.014
1689.0,-0.0144
1688.0,-0.0147
1687.0,-0.0149
1686.0,-0.0151
1685.0,-0.0156
1684.0,-0.0164
1683.0,-0.0171
1682.0,-0.0176
1681.0,-0.0181
1680.0,-0.0186
1679.0,-0.0191
1678.0,-0.0194
1677.0,-0.0198
1676.0,-0.0203
1675.0,-0.0209
1674.0,-0.0215
1673.0,-0.0219
1672.0,-0.0223
1671.0,-0.0228
1670.0,-0.0234
1669.0,-0.024
1668.0,-0.0244
1667.0,-0.0247
1666.0,-0.0249
1665.0,-0.0252
1664.0,-0.0256
1663.0,-0.0261
1662.0,-0.0266
1661.0,-0.027
1660.0,-0.0273
1659.0,-0.0275
1658.0,-0.0277
1657.0,-0.0278
1656.0,-0.0279
1655.0,-0.0279
1654.0,-0.0281
1653.0,-0.0287
1652.0,-0.0293
1651.0,-0.0294
1650.0,-0.0294
1649.0,-0.0292
1648.0,-0.0291
1647.0,-0.0291
1646.0,-0.0291
1645.0,-0.0291
1644.0,-0.0291
1643.0,-0.0291
1642.0,-0.0291
1641.0,-0.0291
1640.0,-0.029
1639.0,-0.029
1638.0,-0.0289
1637.0,-0.0289
1636.0,-0.029
1635.0,-0.0291
1634.0,-0.0292
1633.0,-0.0291
1632.0,-0.029
1631.0,-0.0289
1630.0,-0.0287
1629.0,-0.0285
1628.0,-0.0284
1627.0,-0.0282
1626.0,-0.028
1625.0,-0.0277
1624.0,-0.0275
1623.0,-0.0272
1622.0,-0.0269
1621.0,-0.0265
1620.0,-0.0262
1619.0,-0.0258
1618.0,-0.0253
1617.0,-0.0247
1616.0,-0.0242
1615.0,-0.0238
1614.0,-0.0235
1613.0,-0.0232
1612.0,-0.0228
1611.0,-0.0225
1610.0,-0.0221
1609.0,-0.0217
1608.0,-0.0213
1607.0,-0.0209
1606.0,-0.0205
1605.0,-0.0202
1604.0,-0.0199
1603.0,-0.0196
1602.0,-0.0192
1601.0,-0.0188
1600.0,-0.0185
1599.0,-0.0182
1598.0,-0.0179
1597.0,-0.0176
1596.0,-0.0173
1595.0,-0.017
1594.0,-0.0168
1593.0,-0.0165
1592.0,-0.0162
1591.0,-0.016
1590.0,-0.0157
1589.0,-0.0154
1588.0,-0.0151
1587.0,-0.0149
1586.0,-0.0147
1585.0,-0.0144
1584.0,-0.0142
1583.0,-0.0139
1582.0,-0.0137
1581.0,-0.0135
1580.0,-0.0133
1579.0,-0.0131
1578.0,-0.0129
1577.0,-0.0127
1576.0,-0.0124
1575.0,-0.0123
1574.0,-0.0122
1573.0,-0.0121
1572.0,-0.0119
1571.0,-0.0118
1570.0,-0.0117
1569.0,-0.0116
1568.0,-0.0115
1567.0,-0.0114
1566.0,-0.0113
1565.0,-0.0112
1564.0,-0.011
1563.0,-0.0109
1562.0,-0.0106
1561.0,-0.0102
1560.0,-0.0096
1559.0,-0.0094
1558.0,-0.0097
1557.0,-0.0101
1556.0,-0.0103
1555.0,-0.0103
1554.0,-0.0102
1553.0,-0.0101
1552.0,-0.01
1551.0,-0.0099
1550.0,-0.0098
1549.0,-0.0097
1548.0,-0.0096
1547.0,-0.0095
1546.0,-0.0095
1545.0,-0.0095
1544.0,-0.0095
1543.0,-0.0095
1542.0,-0.0094
1541.0,-0.0094
1540.0,-0.0092
1539.0,-0.009
1538.0,-0.009
1537.0,-0.0089
1536.0,-0.0089
1535.0,-0.0088
1534.0,-0.0086
1533.0,-0.0086
1532.0,-0.0086
1531.0,-0.0087
1530.0,-0.0087
1529.0,-0.0087
1528.0,-0.0086
1527.0,-0.0085
1526.0,-0.0085
1525.0,-0.0085
1524.0,-0.0086
1523.0,-0.0087
1522.0,-0.0087
1521.0,-0.0086
1520.0,-0.0085
1519.0,-0.0085
1518.0,-0.0084
1517.0,-0.0083
1516.0,-0.0083
1515.0,-0.0083
1514.0,-0.0084
1513.0,-0.0083
1512.0,-0.0082
1511.0,-0.0081
1510.0,-0.008
1509.0,-0.0079
1508.0,-0.0079
1507.0,-0.008
1506.0,-0.0079
1505.0,-0.008
1504.0,-0.008
1503.0,-0.008
1502.0,-0.008
1501.0,-0.0081
1500.0,-0.0081
1499.0,-0.008
1498.0,-0.008
1497.0,-0.0079
1496.0,-0.0078
1495.0,-0.0078
1494.0,-0.0079
1493.0,-0.0079
1492.0,-0.008
1491.0,-0.008
1490.0,-0.008
1489.0,-0.008
1488.0,-0.008
1487.0,-0.008
1486.0,-0.008
1485.0,-0.008
1484.0,-0.008
1483.0,-0.008
1482.0,-0.008
1481.0,-0.0079
1480.0,-0.0079
1479.0,-0.0078
1478.0,-0.0078
1477.0,-0.0077
1476.0,-0.0077
1475.0,-0.0078
1474.0,-0.0078
1473.0,-0.0078
1472.0,-0.0078
1471.0,-0.0078
1470.0,-0.0079
1469.0,-0.0079
1468.0,-0.008
1467.0,-0.008
1466.0,-0.008
1465.0,-0.008
1464.0,-0.008
1463.0,-0.008
1462.0,-0.008
1461.0,-0.008
1460.0,-0.008
1459.0,-0.008
1458.0,-0.0081
1457.0,-0.0081
1456.0,-0.0081
1455.0,-0.0081
1454.0,-0.0081
1453.0,-0.008
1452.0,-0.008
1451.0,-0.0079
1450.0,-0.0079
1449.0,-0.0079
1448.0,-0.008
1447.0,-0.008
1446.0,-0.008
1445.0,-0.008
1444.0,-0.008
1443.0,-0.008
1442.0,-0.008
1441.0,-0.008
1440.0,-0.0079
1439.0,-0.0079
1438.0,-0.0079
1437.0,-0.0079
1436.0,-0.0079
1435.0,-0.0079
1434.0,-0.0079
1433.0,-0.0079
1432.0,-0.0079
1431.0,-0.0078
1430.0,-0.0078
1429.0,-0.0078
1428.0,-0.0078
1427.0,-0.0077
1426.0,-0.0077
1425.0,-0.0077
1424.0,-0.0077
1423.0,-0.0077
1422.0,-0.0077
1421.0,-0.0077
1420.0,-0.0077
1419.0,-0.0077
1418.0,-0.0076
1417.0,-0.0076
1416.0,-0.0075
1415.0,-0.0075
1414.0,-0.0075
1413.0,-0.0075
1412.0,-0.0075
1411.0,-0.0076
1410.0,-0.0076
1409.0,-0.0076
1408.0,-0.0076
1407.0,-0.0077
1406.0,-0.0078
1405.0,-0.0078
1404.0,-0.0079
1403.0,-0.0079
1402.0,-0.0079
1401.0,-0.008
1400.0,-0.008
1399.0,-0.0081
1398.0,-0.0081
1397.0,-0.0081
1396.0,-0.0081
1395.0,-0.0081
1394.0,-0.008
1393.0,-0.008
1392.0,-0.008
1391.0,-0.0081
1390.0,-0.0081
1389.0,-0.0081
1388.0,-0.0081
1387.0,-0.008
1386.0,-0.008
1385.0,-0.0081
1384.0,-0.0081
1383.0,-0.0081
1382.0,-0.0082
1381.0,-0.0082
1380.0,-0.0082
1379.0,-0.0083
1378.0,-0.0084
1377.0,-0.0084
1376.0,-0.0084
1375.0,-0.0084
1374.0,-0.0084
1373.0,-0.0084
1372.0,-0.0084
1371.0,-0.0083
1370.0,-0.0082
1369.0,-0.0082
1368.0,-0.008
1367.0,-0.0079
1366.0,-0.0079
1365.0,-0.0078
1364.0,-0.0077
1363.0,-0.0077
1362.0,-0.0076
1361.0,-0.0076
1360.0,-0.0076
1359.0,-0.0076
1358.0,-0.0076
1357.0,-0.0076
1356.0,-0.0076
1355.0,-0.0076
1354.0,-0.0076
1353.0,-0.0075
1352.0,-0.0075
1351.0,-0.0074
1350.0,-0.0074
1349.0,-0.0074
1348.0,-0.0074
1347.0,-0.0074
1346.0,-0.0074
1345.0,-0.0074
1344.0,-0.0074
1343.0,-0.0074
1342.0,-0.0073
1341.0,-0.0073
1340.0,-0.0072
1339.0,-0.0072
1338.0,-0.0072
1337.0,-0.0072
1336.0,-0.0072
1335.0,-0.0072
1334.0,-0.0072
1333.0,-0.0072
1332.0,-0.0072
1331.0,-0.0072
1330.0,-0.0072
1329.0,-0.0072
1328.0,-0.0072
1327.0,-0.0073
1326.0,-0.0073
1325.0,-0.0072
1324.0,-0.0072
1323.0,-0.0072
1322.0,-0.0072
1321.0,-0.0071
1320.0,-0.0071
1319.0,-0.0071
1318.0,-0.0071
1317.0,-0.0071
1316.0,-0.0071
1315.0,-0.0071
1314.0,-0.0071
1313.0,-0.0071
1312.0,-0.0071
1311.0,-0.007
1310.0,-0.007
1309.0,-0.007
1308.0,-0.007
1307.0,-0.007
1306.0,-0.007
1305.0,-0.007
1304.0,-0.007
1303.0,-0.007
1302.0,-0.0069
1301.0,-0.0069
1300.0,-0.0069
1299.0,-0.0069
1298.0,-0.0069
1297.0,-0.0069
1296.0,-0.0069
1295.0,-0.0069
1294.0,-0.0068
1293.0,-0.0068
1292.0,-0.0068
1291.0,-0.0067
1290.0,-0.0068
1289.0,-0.0068
1288.0,-0.0069
1287.0,-0.0069
1286.0,-0.0069
1285.0,-0.0068
1284.0,-0.0067
1283.0,-0.0067
1282.0,-0.0067
1281.0,-0.0067
1280.0,-0.0068
1279.0,-0.0068
1278.0,-0.0068
1277.0,-0.0068
1276.0,-0.0068
1275.0,-0.0067
1274.0,-0.0067
1273.0,-0.0067
1272.0,-0.0066
1271.0,-0.0067
1270.0,-0.0067
1269.0,-0.0068
1268.0,-0.0068
1267.0,-0.0067
1266.0,-0.0067
1265.0,-0.0066
1264.0,-0.0067
1263.0,-0.0067
1262.0,-0.0067
1261.0,-0.0066
1260.0,-0.0066
1259.0,-0.0066
1258.0,-0.0065
1257.0,-0.0065
1256.0,-0.0064
1255.0,-0.0064
1254.0,-0.0065
1253.0,-0.0065
1252.0,-0.0065
1251.0,-0.0064
1250.0,-0.0064
1249.0,-0.0064
1248.0,-0.0064
1247.0,-0.0064
1246.0,-0.0064
1245.0,-0.0064
1244.0,-0.0064
1243.0,-0.0064
1242.0,-0.0063
1241.0,-0.0063
1240.0,-0.0063
1239.0,-0.0062
1238.0,-0.0062
1237.0,-0.0062
1236.0,-0.0062
1235.0,-0.0062
1234.0,-0.0062
1233.0,-0.0062
1232.0,-0.0062
1231.0,-0.0062
1230.0,-0.0062
1229.0,-0.0062
1228.0,-0.0061
1227.0,-0.006
1226.0,-0.006
1225.0,-0.0059
1224.0,-0.0059
1223.0,-0.0059
1222.0,-0.0059
1221.0,-0.006
1220.0,-0.006
1219.0,-0.006
1218.0,-0.006
1217.0,-0.006
1216.0,-0.006
1215.0,-0.006
1214.0,-0.006
1213.0,-0.006
1212.0,-0.006
1211.0,-0.006
1210.0,-0.0059
1209.0,-0.0059
1208.0,-0.0059
1207.0,-0.0059
1206.0,-0.0059
1205.0,-0.0059
1204.0,-0.0059
1203.0,-0.0059
1202.0,-0.006
1201.0,-0.006
1200.0,-0.0061
1199.0,-0.0061
1198.0,-0.0061
1197.0,-0.0061
1196.0,-0.0062
1195.0,-0.0062
1194.0,-0.0063
1193.0,-0.0064
1192.0,-0.0065
1191.0,-0.0066
1190.0,-0.0067
1189.0,-0.0067
1188.0,-0.0067
1187.0,-0.0068
1186.0,-0.0068
1185.0,-0.0069
1184.0,-0.007
1183.0,-0.0071
1182.0,-0.0073
1181.0,-0.0074
1180.0,-0.0075
1179.0,-0.0075
1178.0,-0.0076
1177.0,-0.0077
1176.0,-0.0078
1175.0,-0.0079
1174.0,-0.008
1173.0,-0.0082
1172.0,-0.0083
1171.0,-0.0084
1170.0,-0.0085
1169.0,-0.0086
1168.0,-0.0088
1167.0,-0.009
1166.0,-0.0092
1165.0,-0.0093
1164.0,-0.0094
1163.0,-0.0095
1162.0,-0.0097
1161.0,-0.0098
1160.0,-0.0099
1159.0,-0.01
1158.0,-0.0101
1157.0,-0.0102
1156.0,-0.0104
1155.0,-0.0105
1154.0,-0.0107
1153.0,-0.0109
1152.0,-0.0111
1151.0,-0.0113
1150.0,-0.0115
1149.0,-0.0117
1148.0,-0.0119
1147.0,-0.012
1146.0,-0.0121
1145.0,-0.0122
1144.0,-0.0123
1143.0,-0.0125
1142.0,-0.0128
1141.0,-0.013
1140.0,-0.0132
1139.0,-0.0134
1138.0,-0.0136
1137.0,-0.0139
1136.0,-0.0141
1135.0,-0.0142
1134.0,-0.0143
1133.0,-0.0143
1132.0,-0.0144
1131.0,-0.0145
1130.0,-0.0146
1129.0,-0.0147
1128.0,-0.0148
1127.0,-0.0149
1126.0,-0.015
1125.0,-0.0151
1124.0,-0.0152
1123.0,-0.0152
1122.0,-0.0152
1121.0,-0.0152
1120.0,-0.0152
1119.0,-0.0152
1118.0,-0.0152
1117.0,-0.0152
1116.0,-0.0152
1115.0,-0.0152
1114.0,-0.0151
1113.0,-0.0151
1112.0,-0.015
1111.0,-0.015
1110.0,-0.015
1109.0,-0.015
1108.0,-0.015
1107.0,-0.0149
1106.0,-0.0148
1105.0,-0.0146
1104.0,-0.0145
1103.0,-0.0144
1102.0,-0.0144
1101.0,-0.0144
1100.0,-0.0144
1099.0,-0.0143
1098.0,-0.0142
1097.0,-0.0141
1096.0,-0.0139
1095.0,-0.0137
1094.0,-0.0136
1093.0,-0.0135
1092.0,-0.0135
1091.0,-0.0134
1090.0,-0.0132
1089.0,-0.013
1088.0,-0.0128
1087.0,-0.0126
1086.0,-0.0125
1085.0,-0.0123
1084.0,-0.0121
1083.0,-0.0118
1082.0,-0.0117
1081.0,-0.0115
1080.0,-0.0114
1079.0,-0.0113
1078.0,-0.0113
1077.0,-0.0112
1076.0,-0.011
1075.0,-0.0108
1074.0,-0.0106
1073.0,-0.0105
1072.0,-0.0104
1071.0,-0.0103
1070.0,-0.0102
1069.0,-0.0101
1068.0,-0.01
1067.0,-0.0099
1066.0,-0.0098
1065.0,-0.0096
1064.0,-0.0095
1063.0,-0.0094
1062.0,-0.0093
1061.0,-0.0092
1060.0,-0.0091
1059.0,-0.0091
1058.0,-0.009
1057.0,-0.009
1056.0,-0.009
1055.0,-0.0089
1054.0,-0.0088
1053.0,-0.0087
1052.0,-0.0086
1051.0,-0.0087
1050.0,-0.0088
1049.0,-0.0089
1048.0,-0.0089
1047.0,-0.0088
1046.0,-0.0087
1045.0,-0.0087
1044.0,-0.0087
1043.0,-0.0088
1042.0,-0.0089
1041.0,-0.0089
1040.0,-0.0089
1039.0,-0.0089
1038.0,-0.0089
1037.0,-0.0087
1036.0,-0.0086
1035.0,-0.0085
1034.0,-0.0085
1033.0,-0.0086
1032.0,-0.0086
1031.0,-0.0086
1030.0,-0.0087
1029.0,-0.0087
1028.0,-0.0087
1027.0,-0.0087
1026.0,-0.0086
1025.0,-0.0086
1024.0,-0.0086
1023.0,-0.0086
1022.0,-0.0086
1021.0,-0.0086
1020.0,-0.0086
1019.0,-0.0085
1018.0,-0.0085
1017.0,-0.0085
1016.0,-0.0085
1015.0,-0.0085
1014.0,-0.0086
1013.0,-0.0086
1012.0,-0.0087
1011.0,-0.0087
1010.0,-0.0088
1009.0,-0.0087
1008.0,-0.0086
1007.0,-0.0085
1006.0,-0.0084
1005.0,-0.0084
1004.0,-0.0085
1003.0,-0.0086
1002.0,-0.0087
1001.0,-0.0088
1000.0,-0.0088
999.0,-0.0089
998.0,-0.0089
997.0,-0.0088
996.0,-0.0088
995.0,-0.0088
994.0,-0.0088
993.0,-0.0088
992.0,-0.0088
991.0,-0.0088
990.0,-0.0089
989.0,-0.0089
988.0,-0.009
987.0,-0.009
986.0,-0.009
985.0,-0.009
984.0,-0.009
983.0,-0.009
982.0,-0.009
981.0,-0.009
980.0,-0.0091
979.0,-0.0091
978.0,-0.0091
977.0,-0.0092
976.0,-0.0092
975.0,-0.0092
974.0,-0.0091
973.0,-0.009
972.0,-0.0089
971.0,-0.0089
970.0,-0.0089
969.0,-0.0088
968.0,-0.0088
967.0,-0.0088
966.0,-0.0088
965.0,-0.0088
964.0,-0.0089
963.0,-0.0089
962.0,-0.0089
961.0,-0.0089
960.0,-0.0089
959.0,-0.0089
958.0,-0.0089
957.0,-0.0089
956.0,-0.0089
955.0,-0.0089
954.0,-0.0089
953.0,-0.0089
952.0,-0.0088
951.0,-0.0089
950.0,-0.0089
949.0,-0.009
948.0,-0.0091
947.0,-0.0091
946.0,-0.0091
945.0,-0.0092
944.0,-0.0092
943.0,-0.0092
942.0,-0.0092
941.0,-0.0092
940.0,-0.0092
939.0,-0.0092
938.0,-0.0092
937.0,-0.0091
936.0,-0.0091
935.0,-0.0092
934.0,-0.0093
933.0,-0.0093
932.0,-0.0093
931.0,-0.0093
930.0,-0.0092
929.0,-0.0092
928.0,-0.0093
927.0,-0.0093
926.0,-0.0094
925.0,-0.0095
924.0,-0.0096
923.0,-0.0096
922.0,-0.0096
921.0,-0.0096
920.0,-0.0096
919.0,-0.0096
918.0,-0.0097
917.0,-0.0097
916.0,-0.0098
915.0,-0.0097
914.0,-0.0097
913.0,-0.0097
912.0,-0.0097
911.0,-0.0098
910.0,-0.0099
909.0,-0.01
908.0,-0.0101
907.0,-0.0102
906.0,-0.0102
905.0,-0.0102
904.0,-0.0103
903.0,-0.0103
902.0,-0.0103
901.0,-0.0103
900.0,-0.0103
899.0,-0.0103
898.0,-0.0104
897.0,-0.0106
896.0,-0.0107
895.0,-0.0107
894.0,-0.0107
893.0,-0.0107
892.0,-0.0107
891.0,-0.0107
890.0,-0.0107
889.0,-0.0107
888.0,-0.0108
887.0,-0.0108
886.0,-0.0108
885.0,-0.0108
884.0,-0.0108
883.0,-0.0109
882.0,-0.011
881.0,-0.0111
880.0,-0.0111
879.0,-0.0111
878.0,-0.0111
877.0,-0.0112
876.0,-0.0112
875.0,-0.0114
874.0,-0.0116
873.0,-0.0118
872.0,-0.0119
871.0,-0.012
870.0,-0.0119
869.0,-0.0119
868.0,-0.012
867.0,-0.012
866.0,-0.0121
865.0,-0.0122
864.0,-0.0123
863.0,-0.0124
862.0,-0.0126
861.0,-0.0127
860.0,-0.0128
859.0,-0.0129
858.0,-0.013
857.0,-0.0132
856.0,-0.0134
855.0,-0.0135
854.0,-0.0136
853.0,-0.0136
852.0,-0.0136
851.0,-0.0136
850.0,-0.0137
849.0,-0.0138
848.0,-0.0138
847.0,-0.0139
846.0,-0.0139
845.0,-0.014
844.0,-0.0141
843.0,-0.0143
842.0,-0.0145
841.0,-0.0147
840.0,-0.0148
839.0,-0.0148
838.0,-0.0148
837.0,-0.0149
836.0,-0.0151
835.0,-0.0153
834.0,-0.0155
833.0,-0.0156
832.0,-0.0156
831.0,-0.0156
830.0,-0.0155
829.0,-0.0156
828.0,-0.0158
827.0,-0.0161
826.0,-0.0164
825.0,-0.0166
824.0,-0.0167
823.0,-0.0169
822.0,-0.017
821.0,-0.0172
820.0,-0.0173
819.0,-0.0175
818.0,-0.0177
817.0,-0.0178
816.0,-0.0179
815.0,-0.0179
814.0,-0.018
813.0,-0.0182
812.0,-0.0184
811.0,-0.0185
810.0,-0.0185
809.0,-0.0186
808.0,-0.0188
807.0,-0.019
806.0,-0.0192
805.0,-0.0193
804.0,-0.0193
803.0,-0.0193
802.0,-0.0195
801.0,-0.0197
800.0,-0.0201
799.0,-0.0204
798.0,-0.0206
797.0,-0.0207
796.0,-0.0208
795.0,-0.0208
794.0,-0.021
793.0,-0.0212
792.0,-0.0214
791.0,-0.0216
790.0,-0.0218
789.0,-0.022
788.0,-0.0221
787.0,-0.0222
786.0,-0.0223
785.0,-0.0223
784.0,-0.0225
783.0,-0.0228
782.0,-0.023
781.0,-0.0231
780.0,-0.0231
779.0,-0.0231
778.0,-0.0233
777.0,-0.0236
776.0,-0.0239
775.0,-0.0243
774.0,-0.0246
773.0,-0.0248
772.0,-0.0248
771.0,-0.0248
770.0,-0.0249
769.0,-0.025
768.0,-0.0252
767.0,-0.0254
766.0,-0.0255
765.0,-0.0257
764.0,-0.0259
763.0,-0.026
762.0,-0.0262
761.0,-0.0264
760.0,-0.0266
759.0,-0.0268
758.0,-0.027
757.0,-0.0271
756.0,-0.0272
755.0,-0.0273
754.0,-0.0274
753.0,-0.0276
752.0,-0.0277
751.0,-0.0279
750.0,-0.0282
749.0,-0.0285
748.0,-0.0287
747.0,-0.0288
746.0,-0.0289
745.0,-0.0291
744.0,-0.0294
743.0,-0.0297
742.0,-0.0298
741.0,-0.0298
740.0,-0.0298
739.0,-0.0299
738.0,-0.0302
737.0,-0.0305
736.0,-0.0307
735.0,-0.031
734.0,-0.0313
733.0,-0.0315
732.0,-0.0317
731.0,-0.0317
730.0,-0.0316
729.0,-0.0314
728.0,-0.0315
727.0,-0.0318
726.0,-0.0322
725.0,-0.0325
724.0,-0.0327
723.0,-0.0331
722.0,-0.0337
721.0,-0.0343
720.0,-0.0347
719.0,-0.0346
718.0,-0.0342
717.0,-0.034
716.0,-0.034
715.0,-0.0341
714.0,-0.0342
713.0,-0.0342
712.0,-0.0342
711.0,-0.0344
710.0,-0.0346
709.0,-0.0348
708.0,-0.0351
707.0,-0.0354
706.0,-0.0356
705.0,-0.0356
704.0,-0.0357
703.0,-0.0358
702.0,-0.0359
701.0,-0.036
700.0,-0.0359
699.0,-0.0358
698.0,-0.0357
697.0,-0.0357
696.0,-0.0361
695.0,-0.0367
694.0,-0.0374
693.0,-0.0379
692.0,-0.0381
691.0,-0.038
690.0,-0.0375
689.0,-0.0365
688.0,-0.0355
687.0,-0.0348
686.0,-0.0347
685.0,-0.0349
684.0,-0.0352
683.0,-0.0355
682.0,-0.0359
681.0,-0.0363
680.0,-0.0369
679.0,-0.0374
678.0,-0.0377
677.0,-0.0377
676.0,-0.0372
675.0,-0.0366
674.0,-0.0365
673.0,-0.037
672.0,-0.0373
671.0,-0.0359
670.0,-0.0324
669.0,-0.028
668.0,-0.0243
667.0,-0.0249
666.0,-0.0298
665.0,-0.0346
664.0,-0.0374
663.0,-0.0388
662.0,-0.0393
661.0,-0.0394
660.0,-0.039
659.0,-0.0385
658.0,-0.0384
657.0,-0.0385
656.0,-0.0384
655.0,-0.038
654.0,-0.0378
653.0,-0.0381
652.0,-0.0388
651.0,-0.0393
650.0,-0.0395
649.0,-0.0396
648.0,-0.0397
647.0,-0.0393
646.0,-0.0385
645.0,-0.0374
644.0,-0.0366
643.0,-0.0364
642.0,-0.0366
641.0,-0.0367
640.0,-0.0367
639.0,-0.0366
638.0,-0.0367
637.0,-0.0371
636.0,-0.038
635.0,-0.0391
634.0,-0.0397
633.0,-0.0395
632.0,-0.0389
631.0,-0.0384
630.0,-0.0383
629.0,-0.0383
628.0,-0.038
627.0,-0.0374
626.0,-0.0368
625.0,-0.0363
624.0,-0.0361
623.0,-0.0361
622.0,-0.0363
621.0,-0.0367
620.0,-0.0369
619.0,-0.0368
618.0,-0.0365
617.0,-0.0362
616.0,-0.0359
615.0,-0.0353
614.0,-0.0344
613.0,-0.0338
612.0,-0.0338
611.0,-0.0344
610.0,-0.0351
609.0,-0.0353
608.0,-0.035
607.0,-0.0347
606.0,-0.0346
605.0,-0.0349
604.0,-0.0353
603.0,-0.0354
602.0,-0.035
601.0,-0.0343
600.0,-0.0338
