nm,Intensity
528.626,1862.4
528.711,1863.0
528.795,1861.9
528.879,1863.9
528.963,1865.5
529.048,1863.6
529.132,1864.2
529.216,1863.8
529.3,1862.8
529.385,1862.6
529.469,1861.7
529.553,1863.3
529.637,1863.8
529.721,1863.5
529.806,1864.3
529.89,1864.5
529.974,1864.1
530.058,1864.3
530.143,1864.4
530.227,1865.0
530.311,1865.5
530.395,1863.3
530.48,1866.0
530.564,1863.6
530.648,1865.9
530.732,1865.0
530.816,1863.6
530.901,1867.3
530.985,1864.1
531.069,1866.5
531.153,1868.4
531.237,1868.6
531.322,1869.9
531.406,1872.8
531.49,1877.0
531.574,1881.2
531.658,1909.9
531.743,2009.4
531.827,2418.6
531.911,3593.4
531.995,5084.7
532.079,5216.1
532.164,4639.2
532.248,3346.8
532.332,2258.0
532.416,1918.3
532.5,1872.5
532.585,1870.4
532.669,1867.5
532.753,1866.0
532.837,1864.5
532.921,1869.6
533.006,1868.4
533.09,1867.6
533.174,1866.5
533.258,1867.7
533.342,1871.2
533.426,1879.8
533.511,1905.3
533.595,1985.2
533.679,2156.8
533.763,2390.5
533.847,2620.5
533.931,2822.1
534.016,2977.6
534.1,2992.3
534.184,2986.8
534.268,2986.7
534.352,2982.5
534.436,3018.3
534.521,3010.4
534.605,3018.4
534.689,3065.2
534.773,3075.3
534.857,3096.2
534.941,3105.8
535.025,3111.0
535.11,3117.3
535.194,3112.8
535.278,3133.4
535.362,3123.7
535.446,3177.4
535.53,3215.6
535.614,3193.9
535.699,3159.9
535.783,3128.5
535.867,3109.2
535.951,3137.9
536.035,3156.9
536.119,3144.8
536.203,3144.3
536.287,3219.0
536.372,3199.5
536.456,3215.8
536.54,3194.5
536.624,3236.0
536.708,3218.8
536.792,3231.3
536.876,3187.0
536.96,3207.4
537.044,3242.5
537.129,3256.5
537.213,3287.8
537.297,3281.0
537.381,3284.4
537.465,3326.6
537.549,3346.7
537.633,3384.8
537.717,3374.8
537.801,3333.2
537.885,3360.8
537.97,3360.4
538.054,3317.9
538.138,3273.7
538.222,3309.2
538.306,3312.3
538.39,3279.6
538.474,3307.1
538.558,3300.8
538.642,3339.0
538.726,3350.2
538.81,3344.3
538.894,3337.0
538.979,3349.5
539.063,3363.7
539.147,3380.7
539.231,3377.3
539.315,3438.2
539.399,3416.5
539.483,3374.1
539.567,3374.2
539.651,3383.1
539.735,3412.8
539.819,3431.6
539.903,3403.2
539.987,3415.9
540.071,3424.0
540.155,3421.4
540.239,3435.2
540.324,3456.3
540.408,3440.9
540.492,3451.1
540.576,3449.4
540.66,3464.2
540.744,3456.2
540.828,3423.8
540.912,3433.7
540.996,3474.3
541.08,3478.4
541.164,3480.3
541.248,3517.4
541.332,3537.2
541.416,3512.7
541.5,3481.6
541.584,3539.3
541.668,3555.1
541.752,3577.1
541.836,3542.7
541.92,3507.2
542.004,3516.7
542.088,3531.7
542.172,3534.2
542.256,3605.8
542.34,3626.3
542.424,3638.2
542.508,3630.3
542.592,3628.7
542.676,3569.3
542.76,3570.8
542.844,3565.6
542.928,3611.1
543.012,3616.8
543.096,3623.2
543.18,3683.9
543.264,3632.4
543.348,3638.2
543.432,3669.0
543.516,3705.5
543.6,3651.5
543.684,3606.5
543.768,3650.8
543.852,3719.2
543.936,3728.5
544.02,3713.0
544.104,3696.9
544.188,3725.7
544.272,3716.0
544.356,3708.2
544.44,3682.1
544.524,3663.2
544.608,3709.5
544.692,3834.9
544.776,3785.7
544.86,3708.0
544.944,3742.5
545.028,3783.9
545.112,3788.8
545.196,3830.6
545.28,3784.9
545.364,3774.6
545.448,3776.7
545.532,3770.1
545.616,3807.9
545.7,3809.5
545.784,3816.3
545.867,3823.1
545.951,3830.4
546.035,3859.2
546.119,3837.4
546.203,3835.4
546.287,3809.0
546.371,3870.8
546.455,3890.9
546.539,3867.6
546.623,3903.7
546.707,3935.8
546.791,3884.2
546.875,3891.2
546.959,3888.9
547.043,3914.6
547.127,3914.1
547.21,3915.2
547.294,3940.6
547.378,3931.4
547.462,3903.6
547.546,3904.0
547.63,3907.0
547.714,3940.0
547.798,3949.6
547.882,4024.5
547.966,4010.6
548.05,3988.6
548.134,3971.0
548.217,3975.1
548.301,3990.6
548.385,4021.5
548.469,4005.2
548.553,4020.4
548.637,4095.4
548.721,4141.7
548.805,4109.2
548.889,4100.4
548.972,4072.2
549.056,4096.4
549.14,4055.9
549.224,4091.8
549.308,4078.1
549.392,4164.4
549.476,4214.9
549.56,4163.6
549.644,4078.0
549.727,4013.9
549.811,4044.0
549.895,4049.1
549.979,4145.2
550.063,4158.7
550.147,4084.5
550.231,4141.7
550.315,4250.9
550.398,4185.5
550.482,4124.0
550.566,4159.0
550.65,4159.8
550.734,4177.3
550.818,4215.3
550.902,4247.2
550.985,4172.2
551.069,4187.8
551.153,4242.3
551.237,4254.9
551.321,4234.6
551.405,4274.3
551.488,4293.2
551.572,4271.0
551.656,4301.0
551.74,4360.0
551.824,4303.6
551.908,4320.5
551.991,4321.7
552.075,4279.8
552.159,4286.4
552.243,4299.6
552.327,4302.7
552.411,4293.3
552.494,4301.5
552.578,4289.0
552.662,4303.3
552.746,4301.0
552.83,4294.9
552.914,4285.0
552.997,4320.6
553.081,4324.8
553.165,4337.5
553.249,4366.8
553.333,4296.3
553.416,4317.6
553.5,4341.1
553.584,4341.1
553.668,4327.1
553.752,4433.5
553.835,4441.6
553.919,4422.9
554.003,4355.9
554.087,4370.3
554.171,4449.5
554.254,4485.4
554.338,4456.1
554.422,4420.3
554.506,4403.3
554.589,4480.8
554.673,4453.8
554.757,4536.8
554.841,4502.5
554.925,4428.9
555.008,4443.8
555.092,4458.8
555.176,4500.9
555.26,4476.7
555.343,4508.2
555.427,4476.4
555.511,4494.8
555.595,4444.7
555.679,4503.3
555.762,4496.4
555.846,4509.6
555.93,4454.3
556.014,4495.7
556.097,4530.0
556.181,4524.3
556.265,4516.8
556.349,4528.4
556.432,4602.6
556.516,4625.2
556.6,4502.3
556.684,4507.0
556.767,4553.5
556.851,4526.7
556.935,4505.4
557.018,4472.7
557.102,4476.4
557.186,4493.9
557.27,4566.1
557.353,4577.9
557.437,4517.1
557.521,4586.0
557.605,4574.4
557.688,4622.6
557.772,4567.8
557.856,4637.6
557.939,4625.6
558.023,4672.3
558.107,4644.4
558.191,4612.8
558.274,4552.5
558.358,4575.9
558.442,4668.0
558.525,4616.8
558.609,4634.2
558.693,4584.2
558.776,4631.4
558.86,4594.0
558.944,4665.8
559.028,4656.4
559.111,4675.9
559.195,4641.1
559.279,4726.9
559.362,4664.2
559.446,4612.3
559.53,4654.9
559.613,4693.0
559.697,4608.4
559.781,4604.3
559.864,4669.5
559.948,4634.8
560.032,4659.9
560.115,4691.2
560.199,4677.4
560.283,4699.6
560.366,4752.8
560.45,4722.0
560.534,4682.8
560.617,4694.7
560.701,4740.9
560.785,4777.7
560.868,4796.0
560.952,4840.8
561.036,4817.4
561.119,4813.1
561.203,4805.4
561.287,4813.1
561.37,4841.4
561.454,4934.1
561.538,5008.3
561.621,4940.4
561.705,4856.1
561.789,4847.2
561.872,4830.8
561.956,4841.7
562.039,4879.9
562.123,4854.8
562.207,4814.7
562.29,4842.2
562.374,4854.3
562.458,4827.4
562.541,4870.2
562.625,4897.6
562.708,4773.7
562.792,4776.6
562.876,4852.2
562.959,4894.1
563.043,4887.0
563.127,4891.4
563.21,4934.8
563.294,4870.4
563.377,4896.0
563.461,4891.4
563.545,4918.9
563.628,4947.7
563.712,4865.8
563.795,4891.1
563.879,4864.2
563.963,4973.1
564.046,4952.7
564.13,4917.0
564.213,4891.5
564.297,4943.0
564.38,4901.1
564.464,4969.5
564.548,5009.4
564.631,5043.0
564.715,5042.9
564.798,5010.6
564.882,4985.9
564.966,5029.5
565.049,5009.9
565.133,5016.0
565.216,5009.8
565.3,5029.9
565.383,4976.8
565.467,4930.5
565.551,4935.5
565.634,5014.0
565.718,5000.5
565.801,5113.4
565.885,5049.4
565.968,5047.1
566.052,5012.1
566.135,5014.1
566.219,5005.0
566.302,5133.9
566.386,5118.2
566.47,5137.0
566.553,5057.9
566.637,5050.6
566.72,4966.0
566.804,5066.1
566.887,5095.8
566.971,5057.7
567.054,5099.2
567.138,5171.7
567.221,5100.2
567.305,5122.2
567.388,5138.3
567.472,5008.5
567.555,4989.7
567.639,5105.3
567.722,5112.5
567.806,5112.3
567.889,5095.2
567.973,5139.3
568.057,5150.7
568.14,5170.2
568.224,5221.0
568.307,5237.6
568.391,5250.2
568.474,5170.7
568.558,5159.6
568.641,5197.5
568.725,5169.1
568.808,5174.8
568.892,5166.0
568.975,5229.7
569.058,5282.7
569.142,5282.8
569.225,5237.4
569.309,5155.2
569.392,5203.4
569.476,5304.2
569.559,5349.9
569.643,5334.7
569.726,5218.2
569.81,5142.5
569.893,5213.7
569.977,5318.9
570.06,5260.2
570.144,5292.4
570.227,5323.7
570.311,5276.1
570.394,5243.8
570.477,5222.0
570.561,5225.2
570.644,5236.8
570.728,5231.1
570.811,5355.7
570.895,5325.5
570.978,5243.6
571.062,5296.2
571.145,5353.4
571.229,5357.5
571.312,5373.8
571.395,5387.7
571.479,5339.9
571.562,5292.9
571.646,5302.5
571.729,5368.3
571.813,5440.7
571.896,5445.6
571.979,5425.6
572.063,5323.5
572.146,5418.0
572.23,5446.3
572.313,5392.6
572.397,5416.8
572.48,5417.8
572.563,5489.4
572.647,5606.2
572.73,5476.1
572.814,5390.3
572.897,5417.7
572.98,5537.8
573.064,5529.5
573.147,5509.5
573.231,5403.5
573.314,5268.7
573.397,5381.2
573.481,5474.0
573.564,5577.0
573.648,5558.0
573.731,5471.2
573.814,5449.8
573.898,5432.4
573.981,5430.0
574.064,5450.6
574.148,5502.8
574.231,5620.9
574.315,5569.8
574.398,5458.9
574.481,5379.1
574.565,5388.5
574.648,5516.5
574.731,5534.3
574.815,5519.1
574.898,5544.1
574.982,5513.0
575.065,5443.1
575.148,5443.3
575.232,5466.2
575.315,5590.1
575.398,5548.0
575.482,5473.9
575.565,5474.5
575.648,5584.6
575.732,5597.8
575.815,5537.1
575.898,5633.6
575.982,5683.3
576.065,5583.1
576.148,5529.9
576.232,5534.8
576.315,5614.2
576.398,5617.5
576.482,5600.0
576.565,5571.1
576.648,5652.8
576.732,5623.4
576.815,5616.3
576.898,5661.6
576.982,5688.6
577.065,5539.5
577.148,5596.5
577.232,5590.1
577.315,5590.0
577.398,5505.8
577.481,5505.0
577.565,5568.4
577.648,5624.4
577.731,5574.0
577.815,5587.1
577.898,5693.6
577.981,5646.4
578.065,5556.9
578.148,5521.5
578.231,5435.3
578.314,5472.2
578.398,5602.9
578.481,5543.7
578.564,5555.4
578.648,5580.4
578.731,5626.3
578.814,5656.0
578.897,5667.3
578.981,5668.1
579.064,5585.6
579.147,5635.5
579.23,5638.3
579.314,5799.7
579.397,5710.7
579.48,5556.8
579.563,5574.2
579.647,5616.9
579.73,5750.6
579.813,5830.9
579.896,5748.1
579.98,5770.8
580.063,5717.4
580.146,5720.6
580.229,5637.9
580.313,5664.6
580.396,5627.2
580.479,5686.9
580.562,5671.3
580.646,5763.7
580.729,5826.9
580.812,5745.7
580.895,5688.6
580.979,5713.0
581.062,5707.2
581.145,5660.7
581.228,5620.9
581.311,5693.9
581.395,5696.4
581.478,5701.5
581.561,5675.9
581.644,5623.9
581.728,5613.4
581.811,5655.2
581.894,5799.6
581.977,5781.6
582.06,5660.2
582.144,5668.8
582.227,5688.7
582.31,5670.7
582.393,5605.7
582.476,5637.0
582.56,5646.4
582.643,5661.5
582.726,5693.4
582.809,5624.9
582.892,5541.2
582.975,5552.6
583.059,5557.2
583.142,5590.5
583.225,5623.0
583.308,5636.3
583.391,5684.5
583.475,5663.1
583.558,5600.9
583.641,5622.8
583.724,5588.7
583.807,5612.7
583.89,5618.4
583.973,5630.7
584.057,5652.8
584.14,5570.2
584.223,5564.1
584.306,5609.7
584.389,5694.3
584.472,5601.3
584.556,5505.7
584.639,5605.7
584.722,5636.4
584.805,5520.1
584.888,5498.2
584.971,5552.7
585.054,5584.4
585.138,5571.5
585.221,5597.3
585.304,5529.9
585.387,5525.8
585.47,5509.9
585.553,5500.0
585.636,5448.9
585.719,5483.0
585.802,5517.8
585.886,5466.4
585.969,5527.7
586.052,5593.7
586.135,5553.1
586.218,5632.5
586.301,5604.2
586.384,5548.0
586.467,5489.3
586.55,5502.4
586.634,5558.8
586.717,5579.3
586.8,5562.6
586.883,5592.4
586.966,5629.5
587.049,5617.7
587.132,5541.1
587.215,5542.6
587.298,5548.6
587.381,5561.8
587.464,5645.4
587.548,5628.5
587.631,5556.2
587.714,5615.1
587.797,5633.7
587.88,5631.0
587.963,5600.8
588.046,5565.0
588.129,5511.9
588.212,5476.4
588.295,5620.6
588.378,5601.2
588.461,5557.4
588.544,5558.8
588.627,5649.5
588.71,5567.6
588.793,5633.5
588.876,5561.0
588.96,5533.2
589.043,5501.4
589.126,5512.3
589.209,5535.9
589.292,5475.7
589.375,5422.0
589.458,5487.3
589.541,5559.9
589.624,5502.1
589.707,5612.6
589.79,5569.5
589.873,5520.5
589.956,5500.2
590.039,5561.8
590.122,5556.7
590.205,5557.0
590.288,5491.4
590.371,5451.8
590.454,5525.4
590.537,5634.8
590.62,5586.2
590.703,5490.2
590.786,5452.7
590.869,5559.2
590.952,5606.1
591.035,5546.2
591.118,5521.6
591.201,5591.3
591.284,5480.0
591.367,5479.1
591.45,5491.7
591.533,5622.6
591.616,5629.1
591.699,5553.5
591.782,5480.6
591.865,5569.2
591.948,5620.1
592.031,5637.9
592.114,5650.0
592.197,5677.6
592.28,5628.7
592.363,5567.4
592.446,5436.8
592.529,5483.6
592.611,5508.7
592.694,5485.3
592.777,5535.5
592.86,5559.1
592.943,5517.1
593.026,5517.8
593.109,5489.2
593.192,5483.0
593.275,5511.4
593.358,5475.0
593.441,5535.7
593.524,5621.6
593.607,5569.7
593.69,5543.5
593.773,5610.9
593.856,5509.9
593.939,5484.9
594.021,5509.6
594.104,5558.6
594.187,5517.2
594.27,5569.1
594.353,5575.0
594.436,5444.4
594.519,5383.4
594.602,5485.2
594.685,5576.2
594.768,5559.7
594.851,5470.9
594.933,5522.3
595.016,5498.5
595.099,5478.8
595.182,5539.7
595.265,5589.9
595.348,5520.2
595.431,5388.9
595.514,5487.6
595.597,5505.9
595.68,5564.8
595.762,5592.4
595.845,5561.6
595.928,5565.3
596.011,5617.1
596.094,5584.2
596.177,5568.7
596.26,5636.5
596.342,5549.3
596.425,5509.0
596.508,5613.1
596.591,5590.2
596.674,5591.1
596.757,5508.1
596.84,5595.3
596.923,5562.2
597.005,5595.9
597.088,5604.5
597.171,5607.9
597.254,5579.0
597.337,5555.1
597.42,5572.3
597.502,5604.0
597.585,5503.8
597.668,5475.2
597.751,5481.8
597.834,5563.7
597.917,5665.9
597.999,5695.7
598.082,5503.4
598.165,5358.4
598.248,5482.5
598.331,5547.7
598.414,5657.0
598.496,5586.2
598.579,5564.2
598.662,5502.9
598.745,5528.8
598.828,5498.5
598.91,5536.3
598.993,5543.0
599.076,5594.4
599.159,5611.0
599.242,5577.9
599.324,5594.0
599.407,5526.5
599.49,5537.4
599.573,5462.0
599.656,5517.0
599.738,5538.1
599.821,5532.4
599.904,5555.4
599.987,5697.1
600.069,5699.8
600.152,5652.7
600.235,5598.6
600.318,5586.3
600.401,5470.6
600.483,5433.8
600.566,5555.5
600.649,5607.1
600.732,5600.4
600.814,5576.4
600.897,5610.7
600.98,5577.0
601.063,5570.5
601.145,5561.6
601.228,5558.9
601.311,5538.9
601.394,5480.8
601.476,5585.6
601.559,5593.6
601.642,5583.6
601.725,5598.7
601.807,5564.8
601.89,5593.4
601.973,5525.2
602.055,5540.3
602.138,5615.9
602.221,5600.5
602.304,5513.0
602.386,5482.5
602.469,5584.9
602.552,5542.0
602.635,5559.0
602.717,5630.9
602.8,5656.1
602.883,5580.5
602.965,5558.9
603.048,5620.3
603.131,5580.5
603.213,5487.1
603.296,5567.5
603.379,5623.5
603.462,5599.2
603.544,5613.9
603.627,5538.1
603.71,5513.4
603.792,5532.2
603.875,5587.9
603.958,5578.1
604.04,5515.5
604.123,5567.6
604.206,5642.7
604.288,5659.3
604.371,5561.3
604.454,5499.5
604.536,5526.9
604.619,5672.0
604.702,5610.3
604.784,5459.9
604.867,5513.8
604.95,5627.5
605.032,5604.0
605.115,5567.0
605.198,5590.0
605.28,5509.9
605.363,5453.9
605.446,5510.5
605.528,5575.5
605.611,5576.6
605.693,5587.8
605.776,5560.1
605.859,5548.4
605.941,5567.2
606.024,5547.7
606.107,5499.9
606.189,5515.2
606.272,5565.4
606.354,5542.9
606.437,5608.9
606.52,5615.7
606.602,5510.9
606.685,5524.1
606.767,5536.8
606.85,5518.8
606.933,5628.9
607.015,5667.8
607.098,5568.2
607.181,5475.6
607.263,5535.1
607.346,5614.0
607.428,5698.4
607.511,5622.3
607.593,5539.1
607.676,5556.3
607.759,5535.9
607.841,5530.4
607.924,5518.0
608.006,5448.2
608.089,5514.4
608.172,5475.1
608.254,5521.3
608.337,5472.0
608.419,5546.5
608.502,5560.3
608.584,5505.6
608.667,5515.5
608.749,5611.5
608.832,5621.9
608.915,5634.7
608.997,5567.3
609.08,5552.0
609.162,5561.7
609.245,5598.9
609.327,5533.3
609.41,5413.8
609.492,5446.6
609.575,5532.9
609.657,5556.5
609.74,5511.2
609.823,5570.4
609.905,5609.4
609.988,5565.5
610.07,5575.8
610.153,5531.4
610.235,5471.0
610.318,5501.3
610.4,5585.5
610.483,5539.2
610.565,5578.2
610.648,5543.1
610.73,5475.9
610.813,5459.4
610.895,5481.5
610.978,5484.5
611.06,5561.3
611.143,5627.4
611.225,5550.7
611.308,5469.6
611.39,5645.0
611.473,5629.9
611.555,5530.6
611.638,5462.4
611.72,5450.8
611.803,5568.3
611.885,5642.8
611.968,5532.5
612.05,5484.3
612.133,5434.0
612.215,5406.4
612.297,5441.2
612.38,5510.8
612.462,5512.1
612.545,5540.1
612.627,5533.3
612.71,5488.9
612.792,5515.2
612.875,5506.5
612.957,5490.9
613.04,5545.3
613.122,5549.9
613.204,5520.1
613.287,5463.2
613.369,5357.1
613.452,5384.7
613.534,5397.6
613.617,5437.8
613.699,5517.4
613.781,5475.9
613.864,5396.1
613.946,5425.7
614.029,5566.4
614.111,5632.8
614.194,5524.9
614.276,5500.4
614.358,5468.0
614.441,5534.2
614.523,5540.4
614.606,5494.3
614.688,5513.9
614.77,5441.0
614.853,5409.9
614.935,5411.8
615.018,5359.8
615.1,5463.0
615.182,5509.2
615.265,5540.5
615.347,5499.1
615.43,5517.1
615.512,5444.5
615.594,5407.4
615.677,5378.7
615.759,5488.2
615.841,5544.4
615.924,5432.6
616.006,5426.5
616.089,5505.0
616.171,5606.8
616.253,5552.6
616.336,5388.4
616.418,5340.3
616.5,5488.7
616.583,5516.2
616.665,5533.5
616.747,5460.4
616.83,5320.2
616.912,5289.3
616.994,5487.5
617.077,5479.1
617.159,5404.9
617.242,5464.8
617.324,5422.7
617.406,5391.3
617.489,5460.9
617.571,5403.5
617.653,5309.8
617.735,5385.3
617.818,5480.8
617.9,5421.2
617.982,5317.1
618.065,5454.4
618.147,5555.7
618.229,5455.8
618.312,5419.2
618.394,5351.7
618.476,5414.2
618.559,5512.3
618.641,5411.8
618.723,5387.7
618.805,5411.9
618.888,5346.5
618.97,5362.4
619.052,5476.1
619.135,5519.2
619.217,5455.9
619.299,5387.5
619.381,5287.3
619.464,5334.2
619.546,5374.9
619.628,5504.7
619.711,5578.3
619.793,5491.1
619.875,5317.7
619.957,5346.4
620.04,5414.3
620.122,5420.7
620.204,5417.2
620.286,5410.2
620.369,5375.3
620.451,5350.8
620.533,5366.2
620.615,5448.3
620.698,5510.2
620.78,5395.5
620.862,5352.7
620.944,5361.8
621.027,5402.2
621.109,5443.7
621.191,5322.4
621.273,5387.9
621.356,5361.3
621.438,5272.3
621.52,5338.8
621.602,5382.0
621.684,5334.7
621.767,5237.5
621.849,5394.4
621.931,5427.7
622.013,5417.1
622.095,5345.5
622.178,5291.2
622.26,5214.9
622.342,5250.1
622.424,5312.6
622.506,5357.4
622.589,5374.8
622.671,5392.5
622.753,5398.5
622.835,5464.6
622.917,5388.5
623.0,5255.0
623.082,5248.4
623.164,5341.4
623.246,5451.0
623.328,5523.4
623.41,5426.3
623.493,5263.7
623.575,5228.0
623.657,5265.5
623.739,5244.7
623.821,5309.2
623.903,5294.1
623.986,5379.7
624.068,5259.1
624.15,5238.3
624.232,5270.1
624.314,5301.1
624.396,5282.5
624.478,5223.4
624.561,5280.5
624.643,5305.0
624.725,5274.4
624.807,5313.9
624.889,5290.4
624.971,5211.3
625.053,5104.6
625.136,5129.0
625.218,5168.4
625.3,5315.7
625.382,5267.6
625.464,5274.2
625.546,5304.0
625.628,5226.5
625.71,5207.1
625.792,5232.8
625.875,5265.1
625.957,5246.5
626.039,5164.4
626.121,5173.6
626.203,5216.3
626.285,5242.8
626.367,5184.1
626.449,5108.3
626.531,5082.1
626.613,5117.1
626.695,5151.4
626.778,5308.1
626.86,5215.1
626.942,5139.3
627.024,5130.3
627.106,5177.1
627.188,5128.3
627.27,5200.5
627.352,5213.6
627.434,5278.4
627.516,5186.2
627.598,5107.8
627.68,5080.8
627.762,5036.0
627.844,5143.4
627.926,5097.1
628.008,5191.1
628.09,5179.7
628.172,5162.9
628.255,5294.0
628.337,5314.0
628.419,5185.0
628.501,5126.8
628.583,5102.7
628.665,5102.4
628.747,5131.2
628.829,5112.8
628.911,5170.0
628.993,5146.5
629.075,5123.3
629.157,5094.0
629.239,5172.9
629.321,5165.6
629.403,5139.4
629.485,5111.0
629.567,5084.2
629.649,5042.7
629.731,5135.6
629.813,5112.3
629.895,5099.1
629.977,5131.6
630.059,5083.0
630.141,5023.3
630.223,5090.1
630.305,5142.8
630.387,5171.9
630.469,5118.3
630.551,5085.2
630.633,5110.5
630.715,5087.1
630.797,5210.3
630.878,5194.8
630.96,5143.1
631.042,5181.1
631.124,5119.1
631.206,5124.7
631.288,5160.4
631.37,5165.6
631.452,5153.5
631.534,5106.4
631.616,5171.3
631.698,5096.2
631.78,5047.8
631.862,5043.3
631.944,5043.7
632.026,4925.9
632.108,4957.0
632.19,5021.4
632.272,5021.3
632.353,5013.1
632.435,5064.8
632.517,5033.8
632.599,5076.3
632.681,5087.1
632.763,5031.4
632.845,4924.2
632.927,4978.8
633.009,5100.3
633.091,5059.5
633.173,5018.2
633.254,5032.2
633.336,4941.5
633.418,4952.7
633.5,4987.1
633.582,4998.9
633.664,5011.5
633.746,4958.5
633.828,4931.4
633.91,4963.0
633.991,4987.2
634.073,5037.9
634.155,4949.6
634.237,4821.7
634.319,4888.7
634.401,4968.8
634.483,4879.7
634.564,4948.1
634.646,4907.8
634.728,4831.4
634.81,4883.1
634.892,4918.4
634.974,4943.0
635.056,4936.7
635.137,4859.8
635.219,4751.5
635.301,4683.6
635.383,4745.2
635.465,4772.8
635.547,4795.7
635.628,4808.0
635.71,4850.5
635.792,4796.5
635.874,4717.2
635.956,4754.8
636.038,4891.1
636.119,4842.4
636.201,4815.8
636.283,4809.6
636.365,4738.5
636.447,4732.7
636.528,4782.2
636.61,4715.0
636.692,4641.5
636.774,4748.0
636.856,4771.6
636.937,4794.6
637.019,4753.2
637.101,4781.1
637.183,4698.1
637.265,4668.4
637.346,4694.2
637.428,4794.4
637.51,4809.6
637.592,4774.7
637.673,4724.2
637.755,4746.4
637.837,4649.5
637.919,4671.0
638.0,4714.8
638.082,4663.5
638.164,4767.7
638.246,4726.2
638.327,4662.0
638.409,4658.5
638.491,4714.8
638.573,4676.1
638.654,4644.3
638.736,4631.1
638.818,4679.3
638.9,4666.1
638.981,4694.4
639.063,4701.3
639.145,4589.4
639.227,4641.2
639.308,4661.5
639.39,4626.4
639.472,4622.8
639.553,4666.1
639.635,4695.1
639.717,4642.9
639.799,4558.0
639.88,4559.9
639.962,4499.8
640.044,4478.9
640.125,4588.3
640.207,4632.7
640.289,4532.4
640.37,4556.2
640.452,4564.6
640.534,4631.3
640.616,4636.7
640.697,4564.2
640.779,4565.0
640.861,4503.9
640.942,4530.0
641.024,4611.2
641.106,4560.8
641.187,4541.0
641.269,4538.6
641.351,4527.7
641.432,4452.2
641.514,4430.3
641.596,4446.9
641.677,4524.7
641.759,4501.3
641.84,4460.9
641.922,4401.6
642.004,4402.6
642.085,4471.3
642.167,4526.2
642.249,4491.3
642.33,4515.1
642.412,4486.4
642.494,4585.0
642.575,4545.0
642.657,4551.3
642.738,4412.0
642.82,4382.2
642.902,4452.9
642.983,4505.4
643.065,4498.2
643.147,4435.2
643.228,4434.0
643.31,4324.8
643.391,4303.7
643.473,4346.9
643.555,4423.3
643.636,4503.0
643.718,4456.2
643.799,4383.7
643.881,4343.3
643.963,4366.1
644.044,4413.1
644.126,4379.0
644.207,4397.6
644.289,4394.3
644.37,4411.2
644.452,4445.2
644.534,4466.5
644.615,4398.0
644.697,4301.0
644.778,4322.4
644.86,4302.6
644.941,4379.9
645.023,4435.3
645.104,4370.7
645.186,4360.9
645.268,4337.1
645.349,4314.9
645.431,4321.5
645.512,4327.8
645.594,4399.8
645.675,4410.0
645.757,4412.1
645.838,4415.1
645.92,4295.7
646.001,4265.9
646.083,4254.9
646.164,4328.8
646.246,4360.8
646.327,4330.7
646.409,4338.1
646.49,4297.3
646.572,4365.5
646.653,4376.0
646.735,4350.1
646.816,4339.2
646.898,4284.0
646.979,4300.2
647.061,4218.8
647.142,4191.4
647.224,4343.3
647.305,4366.1
647.387,4358.1
647.468,4255.5
647.55,4234.5
647.631,4220.5
647.713,4216.0
647.794,4307.3
647.876,4343.4
647.957,4325.9
648.039,4287.6
648.12,4304.6
648.202,4193.1
648.283,4216.4
648.365,4189.6
648.446,4271.9
648.527,4341.7
648.609,4221.7
648.69,4137.0
648.772,4155.9
648.853,4172.1
648.935,4283.2
649.016,4329.3
649.098,4223.6
649.179,4183.2
649.26,4216.5
649.342,4187.2
649.423,4090.3
649.505,4124.8
649.586,4200.0
649.667,4220.5
649.749,4169.3
649.83,4141.5
649.912,4079.3
649.993,4089.5
650.075,4132.3
650.156,4218.2
650.237,4174.4
650.319,4122.6
650.4,4076.5
650.482,4177.7
650.563,4156.9
650.644,4131.8
650.726,4081.3
650.807,4061.6
650.888,4127.7
650.97,4105.6
651.051,4075.8
651.133,4004.4
651.214,4033.7
651.295,3986.6
651.377,3940.2
651.458,3978.4
651.539,3992.9
651.621,4037.4
651.702,4030.2
651.783,4062.2
651.865,4094.9
651.946,4038.4
652.027,3916.9
652.109,3868.0
652.19,3905.6
652.271,3944.3
652.353,4037.6
652.434,3958.3
652.515,3915.0
652.597,3867.1
652.678,3867.7
652.759,3841.9
652.841,3855.7
652.922,3880.8
653.003,3925.3
653.085,3935.4
653.166,3913.3
653.247,3884.3
653.329,3879.2
653.41,3911.3
653.491,3875.8
653.573,3871.2
653.654,3814.3
653.735,3842.7
653.816,3880.4
653.898,3883.7
653.979,3896.0
654.06,3833.2
654.142,3788.4
654.223,3708.6
654.304,3719.6
654.385,3846.3
654.467,3822.7
654.548,3856.9
654.629,3764.1
654.71,3776.7
654.792,3768.9
654.873,3774.7
654.954,3727.9
655.035,3784.6
655.117,3802.7
655.198,3823.7
655.279,3877.4
655.36,3831.0
655.442,3752.5
655.523,3682.5
655.604,3635.8
655.685,3737.6
655.767,3798.9
655.848,3834.7
655.929,3743.5
656.01,3737.1
656.091,3694.4
656.173,3631.5
656.254,3659.1
656.335,3643.8
656.416,3630.1
656.498,3641.8
656.579,3648.9
656.66,3738.0
656.741,3699.2
656.822,3600.6
656.904,3626.2
656.985,3698.5
657.066,3620.1
657.147,3586.4
657.228,3593.4
657.309,3638.9
657.391,3651.8
657.472,3580.0
657.553,3599.0
657.634,3620.3
657.715,3575.1
657.796,3602.3
657.878,3526.2
657.959,3549.1
658.04,3474.8
658.121,3494.7
658.202,3578.5
658.283,3632.0
658.365,3558.9
658.446,3601.5
658.527,3564.1
658.608,3509.4
658.689,3469.5
658.77,3447.7
658.851,3478.3
658.933,3453.7
659.014,3472.9
659.095,3497.5
659.176,3504.9
659.257,3520.8
659.338,3540.3
659.419,3491.6
659.5,3503.9
659.581,3479.1
659.663,3488.9
659.744,3461.7
659.825,3443.8
659.906,3443.6
659.987,3420.4
660.068,3394.9
660.149,3427.7
660.23,3421.5
660.311,3436.6
660.392,3460.0
660.474,3474.5
660.555,3460.5
660.636,3375.7
660.717,3357.4
660.798,3417.1
660.879,3452.2
660.96,3421.2
661.041,3367.5
