nm,Intensity
791.588,4657.8
791.862,4642.7
792.136,4622.7
792.411,4626.8
792.685,4621.0
792.959,4608.0
793.233,4575.6
793.507,4577.7
793.781,4572.9
794.056,4579.4
794.33,4593.2
794.604,4602.7
794.878,4579.1
795.152,4565.4
795.426,4576.4
795.701,4585.6
795.975,4574.2
796.249,4575.5
796.523,4571.8
796.797,4545.5
797.071,4563.4
797.345,4566.2
797.619,4566.8
797.894,4567.9
798.168,4554.3
798.442,4548.3
798.716,4557.7
798.99,4541.4
799.264,4553.5
799.538,4557.7
799.812,4535.7
800.086,4547.8
800.36,4537.9
800.634,4551.9
800.908,4551.5
801.182,4540.2
801.456,4537.0
801.73,4514.5
802.004,4512.4
802.278,4520.5
802.552,4503.6
802.826,4509.5
803.1,4518.1
803.374,4510.1
803.648,4506.9
803.922,4498.8
804.196,4491.2
804.47,4488.1
804.744,4502.1
805.018,4486.4
805.292,4506.2
805.566,4490.4
805.84,4480.1
806.114,4479.1
806.388,4476.8
806.662,4467.6
806.936,4471.3
807.209,4448.8
807.483,4470.6
807.757,4451.5
808.031,4448.3
808.305,4447.0
808.579,4461.7
808.853,4438.2
809.127,4438.0
809.4,4448.7
809.674,4449.2
809.948,4462.3
810.222,4464.8
810.496,4451.3
810.77,4464.0
811.043,4435.7
811.317,4439.9
811.591,4416.4
811.865,4425.6
812.139,4416.3
812.412,4401.6
812.686,4413.8
812.96,4414.9
813.234,4402.7
813.507,4404.6
813.781,4403.6
814.055,4419.3
814.329,4395.3
814.602,4372.8
814.876,4377.7
815.15,4374.3
815.424,4361.4
815.697,4364.8
815.971,4368.9
816.245,4359.3
816.518,4353.4
816.792,4340.3
817.066,4352.0
817.34,4351.6
817.613,4357.8
817.887,4341.7
818.161,4332.4
818.434,4331.2
818.708,4333.8
818.981,4333.2
819.255,4338.8
819.529,4321.1
819.802,4328.7
820.076,4319.8
820.35,4315.8
820.623,4318.9
820.897,4322.4
821.17,4310.0
821.444,4300.8
821.718,4296.5
821.991,4302.5
822.265,4304.2
822.538,4285.2
822.812,4278.0
823.085,4278.3
823.359,4280.1
823.632,4282.5
823.906,4292.2
824.179,4280.6
824.453,4293.2
824.727,4296.3
825.0,4269.2
825.274,4276.9
825.547,4270.3
825.821,4265.9
826.094,4268.3
826.367,4251.9
826.641,4263.5
826.914,4252.8
827.188,4257.3
827.461,4247.2
827.735,4253.3
828.008,4253.8
828.282,4240.1
828.555,4243.4
828.828,4246.4
829.102,4242.9
829.375,4228.7
829.649,4230.5
829.922,4245.2
830.195,4246.9
830.469,4220.2
830.742,4231.1
831.016,4221.8
831.289,4226.7
831.562,4217.2
831.836,4219.8
832.109,4223.8
832.382,4216.9
832.656,4220.1
832.929,4209.8
833.202,4230.6
833.476,4216.7
833.749,4217.7
834.022,4212.7
834.295,4212.5
834.569,4204.1
834.842,4207.0
835.115,4202.6
835.388,4202.3
835.662,4200.5
835.935,4197.1
836.208,4203.7
836.481,4187.2
836.755,4202.6
837.028,4192.5
837.301,4209.6
837.574,4216.5
837.848,4242.5
838.121,4243.3
838.394,4238.1
838.667,4214.5
838.94,4203.1
839.213,4198.9
839.487,4187.6
839.76,4195.4
840.033,4212.8
840.306,4209.3
840.579,4203.0
840.852,4195.2
841.125,4199.2
841.399,4178.2
841.672,4183.8
841.945,4175.2
842.218,4173.2
842.491,4174.4
842.764,4165.0
843.037,4168.8
843.31,4172.4
843.583,4162.0
843.856,4151.3
844.129,4165.2
844.402,4160.0
844.675,4169.9
844.948,4162.1
845.221,4150.2
845.495,4148.5
845.768,4152.8
846.041,4151.5
846.314,4151.2
846.586,4140.5
846.859,4144.1
847.132,4151.1
847.405,4149.0
847.678,4151.3
847.951,4149.2
848.224,4146.6
848.497,4133.9
848.77,4150.5
849.043,4139.3
849.316,4152.8
849.589,4159.8
849.862,4159.3
850.135,4148.1
850.408,4144.4
850.68,4147.3
850.953,4135.7
851.226,4141.1
851.499,4135.9
851.772,4144.9
852.045,4138.6
852.318,4129.7
852.591,4133.8
852.863,4129.5
853.136,4124.3
853.409,4129.3
853.682,4124.7
853.955,4117.8
854.227,4127.1
854.5,4134.1
854.773,4139.7
855.046,4121.3
855.318,4102.3
855.591,4108.4
855.864,4122.9
856.137,4121.8
856.409,4118.0
856.682,4109.2
856.955,4105.4
857.228,4107.0
857.5,4106.4
857.773,4115.3
858.046,4111.3
858.318,4110.1
858.591,4102.4
858.864,4102.0
859.136,4107.4
859.409,4112.3
859.682,4111.0
859.954,4104.1
860.227,4098.6
860.5,4090.3
860.772,4095.3
861.045,4100.1
861.318,4116.2
861.59,4107.9
861.863,4101.6
862.135,4098.1
862.408,4120.1
862.681,4116.7
862.953,4118.3
863.226,4117.6
863.498,4131.3
863.771,4112.6
864.043,4114.1
864.316,4109.3
864.588,4106.2
864.861,4107.9
865.133,4098.3
865.406,4092.1
865.678,4083.3
865.951,4087.4
866.223,4089.5
866.496,4086.6
866.768,4090.8
867.041,4084.8
867.313,4083.5
867.586,4089.4
867.858,4088.3
868.131,4084.5
868.403,4077.9
868.675,4074.3
868.948,4071.5
869.22,4080.2
869.493,4085.9
869.765,4085.6
870.037,4085.3
870.31,4079.2
870.582,4075.5
870.854,4071.2
871.127,4083.0
871.399,4066.0
871.672,4078.4
871.944,4070.5
872.216,4073.9
872.488,4066.9
872.761,4077.3
873.033,4081.9
873.305,4069.0
873.578,4068.1
873.85,4074.7
874.122,4071.4
874.394,4065.8
874.667,4072.1
874.939,4074.5
875.211,4071.8
875.483,4083.3
875.756,4074.9
876.028,4093.6
876.3,4085.3
876.572,4078.3
876.845,4081.7
877.117,4073.0
877.389,4065.9
877.661,4070.4
877.933,4069.6
878.205,4064.9
878.478,4052.4
878.75,4056.5
879.022,4041.6
879.294,4053.9
879.566,4047.3
879.838,4054.9
880.11,4041.6
880.382,4042.0
880.654,4038.6
880.927,4042.2
881.199,4030.9
881.471,4036.9
881.743,4041.9
882.015,4037.1
882.287,4034.8
882.559,4026.0
882.831,4039.4
883.103,4028.5
883.375,4035.6
883.647,4041.3
883.919,4038.2
884.191,4039.3
884.463,4036.6
884.735,4042.8
885.007,4037.3
885.279,4040.4
885.551,4052.2
885.823,4059.9
886.095,4064.3
886.367,4055.5
886.639,4060.5
886.91,4050.7
887.182,4034.9
887.454,4025.3
887.726,4014.9
887.998,4004.5
888.27,4004.7
888.542,4005.8
888.814,4003.6
889.085,4003.0
889.357,4000.4
889.629,4006.5
889.901,4014.6
890.173,4002.0
890.445,3998.6
890.716,4002.6
890.988,3998.4
891.26,3998.1
891.532,3994.7
891.804,4007.4
892.075,3998.1
892.347,4003.5
892.619,3995.9
892.891,4000.6
893.162,3995.0
893.434,3982.2
893.706,3982.2
893.978,3984.7
894.249,3987.8
894.521,3979.4
894.793,3972.7
895.064,3970.8
895.336,3983.2
895.608,3983.4
895.879,3972.2
896.151,3974.3
896.423,3973.1
896.694,3968.5
896.966,3962.1
897.237,3965.3
897.509,3961.3
897.781,3962.4
898.052,3962.6
898.324,3954.9
898.595,3958.5
898.867,3954.9
899.139,3959.0
899.41,3954.5
899.682,3959.0
899.953,3957.1
900.225,3956.3
900.496,3950.9
900.768,3950.3
901.039,3949.6
901.311,3949.7
901.582,3937.7
901.854,3944.9
902.125,3942.8
902.397,3947.4
902.668,3945.4
902.94,3939.5
903.211,3939.2
903.482,3940.7
903.754,3939.4
904.025,3944.8
904.297,3940.7
904.568,3939.9
904.839,3937.3
905.111,3934.8
905.382,3933.6
905.654,3929.0
905.925,3923.3
906.196,3928.4
906.468,3927.5
906.739,3925.3
907.01,3918.0
907.282,3919.4
907.553,3923.9
907.824,3925.6
908.096,3926.3
908.367,3921.7
908.638,3926.4
908.909,3913.8
909.181,3913.4
909.452,3912.6
909.723,3917.0
909.994,3913.1
910.266,3913.4
910.537,3913.8
910.808,3906.6
911.079,3912.8
911.35,3905.8
911.622,3908.6
911.893,3907.4
912.164,3908.7
912.435,3903.0
912.706,3895.7
912.977,3897.7
913.249,3901.3
913.52,3902.1
913.791,3899.7
914.062,3896.5
914.333,3896.5
914.604,3891.9
914.875,3895.4
915.146,3892.5
915.417,3887.7
915.688,3887.4
915.959,3887.5
916.231,3886.9
916.502,3889.7
916.773,3891.1
917.044,3888.8
917.315,3885.5
917.586,3888.1
917.857,3881.9
918.128,3886.0
918.399,3878.9
918.67,3883.6
918.941,3885.2
919.211,3881.2
919.482,3875.7
919.753,3874.8
920.024,3884.0
920.295,3873.2
920.566,3873.6
920.837,3875.5
921.108,3877.9
921.379,3878.0
921.65,3870.6
921.921,3871.1
922.191,3871.0
922.462,3868.7
922.733,3867.2
923.004,3864.7
923.275,3864.0
923.546,3866.8
923.816,3865.7
924.087,3863.5
924.358,3866.0
924.629,3863.4
924.9,3858.3
925.17,3860.9
925.441,3859.0
925.712,3861.2
925.983,3856.7
926.253,3854.4
926.524,3855.8
926.795,3858.4
927.065,3853.5
927.336,3855.1
927.607,3855.8
927.877,3853.1
928.148,3850.9
928.419,3845.2
928.689,3850.8
928.96,3845.8
929.231,3849.8
929.501,3840.1
929.772,3843.6
930.043,3843.5
930.313,3846.3
930.584,3842.9
930.854,3846.6
931.125,3844.1
931.396,3837.3
931.666,3836.5
931.937,3841.8
932.207,3840.0
932.478,3835.7
932.748,3836.7
933.019,3830.2
933.289,3839.6
933.56,3834.2
933.83,3832.4
934.101,3833.7
934.371,3834.5
934.642,3832.3
934.912,3833.1
935.183,3832.1
935.453,3831.7
935.723,3831.2
935.994,3826.4
936.264,3830.0
936.535,3827.3
936.805,3824.1
937.075,3825.0
937.346,3822.6
937.616,3825.4
937.886,3825.9
938.157,3821.9
938.427,3823.3
938.697,3822.0
938.968,3819.6
939.238,3818.9
939.508,3823.0
939.779,3821.0
940.049,3818.8
940.319,3821.8
940.59,3823.0
940.86,3814.5
941.13,3812.9
941.4,3818.6
941.671,3818.3
941.941,3816.6
942.211,3813.7
942.481,3813.7
942.751,3814.3
943.022,3813.6
943.292,3812.8
943.562,3814.8
943.832,3812.8
944.102,3809.3
944.372,3809.2
944.642,3810.4
944.913,3809.7
945.183,3810.7
945.453,3811.8
945.723,3808.9
945.993,3806.2
946.263,3808.6
946.533,3808.3
946.803,3806.2
947.073,3807.4
947.343,3808.8
947.613,3806.0
947.883,3806.1
948.153,3807.9
948.423,3807.1
948.693,3804.4
948.963,3805.5
949.233,3801.4
949.503,3802.5
949.773,3802.9
950.043,3803.0
950.313,3806.2
950.583,3802.5
950.853,3799.9
951.123,3799.1
951.393,3800.4
951.663,3803.0
951.933,3799.7
952.202,3798.5
952.472,3801.5
952.742,3797.9
953.012,3796.6
953.282,3797.9
953.552,3796.6
953.822,3798.4
954.091,3794.9
954.361,3796.7
954.631,3796.9
954.901,3795.5
955.17,3793.4
955.44,3791.1
955.71,3794.2
955.98,3793.3
956.25,3796.9
956.519,3793.6
956.789,3792.0
957.059,3791.6
957.328,3791.1
957.598,3792.2
957.868,3794.0
958.137,3792.9
958.407,3794.9
958.677,3787.3
958.946,3792.1
959.216,3792.8
959.486,3793.3
959.755,3793.7
960.025,3792.6
960.294,3787.8
960.564,3789.9
960.834,3789.0
961.103,3787.7
961.373,3791.3
961.642,3789.2
961.912,3789.5
962.181,3790.2
962.451,3791.5
962.72,3787.7
962.99,3788.7
963.259,3786.3
963.529,3785.4
963.798,3786.1
964.068,3786.9
964.337,3784.4
964.607,3786.6
964.876,3786.2
965.146,3786.2
965.415,3786.8
965.684,3786.5
965.954,3785.8
966.223,3784.6
966.493,3783.7
966.762,3785.9
967.031,3785.6
967.301,3782.8
967.57,3784.7
967.839,3782.5
968.109,3784.2
968.378,3781.6
968.647,3781.4
968.917,3781.9
969.186,3781.5
969.455,3785.5
969.724,3783.6
969.994,3782.3
970.263,3781.8
970.532,3781.6
970.801,3780.7
971.071,3781.7
971.34,3782.0
971.609,3781.6
971.878,3780.1
972.147,3779.3
972.417,3780.9
972.686,3779.0
972.955,3779.9
973.224,3777.5
973.493,3779.6
973.762,3778.5
974.031,3779.8
974.3,3780.4
974.57,3780.2
974.839,3779.0
975.108,3779.1
975.377,3775.9
975.646,3775.7
975.915,3777.8
976.184,3779.1
976.453,3777.0
976.722,3775.7
976.991,3777.0
977.26,3776.1
977.529,3777.4
977.798,3778.1
978.067,3778.4
978.336,3775.7
978.605,3776.2
978.874,3777.2
979.143,3776.0
979.412,3777.7
979.68,3778.1
979.949,3774.5
980.218,3776.8
980.487,3777.3
980.756,3774.0
981.025,3774.1
981.294,3774.3
981.563,3776.4
981.831,3776.0
982.1,3771.9
982.369,3773.7
982.638,3773.7
982.907,3773.5
983.175,3772.9
983.444,3775.1
983.713,3773.1
983.982,3774.4
984.25,3772.8
984.519,3774.6
984.788,3773.8
985.057,3771.1
985.325,3773.3
985.594,3774.1
985.863,3773.6
986.131,3772.4
986.4,3773.7
986.669,3769.6
986.937,3771.5
987.206,3773.5
987.475,3773.1
987.743,3772.8
988.012,3771.3
988.28,3772.0
988.549,3771.9
988.817,3772.2
989.086,3771.8
989.355,3771.1
989.623,3772.1
989.892,3770.6
990.16,3768.7
990.429,3772.0
990.697,3771.4
990.966,3772.1
991.234,3769.1
991.503,3771.1
991.771,3771.2
992.04,3770.9
992.308,3770.6
992.576,3769.7
992.845,3771.4
993.113,3769.1
993.382,3772.3
993.65,3768.8
993.918,3770.1
994.187,3768.5
994.455,3769.2
994.723,3767.7
994.992,3770.1
995.26,3767.1
995.528,3770.0
995.797,3768.4
996.065,3770.4
996.333,3769.5
996.602,3769.5
996.87,3769.4
997.138,3769.2
997.406,3765.5
997.675,3769.5
997.943,3769.7
998.211,3769.5
998.479,3769.2
998.747,3770.4
999.016,3769.3
999.284,3770.4
999.552,3767.5
999.82,3765.0
1000.09,3767.6
1000.36,3766.5
1000.62,3767.4
1000.89,3768.4
1001.16,3766.5
1001.43,3766.4
1001.7,3765.0
1001.97,3766.6
1002.23,3767.2
1002.5,3764.8
1002.77,3767.0
1003.04,3768.1
1003.31,3767.1
1003.57,3766.4
1003.84,3765.7
1004.11,3766.9
1004.38,3767.9
1004.65,3765.7
1004.91,3766.1
1005.18,3767.4
1005.45,3765.3
1005.72,3764.4
1005.98,3763.9
1006.25,3765.3
1006.52,3764.2
1006.79,3763.0
1007.06,3763.8
1007.32,3766.2
1007.59,3765.7
1007.86,3765.7
1008.13,3764.3
1008.4,3766.0
1008.66,3764.7
1008.93,3765.8
1009.2,3767.0
1009.47,3765.8
1009.73,3768.0
1010.0,3767.7
1010.27,3768.1
1010.54,3768.1
1010.81,3766.6
1011.07,3767.1
1011.34,3767.3
1011.61,3769.6
1011.88,3770.5
1012.14,3768.4
1012.41,3770.9
1012.68,3771.5
1012.95,3770.0
1013.21,3771.1
1013.48,3771.4
1013.75,3773.0
1014.02,3771.6
1014.29,3772.5
1014.55,3773.5
1014.82,3773.4
1015.09,3771.4
1015.36,3773.1
1015.62,3772.0
1015.89,3771.8
1016.16,3769.0
1016.43,3770.7
1016.69,3770.1
1016.96,3770.8
1017.23,3768.8
1017.5,3766.0
1017.76,3770.1
1018.03,3768.1
1018.3,3766.2
1018.57,3769.5
1018.83,3766.9
1019.1,3766.9
1019.37,3766.1
1019.63,3766.0
1019.9,3766.3
1020.17,3765.3
1020.44,3766.7
1020.7,3764.6
1020.97,3766.2
1021.24,3764.1
1021.51,3765.7
1021.77,3764.1
1022.04,3764.5
1022.31,3764.4
1022.58,3764.7
1022.84,3763.9
1023.11,3763.5
1023.38,3765.1
1023.64,3765.5
1023.91,3763.9
1024.18,3764.0
1024.45,3761.6
1024.71,3758.5
1024.98,3761.1
1025.25,3759.5
1025.51,3759.8
1025.78,3761.2
1026.05,3761.8
1026.32,3762.1
1026.58,3761.2
1026.85,3758.0
1027.12,3761.8
1027.38,3759.1
1027.65,3759.5
1027.92,3760.4
1028.19,3758.2
1028.45,3758.8
1028.72,3760.0
1028.99,3758.3
1029.25,3758.4
1029.52,3758.2
1029.79,3760.2
1030.05,3759.1
1030.32,3759.6
1030.59,3759.1
1030.85,3757.1
1031.12,3760.7
1031.39,3760.9
1031.66,3757.8
1031.92,3758.0
1032.19,3759.0
1032.46,3758.1
1032.72,3759.0
1032.99,3760.1
1033.26,3759.1
1033.52,3758.7
1033.79,3759.4
1034.06,3759.8
1034.32,3758.9
1034.59,3759.8
1034.86,3758.6
1035.12,3758.6
1035.39,3756.7
1035.66,3759.1
1035.92,3758.1
1036.19,3758.8
1036.46,3758.9
1036.72,3758.1
1036.99,3758.3
1037.26,3758.6
1037.52,3758.6
1037.79,3759.7
1038.06,3756.0
1038.32,3760.1
1038.59,3757.6
1038.86,3758.6
1039.12,3756.6
1039.39,3756.6
1039.66,3757.8
1039.92,3758.7
1040.19,3757.0
1040.46,3758.3
1040.72,3759.4
1040.99,3760.3
1041.26,3756.0
1041.52,3759.2
1041.79,3757.2
1042.06,3757.0
1042.32,3756.5
1042.59,3757.6
1042.86,3759.1
1043.12,3758.6
1043.39,3756.2
1043.65,3756.7
1043.92,3757.5
1044.19,3755.7
1044.45,3757.3
1044.72,3756.6
1044.99,3756.7
1045.25,3757.0
1045.52,3756.3
1045.79,3758.2
1046.05,3754.6
1046.32,3756.5
1046.58,3756.5
1046.85,3758.5
1047.12,3758.9
1047.38,3757.6
1047.65,3758.7
1047.92,3758.8
1048.18,3755.1
1048.45,3756.6
1048.71,3755.0
1048.98,3758.1
1049.25,3757.3
1049.51,3755.3
1049.78,3757.2
1050.04,3756.1
1050.31,3758.5
1050.58,3757.3
1050.84,3755.8
1051.11,3756.5
1051.37,3757.5
1051.64,3757.7
1051.91,3758.3
1052.17,3757.0
1052.44,3757.0
1052.7,3756.1
1052.97,3756.1
1053.24,3756.8
1053.5,3756.4
1053.77,3757.7
1054.03,3757.2
1054.3,3755.6
1054.57,3755.8
1054.83,3757.5
1055.1,3756.8
1055.36,3758.3
1055.63,3757.0
1055.9,3756.7
1056.16,3756.8
1056.43,3758.5
1056.69,3756.5
1056.96,3756.6
1057.23,3756.7
1057.49,3756.5
1057.76,3757.2
1058.02,3756.9
1058.29,3756.4
1058.55,3757.1
1058.82,3754.9
1059.09,3756.7
1059.35,3755.3
1059.62,3759.2
1059.88,3757.1
1060.15,3757.0
1060.41,3756.0
1060.68,3755.1
1060.95,3756.7
1061.21,3758.6
1061.48,3755.7
1061.74,3758.2
1062.01,3754.1
1062.27,3755.4
1062.54,3756.3
1062.8,3758.4
1063.07,3758.1
1063.34,3757.8
1063.6,3758.5
1063.87,3755.4
1064.13,3756.5
1064.4,3756.4
1064.66,3757.0
1064.93,3757.8
1065.19,3756.0
1065.46,3756.9
1065.73,3756.5
1065.99,3759.2
1066.26,3756.4
1066.52,3756.6
1066.79,3756.2
1067.05,3754.9
1067.32,3757.5
1067.58,3756.2
1067.85,3757.1
1068.11,3755.4
