cm-1,A
4000.0,-0.0066
3999.0,-0.0066
3998.0,-0.0066
3997.0,-0.0066
3996.0,-0.0065
3995.0,-0.0065
3994.0,-0.0065
3993.0,-0.0065
3992.0,-0.0065
3991.0,-0.0065
3990.0,-0.0065
3989.0,-0.0065
3988.0,-0.0065
3987.0,-0.0065
3986.0,-0.0065
3985.0,-0.0065
3984.0,-0.0065
3983.0,-0.0065
3982.0,-0.0065
3981.0,-0.0064
3980.0,-0.0064
3979.0,-0.0064
3978.0,-0.0065
3977.0,-0.0065
3976.0,-0.0065
3975.0,-0.0065
3974.0,-0.0064
3973.0,-0.0064
3972.0,-0.0063
3971.0,-0.0063
3970.0,-0.0064
3969.0,-0.0064
3968.0,-0.0064
3967.0,-0.0064
3966.0,-0.0064
3965.0,-0.0064
3964.0,-0.0064
3963.0,-0.0063
3962.0,-0.0063
3961.0,-0.0063
3960.0,-0.0063
3959.0,-0.0063
3958.0,-0.0064
3957.0,-0.0064
3956.0,-0.0065
3955.0,-0.0065
3954.0,-0.0065
3953.0,-0.0065
3952.0,-0.0064
3951.0,-0.0064
3950.0,-0.0064
3949.0,-0.0065
3948.0,-0.0066
3947.0,-0.0066
3946.0,-0.0066
3945.0,-0.0065
3944.0,-0.0064
3943.0,-0.0064
3942.0,-0.0065
3941.0,-0.0066
3940.0,-0.0067
3939.0,-0.0066
3938.0,-0.0066
3937.0,-0.0065
3936.0,-0.0065
3935.0,-0.0065
3934.0,-0.0066
3933.0,-0.0067
3932.0,-0.0067
3931.0,-0.0067
3930.0,-0.0067
3929.0,-0.0066
3928.0,-0.0065
3927.0,-0.0065
3926.0,-0.0064
3925.0,-0.0064
3924.0,-0.0064
3923.0,-0.0064
3922.0,-0.0065
3921.0,-0.0065
3920.0,-0.0064
3919.0,-0.0063
3918.0,-0.0063
3917.0,-0.0063
3916.0,-0.0064
3915.0,-0.0065
3914.0,-0.0065
3913.0,-0.0066
3912.0,-0.0066
3911.0,-0.0066
3910.0,-0.0066
3909.0,-0.0066
3908.0,-0.0066
3907.0,-0.0066
3906.0,-0.0065
3905.0,-0.0065
3904.0,-0.0066
3903.0,-0.0066
3902.0,-0.0065
3901.0,-0.0064
3900.0,-0.0063
3899.0,-0.0063
3898.0,-0.0063
3897.0,-0.0064
3896.0,-0.0064
3895.0,-0.0065
3894.0,-0.0065
3893.0,-0.0065
3892.0,-0.0065
3891.0,-0.0065
3890.0,-0.0065
3889.0,-0.0063
3888.0,-0.0063
3887.0,-0.0063
3886.0,-0.0064
3885.0,-0.0064
3884.0,-0.0063
3883.0,-0.0062
3882.0,-0.0061
3881.0,-0.0061
3880.0,-0.0062
3879.0,-0.0063
3878.0,-0.0063
3877.0,-0.0062
3876.0,-0.0062
3875.0,-0.0062
3874.0,-0.0062
3873.0,-0.0062
3872.0,-0.0062
3871.0,-0.0062
3870.0,-0.0062
3869.0,-0.0063
3868.0,-0.0064
3867.0,-0.0064
3866.0,-0.0064
3865.0,-0.0065
3864.0,-0.0065
3863.0,-0.0065
3862.0,-0.0066
3861.0,-0.0066
3860.0,-0.0066
3859.0,-0.0065
3858.0,-0.0065
3857.0,-0.0065
3856.0,-0.0066
3855.0,-0.0067
3854.0,-0.0066
3853.0,-0.0065
3852.0,-0.0064
3851.0,-0.0063
3850.0,-0.0062
3849.0,-0.0063
3848.0,-0.0064
3847.0,-0.0065
3846.0,-0.0065
3845.0,-0.0064
3844.0,-0.0064
3843.0,-0.0064
3842.0,-0.0064
3841.0,-0.0064
3840.0,-0.0064
3839.0,-0.0063
3838.0,-0.0062
3837.0,-0.0062
3836.0,-0.0061
3835.0,-0.0061
3834.0,-0.0061
3833.0,-0.0062
3832.0,-0.0063
3831.0,-0.0063
3830.0,-0.0064
3829.0,-0.0065
3828.0,-0.0065
3827.0,-0.0065
3826.0,-0.0065
3825.0,-0.0064
3824.0,-0.0063
3823.0,-0.0061
3822.0,-0.006
3821.0,-0.006
3820.0,-0.0061
3819.0,-0.0062
3818.0,-0.0063
3817.0,-0.0065
3816.0,-0.0065
3815.0,-0.0065
3814.0,-0.0064
3813.0,-0.0064
3812.0,-0.0065
3811.0,-0.0065
3810.0,-0.0065
3809.0,-0.0064
3808.0,-0.0063
3807.0,-0.0063
3806.0,-0.0063
3805.0,-0.0062
3804.0,-0.0061
3803.0,-0.0061
3802.0,-0.0061
3801.0,-0.0061
3800.0,-0.0061
3799.0,-0.0061
3798.0,-0.0061
3797.0,-0.0061
3796.0,-0.0062
3795.0,-0.0063
3794.0,-0.0063
3793.0,-0.0063
3792.0,-0.0064
3791.0,-0.0065
3790.0,-0.0066
3789.0,-0.0067
3788.0,-0.0067
3787.0,-0.0067
3786.0,-0.0066
3785.0,-0.0065
3784.0,-0.0064
3783.0,-0.0064
3782.0,-0.0064
3781.0,-0.0064
3780.0,-0.0064
3779.0,-0.0064
3778.0,-0.0064
3777.0,-0.0064
3776.0,-0.0065
3775.0,-0.0066
3774.0,-0.0066
3773.0,-0.0065
3772.0,-0.0064
3771.0,-0.0063
3770.0,-0.0062
3769.0,-0.0062
3768.0,-0.0062
3767.0,-0.0062
3766.0,-0.0063
3765.0,-0.0064
3764.0,-0.0064
3763.0,-0.0064
3762.0,-0.0064
3761.0,-0.0063
3760.0,-0.0063
3759.0,-0.0062
3758.0,-0.0063
3757.0,-0.0063
3756.0,-0.0062
3755.0,-0.0062
3754.0,-0.006
3753.0,-0.0059
3752.0,-0.0059
3751.0,-0.006
3750.0,-0.0063
3749.0,-0.0064
3748.0,-0.0063
3747.0,-0.0062
3746.0,-0.0061
3745.0,-0.0063
3744.0,-0.0066
3743.0,-0.0066
3742.0,-0.0066
3741.0,-0.0065
3740.0,-0.0066
3739.0,-0.0067
3738.0,-0.0068
3737.0,-0.0067
3736.0,-0.0064
3735.0,-0.0061
3734.0,-0.0059
3733.0,-0.0059
3732.0,-0.0062
3731.0,-0.0064
3730.0,-0.0065
3729.0,-0.0066
3728.0,-0.0066
3727.0,-0.0066
3726.0,-0.0066
3725.0,-0.0066
3724.0,-0.0066
3723.0,-0.0066
3722.0,-0.0066
3721.0,-0.0066
3720.0,-0.0066
3719.0,-0.0066
3718.0,-0.0066
3717.0,-0.0066
3716.0,-0.0066
3715.0,-0.0065
3714.0,-0.0065
3713.0,-0.0064
3712.0,-0.0065
3711.0,-0.0065
3710.0,-0.0066
3709.0,-0.0066
3708.0,-0.0067
3707.0,-0.0067
3706.0,-0.0068
3705.0,-0.0068
3704.0,-0.0067
3703.0,-0.0067
3702.0,-0.0068
3701.0,-0.0068
3700.0,-0.0068
3699.0,-0.0068
3698.0,-0.0068
3697.0,-0.0068
3696.0,-0.0068
3695.0,-0.0068
3694.0,-0.0068
3693.0,-0.0068
3692.0,-0.0068
3691.0,-0.0069
3690.0,-0.0068
3689.0,-0.0068
3688.0,-0.0067
3687.0,-0.0067
3686.0,-0.0067
3685.0,-0.0067
3684.0,-0.0067
3683.0,-0.0067
3682.0,-0.0066
3681.0,-0.0065
3680.0,-0.0065
3679.0,-0.0064
3678.0,-0.0063
3677.0,-0.0063
3676.0,-0.0063
3675.0,-0.0064
3674.0,-0.0065
3673.0,-0.0065
3672.0,-0.0065
3671.0,-0.0066
3670.0,-0.0067
3669.0,-0.0068
3668.0,-0.0068
3667.0,-0.0069
3666.0,-0.007
3665.0,-0.0071
3664.0,-0.007
3663.0,-0.007
3662.0,-0.0069
3661.0,-0.0069
3660.0,-0.0069
3659.0,-0.007
3658.0,-0.007
3657.0,-0.0071
3656.0,-0.0071
3655.0,-0.007
3654.0,-0.0069
3653.0,-0.0068
3652.0,-0.0067
3651.0,-0.0067
3650.0,-0.0068
3649.0,-0.0068
3648.0,-0.0068
3647.0,-0.0067
3646.0,-0.0067
3645.0,-0.0067
3644.0,-0.0067
3643.0,-0.0068
3642.0,-0.0069
3641.0,-0.0071
3640.0,-0.0072
3639.0,-0.0072
3638.0,-0.0073
3637.0,-0.0073
3636.0,-0.0073
3635.0,-0.0073
3634.0,-0.0073
3633.0,-0.0073
3632.0,-0.0073
3631.0,-0.0073
3630.0,-0.0073
3629.0,-0.0073
3628.0,-0.0072
3627.0,-0.007
3626.0,-0.0069
3625.0,-0.0067
3624.0,-0.0067
3623.0,-0.0067
3622.0,-0.0066
3621.0,-0.0066
3620.0,-0.0066
3619.0,-0.0067
3618.0,-0.0069
3617.0,-0.007
3616.0,-0.0069
3615.0,-0.0068
3614.0,-0.0067
3613.0,-0.0067
3612.0,-0.0068
3611.0,-0.007
3610.0,-0.0071
3609.0,-0.0071
3608.0,-0.0071
3607.0,-0.0071
3606.0,-0.0071
3605.0,-0.0071
3604.0,-0.007
3603.0,-0.0069
3602.0,-0.0068
3601.0,-0.0067
3600.0,-0.0068
3599.0,-0.0068
3598.0,-0.0069
3597.0,-0.007
3596.0,-0.007
3595.0,-0.0072
3594.0,-0.0072
3593.0,-0.0072
3592.0,-0.0072
3591.0,-0.0071
3590.0,-0.0072
3589.0,-0.0073
3588.0,-0.0075
3587.0,-0.0075
3586.0,-0.0074
3585.0,-0.0072
3584.0,-0.0071
3583.0,-0.007
3582.0,-0.007
3581.0,-0.007
3580.0,-0.007
3579.0,-0.007
3578.0,-0.007
3577.0,-0.007
3576.0,-0.007
3575.0,-0.0071
3574.0,-0.0071
3573.0,-0.0071
3572.0,-0.007
3571.0,-0.0069
3570.0,-0.0069
3569.0,-0.0068
3568.0,-0.0067
3567.0,-0.0067
3566.0,-0.0066
3565.0,-0.0066
3564.0,-0.0066
3563.0,-0.0067
3562.0,-0.0067
3561.0,-0.0067
3560.0,-0.0068
3559.0,-0.0068
3558.0,-0.0068
3557.0,-0.0068
3556.0,-0.0068
3555.0,-0.0067
3554.0,-0.0067
3553.0,-0.0067
3552.0,-0.0066
3551.0,-0.0066
3550.0,-0.0065
3549.0,-0.0065
3548.0,-0.0064
3547.0,-0.0064
3546.0,-0.0063
3545.0,-0.0063
3544.0,-0.0062
3543.0,-0.0062
3542.0,-0.0062
3541.0,-0.0063
3540.0,-0.0064
3539.0,-0.0065
3538.0,-0.0066
3537.0,-0.0066
3536.0,-0.0065
3535.0,-0.0064
3534.0,-0.0063
3533.0,-0.0062
3532.0,-0.0061
3531.0,-0.0061
3530.0,-0.006
3529.0,-0.0058
3528.0,-0.0057
3527.0,-0.0055
3526.0,-0.0054
3525.0,-0.0054
3524.0,-0.0054
3523.0,-0.0053
3522.0,-0.0053
3521.0,-0.0053
3520.0,-0.0053
3519.0,-0.0053
3518.0,-0.0054
3517.0,-0.0055
3516.0,-0.0055
3515.0,-0.0054
3514.0,-0.0053
3513.0,-0.0051
3512.0,-0.0048
3511.0,-0.0046
3510.0,-0.0044
3509.0,-0.0044
3508.0,-0.0044
3507.0,-0.0044
3506.0,-0.0044
3505.0,-0.0043
3504.0,-0.0042
3503.0,-0.0041
3502.0,-0.0041
3501.0,-0.004
3500.0,-0.0039
3499.0,-0.0038
3498.0,-0.0036
3497.0,-0.0034
3496.0,-0.0033
3495.0,-0.0032
3494.0,-0.0032
3493.0,-0.003
3492.0,-0.0028
3491.0,-0.0027
3490.0,-0.0025
3489.0,-0.0024
3488.0,-0.0023
3487.0,-0.0022
3486.0,-0.002
3485.0,-0.0019
3484.0,-0.0018
3483.0,-0.0016
3482.0,-0.0015
3481.0,-0.0013
3480.0,-0.0013
3479.0,-0.0012
3478.0,-0.0011
3477.0,-0.001
3476.0,-0.0007
3475.0,-0.0005
3474.0,-0.0003
3473.0,-0.0002
3472.0,-0.0
3471.0,0.0002
3470.0,0.0004
3469.0,0.0007
3468.0,0.0009
3467.0,0.0011
3466.0,0.0013
3465.0,0.0015
3464.0,0.0016
3463.0,0.0017
3462.0,0.0018
3461.0,0.002
3460.0,0.0022
3459.0,0.0024
3458.0,0.0026
3457.0,0.0027
3456.0,0.0029
3455.0,0.003
3454.0,0.0032
3453.0,0.0034
3452.0,0.0037
3451.0,0.0039
3450.0,0.0041
3449.0,0.0044
3448.0,0.0047
3447.0,0.005
3446.0,0.0053
3445.0,0.0054
3444.0,0.0054
3443.0,0.0055
3442.0,0.0056
3441.0,0.0057
3440.0,0.006
3439.0,0.0062
3438.0,0.0065
3437.0,0.0068
3436.0,0.0071
3435.0,0.0074
3434.0,0.0076
3433.0,0.0078
3432.0,0.0081
3431.0,0.0083
3430.0,0.0087
3429.0,0.0091
3428.0,0.0094
3427.0,0.0097
3426.0,0.0099
3425.0,0.0101
3424.0,0.0105
3423.0,0.011
3422.0,0.0115
3421.0,0.0121
3420.0,0.0126
3419.0,0.0131
3418.0,0.0136
3417.0,0.0142
3416.0,0.0147
3415.0,0.0151
3414.0,0.0154
3413.0,0.0158
3412.0,0.0164
3411.0,0.0172
3410.0,0.018
3409.0,0.0187
3408.0,0.0193
3407.0,0.0197
3406.0,0.0201
3405.0,0.0205
3404.0,0.0208
3403.0,0.0211
3402.0,0.0215
3401.0,0.0217
3400.0,0.022
3399.0,0.0223
3398.0,0.0226
3397.0,0.0229
3396.0,0.0233
3395.0,0.0236
3394.0,0.024
3393.0,0.0243
3392.0,0.0246
3391.0,0.0249
3390.0,0.0252
3389.0,0.0255
3388.0,0.0257
3387.0,0.026
3386.0,0.0263
3385.0,0.0266
3384.0,0.0269
3383.0,0.027
3382.0,0.0271
3381.0,0.027
3380.0,0.027
3379.0,0.027
3378.0,0.0272
3377.0,0.0274
3376.0,0.0277
3375.0,0.0279
3374.0,0.0279
3373.0,0.0277
3372.0,0.0274
3371.0,0.0272
3370.0,0.0271
3369.0,0.027
3368.0,0.027
3367.0,0.0268
3366.0,0.0266
3365.0,0.0262
3364.0,0.0258
3363.0,0.0254
3362.0,0.0251
3361.0,0.0249
3360.0,0.0248
3359.0,0.0247
3358.0,0.0245
3357.0,0.0242
3356.0,0.0239
3355.0,0.0235
3354.0,0.0231
3353.0,0.0227
3352.0,0.0224
3351.0,0.0222
3350.0,0.0218
3349.0,0.0215
3348.0,0.021
3347.0,0.0205
3346.0,0.02
3345.0,0.0195
3344.0,0.0191
3343.0,0.0188
3342.0,0.0186
3341.0,0.0183
3340.0,0.0179
3339.0,0.0175
3338.0,0.017
3337.0,0.0166
3336.0,0.0164
3335.0,0.0162
3334.0,0.0159
3333.0,0.0155
3332.0,0.0151
3331.0,0.0147
3330.0,0.0142
3329.0,0.0138
3328.0,0.0133
3327.0,0.0129
3326.0,0.0125
3325.0,0.0123
3324.0,0.012
3323.0,0.0116
3322.0,0.0111
3321.0,0.0106
3320.0,0.0102
3319.0,0.0099
3318.0,0.0097
3317.0,0.0094
3316.0,0.0091
3315.0,0.0088
3314.0,0.0085
3313.0,0.0081
3312.0,0.0078
3311.0,0.0075
3310.0,0.0073
3309.0,0.007
3308.0,0.0067
3307.0,0.0065
3306.0,0.0063
3305.0,0.0061
3304.0,0.0059
3303.0,0.0057
3302.0,0.0054
3301.0,0.0052
3300.0,0.0051
3299.0,0.0049
3298.0,0.0046
3297.0,0.0043
3296.0,0.0041
3295.0,0.0038
3294.0,0.0036
3293.0,0.0034
3292.0,0.0031
3291.0,0.0029
3290.0,0.0027
3289.0,0.0025
3288.0,0.0024
3287.0,0.0023
3286.0,0.0021
3285.0,0.002
3284.0,0.0019
3283.0,0.0018
3282.0,0.0017
3281.0,0.0015
3280.0,0.0014
3279.0,0.0013
3278.0,0.0012
3277.0,0.0011
3276.0,0.001
3275.0,0.0009
3274.0,0.0009
3273.0,0.0009
3272.0,0.0008
3271.0,0.0007
3270.0,0.0006
3269.0,0.0005
3268.0,0.0004
3267.0,0.0004
3266.0,0.0005
3265.0,0.0006
3264.0,0.0007
3263.0,0.0008
3262.0,0.0009
3261.0,0.0011
3260.0,0.0012
3259.0,0.0013
3258.0,0.0014
3257.0,0.0014
3256.0,0.0014
3255.0,0.0015
3254.0,0.0016
3253.0,0.0017
3252.0,0.0018
3251.0,0.0018
3250.0,0.0018
3249.0,0.0017
3248.0,0.0017
3247.0,0.0018
3246.0,0.002
3245.0,0.0021
3244.0,0.0021
3243.0,0.002
3242.0,0.002
3241.0,0.002
3240.0,0.0021
3239.0,0.0021
3238.0,0.0022
3237.0,0.0023
3236.0,0.0024
3235.0,0.0025
3234.0,0.0024
3233.0,0.0024
3232.0,0.0022
3231.0,0.0021
3230.0,0.0019
3229.0,0.0017
3228.0,0.0015
3227.0,0.0013
3226.0,0.001
3225.0,0.0009
3224.0,0.0008
3223.0,0.0007
3222.0,0.0006
3221.0,0.0004
3220.0,0.0001
3219.0,-0.0002
3218.0,-0.0004
3217.0,-0.0006
3216.0,-0.0007
3215.0,-0.0008
3214.0,-0.0009
3213.0,-0.0011
3212.0,-0.0013
3211.0,-0.0015
3210.0,-0.0017
3209.0,-0.0018
3208.0,-0.002
3207.0,-0.0021
3206.0,-0.0023
3205.0,-0.0025
3204.0,-0.0027
3203.0,-0.0028
3202.0,-0.003
3201.0,-0.0032
3200.0,-0.0034
3199.0,-0.0035
3198.0,-0.0037
3197.0,-0.0039
3196.0,-0.004
3195.0,-0.0041
3194.0,-0.0042
3193.0,-0.0041
3192.0,-0.004
3191.0,-0.0038
3190.0,-0.0038
3189.0,-0.0038
3188.0,-0.004
3187.0,-0.0041
3186.0,-0.0043
3185.0,-0.0044
3184.0,-0.0045
3183.0,-0.0046
3182.0,-0.0047
3181.0,-0.0048
3180.0,-0.0048
3179.0,-0.0048
3178.0,-0.0048
3177.0,-0.0048
3176.0,-0.0048
3175.0,-0.0048
3174.0,-0.0048
3173.0,-0.0048
3172.0,-0.0048
3171.0,-0.005
3170.0,-0.0051
3169.0,-0.0052
3168.0,-0.0052
3167.0,-0.0051
3166.0,-0.0051
3165.0,-0.0051
3164.0,-0.0052
3163.0,-0.0053
3162.0,-0.0054
3161.0,-0.0054
3160.0,-0.0053
3159.0,-0.0053
3158.0,-0.0052
3157.0,-0.005
3156.0,-0.0049
3155.0,-0.0049
3154.0,-0.0049
3153.0,-0.0051
3152.0,-0.0052
3151.0,-0.0053
3150.0,-0.0054
3149.0,-0.0054
3148.0,-0.0054
3147.0,-0.0054
3146.0,-0.0055
3145.0,-0.0054
3144.0,-0.0053
3143.0,-0.0052
3142.0,-0.0052
3141.0,-0.0052
3140.0,-0.0053
3139.0,-0.0054
3138.0,-0.0056
3137.0,-0.0057
3136.0,-0.0057
3135.0,-0.0057
3134.0,-0.0056
3133.0,-0.0055
3132.0,-0.0055
3131.0,-0.0056
3130.0,-0.0056
3129.0,-0.0057
3128.0,-0.0057
3127.0,-0.0057
3126.0,-0.0057
3125.0,-0.0057
3124.0,-0.0057
3123.0,-0.0057
3122.0,-0.0057
3121.0,-0.0057
3120.0,-0.0057
3119.0,-0.0056
3118.0,-0.0056
3117.0,-0.0055
3116.0,-0.0054
3115.0,-0.0053
3114.0,-0.0052
3113.0,-0.0053
3112.0,-0.0054
3111.0,-0.0055
3110.0,-0.0055
3109.0,-0.0055
3108.0,-0.0055
3107.0,-0.0056
3106.0,-0.0057
3105.0,-0.0057
3104.0,-0.0057
3103.0,-0.0056
3102.0,-0.0055
3101.0,-0.0054
3100.0,-0.0053
3099.0,-0.0053
3098.0,-0.0053
3097.0,-0.0053
3096.0,-0.0053
3095.0,-0.0053
3094.0,-0.0053
3093.0,-0.0053
3092.0,-0.0053
3091.0,-0.0054
3090.0,-0.0054
3089.0,-0.0053
3088.0,-0.0053
3087.0,-0.0053
3086.0,-0.0052
3085.0,-0.0052
3084.0,-0.0053
3083.0,-0.0054
3082.0,-0.0055
3081.0,-0.0055
3080.0,-0.0055
3079.0,-0.0054
3078.0,-0.0053
3077.0,-0.0053
3076.0,-0.0053
3075.0,-0.0053
3074.0,-0.0054
3073.0,-0.0054
3072.0,-0.0054
3071.0,-0.0054
3070.0,-0.0054
3069.0,-0.0053
3068.0,-0.0053
3067.0,-0.0052
3066.0,-0.0052
3065.0,-0.0052
3064.0,-0.0052
3063.0,-0.0052
3062.0,-0.0052
3061.0,-0.0052
3060.0,-0.0052
3059.0,-0.0051
3058.0,-0.0051
3057.0,-0.005
3056.0,-0.005
3055.0,-0.0049
3054.0,-0.0049
3053.0,-0.0049
3052.0,-0.0049
3051.0,-0.0049
3050.0,-0.0048
3049.0,-0.0048
3048.0,-0.0048
3047.0,-0.0048
3046.0,-0.0048
3045.0,-0.0049
3044.0,-0.0049
3043.0,-0.0049
3042.0,-0.0049
3041.0,-0.0049
3040.0,-0.0049
3039.0,-0.0049
3038.0,-0.0049
3037.0,-0.0049
3036.0,-0.0048
3035.0,-0.0047
3034.0,-0.0047
3033.0,-0.0048
3032.0,-0.0049
3031.0,-0.0049
3030.0,-0.0049
3029.0,-0.0048
3028.0,-0.0047
3027.0,-0.0046
3026.0,-0.0046
3025.0,-0.0046
3024.0,-0.0047
3023.0,-0.0048
3022.0,-0.0049
3021.0,-0.0048
3020.0,-0.0048
3019.0,-0.0047
3018.0,-0.0046
3017.0,-0.0046
3016.0,-0.0046
3015.0,-0.0046
3014.0,-0.0047
3013.0,-0.0047
3012.0,-0.0047
3011.0,-0.0047
3010.0,-0.0046
3009.0,-0.0046
3008.0,-0.0046
3007.0,-0.0047
3006.0,-0.0047
3005.0,-0.0048
3004.0,-0.0048
3003.0,-0.0048
3002.0,-0.0047
3001.0,-0.0046
3000.0,-0.0046
2999.0,-0.0046
2998.0,-0.0047
2997.0,-0.0047
2996.0,-0.0048
2995.0,-0.0048
2994.0,-0.0048
2993.0,-0.0047
2992.0,-0.0046
2991.0,-0.0046
2990.0,-0.0047
2989.0,-0.0047
2988.0,-0.0047
2987.0,-0.0047
2986.0,-0.0047
2985.0,-0.0047
2984.0,-0.0047
2983.0,-0.0047
2982.0,-0.0047
2981.0,-0.0047
2980.0,-0.0047
2979.0,-0.0046
2978.0,-0.0046
2977.0,-0.0046
2976.0,-0.0045
2975.0,-0.0045
2974.0,-0.0045
2973.0,-0.0044
2972.0,-0.0044
2971.0,-0.0045
2970.0,-0.0045
2969.0,-0.0045
2968.0,-0.0045
2967.0,-0.0044
2966.0,-0.0043
2965.0,-0.0043
2964.0,-0.0044
2963.0,-0.0045
2962.0,-0.0045
2961.0,-0.0045
2960.0,-0.0045
2959.0,-0.0045
2958.0,-0.0045
2957.0,-0.0045
2956.0,-0.0044
2955.0,-0.0044
2954.0,-0.0043
2953.0,-0.0043
2952.0,-0.0042
2951.0,-0.0042
2950.0,-0.0042
2949.0,-0.0041
2948.0,-0.0041
2947.0,-0.0041
2946.0,-0.004
2945.0,-0.004
2944.0,-0.0041
2943.0,-0.0041
2942.0,-0.0042
2941.0,-0.0042
2940.0,-0.0042
2939.0,-0.0042
2938.0,-0.0042
2937.0,-0.0042
2936.0,-0.0042
2935.0,-0.0043
2934.0,-0.0042
2933.0,-0.0042
2932.0,-0.0042
2931.0,-0.0041
2930.0,-0.0041
2929.0,-0.0041
2928.0,-0.0041
2927.0,-0.0041
2926.0,-0.0041
2925.0,-0.0041
2924.0,-0.0041
2923.0,-0.0041
2922.0,-0.0041
2921.0,-0.0041
2920.0,-0.0041
2919.0,-0.0042
2918.0,-0.0042
2917.0,-0.0043
2916.0,-0.0044
2915.0,-0.0043
2914.0,-0.0043
2913.0,-0.0042
2912.0,-0.0041
2911.0,-0.0041
2910.0,-0.004
2909.0,-0.004
2908.0,-0.004
2907.0,-0.004
2906.0,-0.004
2905.0,-0.004
2904.0,-0.004
2903.0,-0.004
2902.0,-0.004
2901.0,-0.004
2900.0,-0.0041
2899.0,-0.0041
2898.0,-0.0041
2897.0,-0.0041
2896.0,-0.0041
2895.0,-0.0041
2894.0,-0.0041
2893.0,-0.0042
2892.0,-0.0042
2891.0,-0.0042
2890.0,-0.0042
2889.0,-0.0041
2888.0,-0.0041
2887.0,-0.0041
2886.0,-0.0041
2885.0,-0.0041
2884.0,-0.0041
2883.0,-0.004
2882.0,-0.0039
2881.0,-0.0039
2880.0,-0.004
2879.0,-0.0041
2878.0,-0.0041
2877.0,-0.0041
2876.0,-0.0041
2875.0,-0.0041
2874.0,-0.0041
2873.0,-0.0041
2872.0,-0.0041
2871.0,-0.0041
2870.0,-0.0041
2869.0,-0.0041
2868.0,-0.0041
2867.0,-0.0041
2866.0,-0.0041
2865.0,-0.0041
2864.0,-0.0041
2863.0,-0.0041
2862.0,-0.0041
2861.0,-0.0041
2860.0,-0.0041
2859.0,-0.0041
2858.0,-0.004
2857.0,-0.004
2856.0,-0.004
2855.0,-0.004
2854.0,-0.0041
2853.0,-0.0041
2852.0,-0.0042
2851.0,-0.0041
2850.0,-0.004
2849.0,-0.004
2848.0,-0.0039
2847.0,-0.004
2846.0,-0.004
2845.0,-0.004
2844.0,-0.0039
2843.0,-0.0038
2842.0,-0.0037
2841.0,-0.0038
2840.0,-0.0038
2839.0,-0.0039
2838.0,-0.004
2837.0,-0.004
2836.0,-0.004
2835.0,-0.0039
2834.0,-0.0039
2833.0,-0.0038
2832.0,-0.0038
2831.0,-0.0038
2830.0,-0.0038
2829.0,-0.0038
2828.0,-0.0038
2827.0,-0.0037
2826.0,-0.0036
2825.0,-0.0036
2824.0,-0.0036
2823.0,-0.0037
2822.0,-0.0037
2821.0,-0.0038
2820.0,-0.0039
2819.0,-0.0038
2818.0,-0.0038
2817.0,-0.0038
2816.0,-0.0038
2815.0,-0.0038
2814.0,-0.0037
2813.0,-0.0037
2812.0,-0.0036
2811.0,-0.0036
2810.0,-0.0036
2809.0,-0.0036
2808.0,-0.0037
2807.0,-0.0037
2806.0,-0.0038
2805.0,-0.0037
2804.0,-0.0037
2803.0,-0.0037
2802.0,-0.0037
2801.0,-0.0037
2800.0,-0.0037
2799.0,-0.0037
2798.0,-0.0037
2797.0,-0.0037
2796.0,-0.0036
2795.0,-0.0036
2794.0,-0.0037
2793.0,-0.0037
2792.0,-0.0037
2791.0,-0.0036
2790.0,-0.0036
2789.0,-0.0036
2788.0,-0.0035
2787.0,-0.0034
2786.0,-0.0034
2785.0,-0.0034
2784.0,-0.0034
2783.0,-0.0035
2782.0,-0.0036
2781.0,-0.0037
2780.0,-0.0037
2779.0,-0.0037
2778.0,-0.0037
2777.0,-0.0037
2776.0,-0.0037
2775.0,-0.0037
2774.0,-0.0037
2773.0,-0.0037
2772.0,-0.0037
2771.0,-0.0036
2770.0,-0.0036
2769.0,-0.0036
2768.0,-0.0037
2767.0,-0.0037
2766.0,-0.0037
2765.0,-0.0037
2764.0,-0.0036
2763.0,-0.0036
2762.0,-0.0036
2761.0,-0.0036
2760.0,-0.0037
2759.0,-0.0037
2758.0,-0.0037
2757.0,-0.0036
2756.0,-0.0036
2755.0,-0.0036
2754.0,-0.0036
2753.0,-0.0036
2752.0,-0.0036
2751.0,-0.0035
2750.0,-0.0035
2749.0,-0.0034
2748.0,-0.0034
2747.0,-0.0034
2746.0,-0.0035
2745.0,-0.0036
2744.0,-0.0037
2743.0,-0.0037
2742.0,-0.0037
2741.0,-0.0037
2740.0,-0.0037
2739.0,-0.0037
2738.0,-0.0036
2737.0,-0.0036
2736.0,-0.0035
2735.0,-0.0035
2734.0,-0.0034
2733.0,-0.0035
2732.0,-0.0035
2731.0,-0.0036
2730.0,-0.0037
2729.0,-0.0036
2728.0,-0.0036
2727.0,-0.0035
2726.0,-0.0035
2725.0,-0.0035
2724.0,-0.0035
2723.0,-0.0035
2722.0,-0.0035
2721.0,-0.0034
2720.0,-0.0034
2719.0,-0.0034
2718.0,-0.0035
2717.0,-0.0035
2716.0,-0.0035
2715.0,-0.0034
2714.0,-0.0035
2713.0,-0.0035
2712.0,-0.0036
2711.0,-0.0036
2710.0,-0.0035
2709.0,-0.0035
2708.0,-0.0035
2707.0,-0.0034
2706.0,-0.0034
2705.0,-0.0035
2704.0,-0.0035
2703.0,-0.0036
2702.0,-0.0036
2701.0,-0.0035
2700.0,-0.0034
2699.0,-0.0033
2698.0,-0.0033
2697.0,-0.0034
2696.0,-0.0035
2695.0,-0.0035
2694.0,-0.0036
2693.0,-0.0036
2692.0,-0.0036
2691.0,-0.0036
2690.0,-0.0035
2689.0,-0.0035
2688.0,-0.0034
2687.0,-0.0034
2686.0,-0.0033
2685.0,-0.0033
2684.0,-0.0034
2683.0,-0.0034
2682.0,-0.0035
2681.0,-0.0034
2680.0,-0.0034
2679.0,-0.0034
2678.0,-0.0034
2677.0,-0.0034
2676.0,-0.0035
2675.0,-0.0035
2674.0,-0.0035
2673.0,-0.0034
2672.0,-0.0034
2671.0,-0.0034
2670.0,-0.0035
2669.0,-0.0035
2668.0,-0.0036
2667.0,-0.0036
2666.0,-0.0036
2665.0,-0.0036
2664.0,-0.0036
2663.0,-0.0035
2662.0,-0.0035
2661.0,-0.0035
2660.0,-0.0036
2659.0,-0.0036
2658.0,-0.0035
2657.0,-0.0035
2656.0,-0.0034
2655.0,-0.0034
2654.0,-0.0034
2653.0,-0.0034
2652.0,-0.0034
2651.0,-0.0035
2650.0,-0.0035
2649.0,-0.0035
2648.0,-0.0035
2647.0,-0.0035
2646.0,-0.0035
2645.0,-0.0035
2644.0,-0.0035
2643.0,-0.0035
2642.0,-0.0035
2641.0,-0.0034
2640.0,-0.0033
2639.0,-0.0033
2638.0,-0.0033
2637.0,-0.0033
2636.0,-0.0033
2635.0,-0.0034
2634.0,-0.0034
2633.0,-0.0034
2632.0,-0.0034
2631.0,-0.0033
2630.0,-0.0033
2629.0,-0.0033
2628.0,-0.0033
2627.0,-0.0034
2626.0,-0.0034
2625.0,-0.0034
2624.0,-0.0034
2623.0,-0.0034
2622.0,-0.0035
2621.0,-0.0035
2620.0,-0.0035
2619.0,-0.0034
2618.0,-0.0034
2617.0,-0.0034
2616.0,-0.0034
2615.0,-0.0035
2614.0,-0.0035
2613.0,-0.0035
2612.0,-0.0035
2611.0,-0.0035
2610.0,-0.0034
2609.0,-0.0034
2608.0,-0.0034
2607.0,-0.0034
2606.0,-0.0034
2605.0,-0.0034
2604.0,-0.0035
2603.0,-0.0035
2602.0,-0.0035
2601.0,-0.0034
2600.0,-0.0033
2599.0,-0.0033
2598.0,-0.0034
2597.0,-0.0034
2596.0,-0.0034
2595.0,-0.0034
2594.0,-0.0034
2593.0,-0.0034
2592.0,-0.0034
2591.0,-0.0034
2590.0,-0.0034
2589.0,-0.0034
2588.0,-0.0034
2587.0,-0.0034
2586.0,-0.0033
2585.0,-0.0033
2584.0,-0.0033
2583.0,-0.0033
2582.0,-0.0033
2581.0,-0.0033
2580.0,-0.0034
2579.0,-0.0034
2578.0,-0.0035
2577.0,-0.0035
2576.0,-0.0034
2575.0,-0.0034
2574.0,-0.0033
2573.0,-0.0033
2572.0,-0.0033
2571.0,-0.0033
2570.0,-0.0034
2569.0,-0.0034
2568.0,-0.0035
2567.0,-0.0035
2566.0,-0.0034
2565.0,-0.0034
2564.0,-0.0033
2563.0,-0.0033
2562.0,-0.0033
2561.0,-0.0033
2560.0,-0.0033
2559.0,-0.0033
2558.0,-0.0033
2557.0,-0.0033
2556.0,-0.0034
2555.0,-0.0034
2554.0,-0.0034
2553.0,-0.0034
2552.0,-0.0033
2551.0,-0.0033
2550.0,-0.0033
2549.0,-0.0034
2548.0,-0.0033
2547.0,-0.0033
2546.0,-0.0033
2545.0,-0.0033
2544.0,-0.0033
2543.0,-0.0033
2542.0,-0.0033
2541.0,-0.0034
2540.0,-0.0035
2539.0,-0.0036
2538.0,-0.0036
2537.0,-0.0036
2536.0,-0.0036
2535.0,-0.0036
2534.0,-0.0035
2533.0,-0.0035
2532.0,-0.0034
2531.0,-0.0033
2530.0,-0.0032
2529.0,-0.0032
2528.0,-0.0032
2527.0,-0.0033
2526.0,-0.0033
2525.0,-0.0033
2524.0,-0.0034
2523.0,-0.0034
2522.0,-0.0034
2521.0,-0.0033
2520.0,-0.0033
2519.0,-0.0033
2518.0,-0.0033
2517.0,-0.0033
2516.0,-0.0033
2515.0,-0.0033
2514.0,-0.0034
2513.0,-0.0034
2512.0,-0.0034
2511.0,-0.0034
2510.0,-0.0034
2509.0,-0.0034
2508.0,-0.0033
2507.0,-0.0033
2506.0,-0.0033
2505.0,-0.0032
2504.0,-0.0032
2503.0,-0.0032
2502.0,-0.0033
2501.0,-0.0033
2500.0,-0.0033
2499.0,-0.0033
2498.0,-0.0033
2497.0,-0.0034
2496.0,-0.0034
2495.0,-0.0034
2494.0,-0.0034
2493.0,-0.0033
2492.0,-0.0033
2491.0,-0.0033
2490.0,-0.0033
2489.0,-0.0033
2488.0,-0.0033
2487.0,-0.0034
2486.0,-0.0034
2485.0,-0.0034
2484.0,-0.0034
2483.0,-0.0035
2482.0,-0.0034
2481.0,-0.0034
2480.0,-0.0033
2479.0,-0.0033
2478.0,-0.0033
2477.0,-0.0034
2476.0,-0.0034
2475.0,-0.0034
2474.0,-0.0034
2473.0,-0.0034
2472.0,-0.0034
2471.0,-0.0033
2470.0,-0.0033
2469.0,-0.0032
2468.0,-0.0032
2467.0,-0.0033
2466.0,-0.0034
2465.0,-0.0034
2464.0,-0.0034
2463.0,-0.0034
2462.0,-0.0033
2461.0,-0.0033
2460.0,-0.0033
2459.0,-0.0034
2458.0,-0.0034
2457.0,-0.0035
2456.0,-0.0034
2455.0,-0.0033
2454.0,-0.0033
2453.0,-0.0032
2452.0,-0.0032
2451.0,-0.0032
2450.0,-0.0032
2449.0,-0.0033
2448.0,-0.0033
2447.0,-0.0034
2446.0,-0.0034
2445.0,-0.0034
2444.0,-0.0034
2443.0,-0.0033
2442.0,-0.0033
2441.0,-0.0033
2440.0,-0.0034
2439.0,-0.0034
2438.0,-0.0034
2437.0,-0.0033
2436.0,-0.0033
2435.0,-0.0033
2434.0,-0.0033
2433.0,-0.0033
2432.0,-0.0033
2431.0,-0.0033
2430.0,-0.0033
2429.0,-0.0033
2428.0,-0.0033
2427.0,-0.0033
2426.0,-0.0032
2425.0,-0.0033
2424.0,-0.0033
2423.0,-0.0033
2422.0,-0.0032
2421.0,-0.0032
2420.0,-0.0033
2419.0,-0.0033
2418.0,-0.0033
2417.0,-0.0033
2416.0,-0.0033
2415.0,-0.0033
2414.0,-0.0033
2413.0,-0.0032
2412.0,-0.0032
2411.0,-0.0032
2410.0,-0.0033
2409.0,-0.0033
2408.0,-0.0034
2407.0,-0.0035
2406.0,-0.0035
2405.0,-0.0034
2404.0,-0.0033
2403.0,-0.0033
2402.0,-0.0033
2401.0,-0.0033
2400.0,-0.0033
2399.0,-0.0034
2398.0,-0.0034
2397.0,-0.0033
2396.0,-0.0033
2395.0,-0.0032
2394.0,-0.0032
2393.0,-0.0032
2392.0,-0.0033
2391.0,-0.0033
2390.0,-0.0034
2389.0,-0.0034
2388.0,-0.0035
2387.0,-0.0036
2386.0,-0.0037
2385.0,-0.0038
2384.0,-0.0038
2383.0,-0.0038
2382.0,-0.0039
2381.0,-0.0039
2380.0,-0.0041
2379.0,-0.0042
2378.0,-0.0041
2377.0,-0.0039
2376.0,-0.0034
2375.0,-0.003
2374.0,-0.0027
2373.0,-0.0025
2372.0,-0.0025
2371.0,-0.003
2370.0,-0.0039
2369.0,-0.0048
2368.0,-0.0053
2367.0,-0.0053
2366.0,-0.0049
2365.0,-0.0044
2364.0,-0.0039
2363.0,-0.0033
2362.0,-0.0033
2361.0,-0.004
2360.0,-0.0052
2359.0,-0.006
2358.0,-0.006
2357.0,-0.0053
2356.0,-0.0044
2355.0,-0.0037
2354.0,-0.0032
2353.0,-0.003
2352.0,-0.0031
2351.0,-0.0034
2350.0,-0.0038
2349.0,-0.0039
2348.0,-0.0039
2347.0,-0.0038
2346.0,-0.0036
2345.0,-0.0036
2344.0,-0.0037
2343.0,-0.0041
2342.0,-0.0044
2341.0,-0.0044
2340.0,-0.0041
2339.0,-0.0037
2338.0,-0.0034
2337.0,-0.0033
2336.0,-0.0033
2335.0,-0.0034
2334.0,-0.0035
2333.0,-0.0035
2332.0,-0.0032
2331.0,-0.0028
2330.0,-0.0026
2329.0,-0.0027
2328.0,-0.003
2327.0,-0.0032
2326.0,-0.0033
2325.0,-0.0032
2324.0,-0.0031
2323.0,-0.003
2322.0,-0.0031
2321.0,-0.0032
2320.0,-0.0034
2319.0,-0.0035
2318.0,-0.0034
2317.0,-0.0033
2316.0,-0.0032
2315.0,-0.0031
2314.0,-0.003
2313.0,-0.003
2312.0,-0.003
2311.0,-0.0031
2310.0,-0.0031
2309.0,-0.0031
2308.0,-0.003
2307.0,-0.0029
2306.0,-0.0027
2305.0,-0.0027
2304.0,-0.0028
2303.0,-0.003
2302.0,-0.0031
2301.0,-0.0031
2300.0,-0.0031
2299.0,-0.0031
2298.0,-0.0031
2297.0,-0.003
2296.0,-0.0029
2295.0,-0.0028
2294.0,-0.0028
2293.0,-0.0027
2292.0,-0.0027
2291.0,-0.0026
2290.0,-0.0026
2289.0,-0.0025
2288.0,-0.0025
2287.0,-0.0023
2286.0,-0.0023
2285.0,-0.0022
2284.0,-0.0023
2283.0,-0.0023
2282.0,-0.0024
2281.0,-0.0024
2280.0,-0.0024
2279.0,-0.0024
2278.0,-0.0024
2277.0,-0.0024
2276.0,-0.0025
2275.0,-0.0025
2274.0,-0.0024
2273.0,-0.0023
2272.0,-0.0022
2271.0,-0.0022
2270.0,-0.0022
2269.0,-0.0022
2268.0,-0.0023
2267.0,-0.0023
2266.0,-0.0024
2265.0,-0.0024
2264.0,-0.0024
2263.0,-0.0024
2262.0,-0.0024
2261.0,-0.0023
2260.0,-0.0023
2259.0,-0.0022
2258.0,-0.0022
2257.0,-0.0022
2256.0,-0.0022
2255.0,-0.0022
2254.0,-0.0022
2253.0,-0.0022
2252.0,-0.0022
2251.0,-0.0022
2250.0,-0.0021
2249.0,-0.0021
2248.0,-0.0021
2247.0,-0.0021
2246.0,-0.0022
2245.0,-0.0021
2244.0,-0.0021
2243.0,-0.0021
2242.0,-0.002
2241.0,-0.002
2240.0,-0.0019
2239.0,-0.002
2238.0,-0.002
2237.0,-0.0021
2236.0,-0.0021
2235.0,-0.0021
2234.0,-0.0021
2233.0,-0.0021
2232.0,-0.002
2231.0,-0.002
2230.0,-0.002
2229.0,-0.002
2228.0,-0.002
2227.0,-0.002
2226.0,-0.002
2225.0,-0.002
2224.0,-0.002
2223.0,-0.0021
2222.0,-0.0021
2221.0,-0.0021
2220.0,-0.0021
2219.0,-0.0021
2218.0,-0.0021
2217.0,-0.0021
2216.0,-0.0021
2215.0,-0.0021
2214.0,-0.0021
2213.0,-0.002
2212.0,-0.002
2211.0,-0.002
2210.0,-0.002
2209.0,-0.002
2208.0,-0.002
2207.0,-0.0021
2206.0,-0.0021
2205.0,-0.0021
2204.0,-0.0021
2203.0,-0.0021
2202.0,-0.0021
2201.0,-0.002
2200.0,-0.002
2199.0,-0.002
2198.0,-0.002
2197.0,-0.002
2196.0,-0.002
2195.0,-0.002
2194.0,-0.002
2193.0,-0.002
2192.0,-0.002
2191.0,-0.0021
2190.0,-0.0021
2189.0,-0.0021
2188.0,-0.002
2187.0,-0.002
2186.0,-0.0021
2185.0,-0.002
2184.0,-0.002
2183.0,-0.002
2182.0,-0.002
2181.0,-0.0019
2180.0,-0.0019
2179.0,-0.0019
2178.0,-0.0019
2177.0,-0.002
2176.0,-0.0021
2175.0,-0.0022
2174.0,-0.0022
2173.0,-0.0022
2172.0,-0.0022
2171.0,-0.0022
2170.0,-0.0021
2169.0,-0.0021
2168.0,-0.0021
2167.0,-0.0021
2166.0,-0.0021
2165.0,-0.0021
2164.0,-0.0021
2163.0,-0.0021
2162.0,-0.0021
2161.0,-0.002
2160.0,-0.002
2159.0,-0.002
2158.0,-0.0019
2157.0,-0.0019
2156.0,-0.002
2155.0,-0.0021
2154.0,-0.0021
2153.0,-0.0022
2152.0,-0.0022
2151.0,-0.0022
2150.0,-0.0022
2149.0,-0.0021
2148.0,-0.002
2147.0,-0.002
2146.0,-0.002
2145.0,-0.0021
2144.0,-0.0021
2143.0,-0.0021
2142.0,-0.0021
2141.0,-0.0021
2140.0,-0.002
2139.0,-0.002
2138.0,-0.002
2137.0,-0.002
2136.0,-0.002
2135.0,-0.002
2134.0,-0.002
2133.0,-0.002
2132.0,-0.002
2131.0,-0.002
2130.0,-0.002
2129.0,-0.0019
2128.0,-0.0019
2127.0,-0.0018
2126.0,-0.0019
2125.0,-0.0019
2124.0,-0.002
2123.0,-0.002
2122.0,-0.002
2121.0,-0.002
2120.0,-0.002
2119.0,-0.0019
2118.0,-0.0019
2117.0,-0.0019
2116.0,-0.002
2115.0,-0.002
2114.0,-0.002
2113.0,-0.002
2112.0,-0.002
2111.0,-0.002
2110.0,-0.002
2109.0,-0.0019
2108.0,-0.0019
2107.0,-0.0019
2106.0,-0.0019
2105.0,-0.0019
2104.0,-0.0019
2103.0,-0.0019
2102.0,-0.002
2101.0,-0.002
2100.0,-0.002
2099.0,-0.002
2098.0,-0.002
2097.0,-0.002
2096.0,-0.002
2095.0,-0.002
2094.0,-0.002
2093.0,-0.0019
2092.0,-0.0019
2091.0,-0.0018
2090.0,-0.0018
2089.0,-0.0018
2088.0,-0.0018
2087.0,-0.0018
2086.0,-0.0018
2085.0,-0.0018
2084.0,-0.0018
2083.0,-0.0018
2082.0,-0.0019
2081.0,-0.0019
2080.0,-0.0019
2079.0,-0.0019
2078.0,-0.0018
2077.0,-0.0018
2076.0,-0.0018
2075.0,-0.0018
2074.0,-0.0019
2073.0,-0.0019
2072.0,-0.0019
2071.0,-0.0019
2070.0,-0.0018
2069.0,-0.0018
2068.0,-0.0017
2067.0,-0.0017
2066.0,-0.0017
2065.0,-0.0018
2064.0,-0.0018
2063.0,-0.0018
2062.0,-0.0018
2061.0,-0.0018
2060.0,-0.0018
2059.0,-0.0018
2058.0,-0.0018
2057.0,-0.0018
2056.0,-0.0018
2055.0,-0.0018
2054.0,-0.0018
2053.0,-0.0018
2052.0,-0.0018
2051.0,-0.0018
2050.0,-0.0018
2049.0,-0.0018
2048.0,-0.0018
2047.0,-0.0018
2046.0,-0.0018
2045.0,-0.0018
2044.0,-0.0018
2043.0,-0.0017
2042.0,-0.0017
2041.0,-0.0017
2040.0,-0.0018
2039.0,-0.0018
2038.0,-0.0019
2037.0,-0.0019
2036.0,-0.0018
2035.0,-0.0018
2034.0,-0.0017
2033.0,-0.0017
2032.0,-0.0017
2031.0,-0.0017
2030.0,-0.0017
2029.0,-0.0017
2028.0,-0.0017
2027.0,-0.0017
2026.0,-0.0017
2025.0,-0.0018
2024.0,-0.0018
2023.0,-0.0018
2022.0,-0.0018
2021.0,-0.0018
2020.0,-0.0018
2019.0,-0.0018
2018.0,-0.0018
2017.0,-0.0018
2016.0,-0.0018
2015.0,-0.0018
2014.0,-0.0017
2013.0,-0.0017
2012.0,-0.0017
2011.0,-0.0017
2010.0,-0.0017
2009.0,-0.0017
2008.0,-0.0018
2007.0,-0.0018
2006.0,-0.0018
2005.0,-0.0018
2004.0,-0.0017
2003.0,-0.0017
2002.0,-0.0017
2001.0,-0.0016
2000.0,-0.0016
1999.0,-0.0017
1998.0,-0.0017
1997.0,-0.0017
1996.0,-0.0017
1995.0,-0.0016
1994.0,-0.0016
1993.0,-0.0016
1992.0,-0.0016
1991.0,-0.0016
1990.0,-0.0016
1989.0,-0.0016
1988.0,-0.0016
1987.0,-0.0016
1986.0,-0.0016
1985.0,-0.0016
1984.0,-0.0016
1983.0,-0.0016
1982.0,-0.0016
1981.0,-0.0016
1980.0,-0.0016
1979.0,-0.0016
1978.0,-0.0016
1977.0,-0.0016
1976.0,-0.0016
1975.0,-0.0017
1974.0,-0.0017
1973.0,-0.0017
1972.0,-0.0017
1971.0,-0.0017
1970.0,-0.0016
1969.0,-0.0016
1968.0,-0.0015
1967.0,-0.0015
1966.0,-0.0015
1965.0,-0.0015
1964.0,-0.0015
1963.0,-0.0016
1962.0,-0.0016
1961.0,-0.0016
1960.0,-0.0016
1959.0,-0.0015
1958.0,-0.0015
1957.0,-0.0014
1956.0,-0.0014
1955.0,-0.0015
1954.0,-0.0015
1953.0,-0.0015
1952.0,-0.0015
1951.0,-0.0015
1950.0,-0.0015
1949.0,-0.0016
1948.0,-0.0015
1947.0,-0.0015
1946.0,-0.0015
1945.0,-0.0015
1944.0,-0.0015
1943.0,-0.0015
1942.0,-0.0015
1941.0,-0.0015
1940.0,-0.0015
1939.0,-0.0015
1938.0,-0.0015
1937.0,-0.0015
1936.0,-0.0015
1935.0,-0.0014
1934.0,-0.0014
1933.0,-0.0015
1932.0,-0.0015
1931.0,-0.0015
1930.0,-0.0015
1929.0,-0.0015
1928.0,-0.0015
1927.0,-0.0015
1926.0,-0.0015
1925.0,-0.0015
1924.0,-0.0015
1923.0,-0.0015
1922.0,-0.0014
1921.0,-0.0014
1920.0,-0.0014
1919.0,-0.0015
1918.0,-0.0015
1917.0,-0.0015
1916.0,-0.0015
1915.0,-0.0015
1914.0,-0.0015
1913.0,-0.0015
1912.0,-0.0015
1911.0,-0.0015
1910.0,-0.0015
1909.0,-0.0014
1908.0,-0.0014
1907.0,-0.0014
1906.0,-0.0014
1905.0,-0.0014
1904.0,-0.0015
1903.0,-0.0016
1902.0,-0.0016
1901.0,-0.0016
1900.0,-0.0015
1899.0,-0.0015
1898.0,-0.0015
1897.0,-0.0014
1896.0,-0.0014
1895.0,-0.0014
1894.0,-0.0014
1893.0,-0.0014
1892.0,-0.0014
1891.0,-0.0013
1890.0,-0.0013
1889.0,-0.0013
1888.0,-0.0014
1887.0,-0.0014
1886.0,-0.0014
1885.0,-0.0014
1884.0,-0.0014
1883.0,-0.0014
1882.0,-0.0013
1881.0,-0.0013
1880.0,-0.0012
1879.0,-0.0012
1878.0,-0.0012
1877.0,-0.0012
1876.0,-0.0012
1875.0,-0.0011
1874.0,-0.0011
1873.0,-0.0011
1872.0,-0.0011
1871.0,-0.0011
1870.0,-0.0012
1869.0,-0.0013
1868.0,-0.0014
1867.0,-0.0014
1866.0,-0.0013
1865.0,-0.0013
1864.0,-0.0012
1863.0,-0.0012
1862.0,-0.0011
1861.0,-0.0011
1860.0,-0.0011
1859.0,-0.0012
1858.0,-0.0012
1857.0,-0.0012
1856.0,-0.0012
1855.0,-0.0013
1854.0,-0.0013
1853.0,-0.0013
1852.0,-0.0014
1851.0,-0.0014
1850.0,-0.0014
1849.0,-0.0013
1848.0,-0.0013
1847.0,-0.0012
1846.0,-0.0012
1845.0,-0.0013
1844.0,-0.0014
1843.0,-0.0015
1842.0,-0.0016
1841.0,-0.0015
1840.0,-0.0015
1839.0,-0.0014
1838.0,-0.0014
1837.0,-0.0015
1836.0,-0.0016
1835.0,-0.0016
1834.0,-0.0016
1833.0,-0.0016
1832.0,-0.0015
1831.0,-0.0015
1830.0,-0.0015
1829.0,-0.0016
1828.0,-0.0016
1827.0,-0.0016
1826.0,-0.0016
1825.0,-0.0016
1824.0,-0.0017
1823.0,-0.0016
1822.0,-0.0016
1821.0,-0.0016
1820.0,-0.0016
1819.0,-0.0017
1818.0,-0.0017
1817.0,-0.0017
1816.0,-0.0017
1815.0,-0.0017
1814.0,-0.0017
1813.0,-0.0016
1812.0,-0.0016
1811.0,-0.0017
1810.0,-0.0018
1809.0,-0.0018
1808.0,-0.0018
1807.0,-0.0018
1806.0,-0.0018
1805.0,-0.0017
1804.0,-0.0017
1803.0,-0.0017
1802.0,-0.0017
1801.0,-0.0018
1800.0,-0.0019
1799.0,-0.002
1798.0,-0.002
1797.0,-0.002
1796.0,-0.0019
1795.0,-0.0019
1794.0,-0.0019
1793.0,-0.0019
1792.0,-0.002
1791.0,-0.0021
1790.0,-0.0021
1789.0,-0.0021
1788.0,-0.0021
1787.0,-0.002
1786.0,-0.0021
1785.0,-0.0021
1784.0,-0.0022
1783.0,-0.0022
1782.0,-0.0023
1781.0,-0.0024
1780.0,-0.0025
1779.0,-0.0025
1778.0,-0.0025
1777.0,-0.0024
1776.0,-0.0024
1775.0,-0.0024
1774.0,-0.0025
1773.0,-0.0026
1772.0,-0.0028
1771.0,-0.0029
1770.0,-0.0029
1769.0,-0.0029
1768.0,-0.003
1767.0,-0.003
1766.0,-0.0031
1765.0,-0.0031
1764.0,-0.0031
1763.0,-0.0032
1762.0,-0.0035
1761.0,-0.0037
1760.0,-0.0038
1759.0,-0.0038
1758.0,-0.0038
1757.0,-0.0039
1756.0,-0.004
1755.0,-0.0041
1754.0,-0.0041
1753.0,-0.0041
1752.0,-0.0041
1751.0,-0.0041
1750.0,-0.0041
1749.0,-0.0041
1748.0,-0.0041
1747.0,-0.0041
1746.0,-0.004
1745.0,-0.0039
1744.0,-0.0037
1743.0,-0.0036
1742.0,-0.0034
1741.0,-0.0032
1740.0,-0.0029
1739.0,-0.0025
1738.0,-0.0022
1737.0,-0.0018
1736.0,-0.0013
1735.0,-0.0008
1734.0,-0.0002
1733.0,0.0001
1732.0,0.0004
1731.0,0.0007
1730.0,0.0011
1729.0,0.0014
1728.0,0.0017
1727.0,0.002
1726.0,0.0023
1725.0,0.0026
1724.0,0.0029
1723.0,0.0032
1722.0,0.0034
1721.0,0.0036
1720.0,0.0038
1719.0,0.004
1718.0,0.0043
1717.0,0.0047
1716.0,0.0049
1715.0,0.0051
1714.0,0.0051
1713.0,0.0051
1712.0,0.0051
1711.0,0.0051
1710.0,0.005
1709.0,0.0049
1708.0,0.0047
1707.0,0.0045
1706.0,0.0042
1705.0,0.004
1704.0,0.0038
1703.0,0.0037
1702.0,0.0035
1701.0,0.0032
1700.0,0.0029
1699.0,0.0027
1698.0,0.0026
1697.0,0.0026
1696.0,0.0024
1695.0,0.0021
1694.0,0.0019
1693.0,0.0017
1692.0,0.0015
1691.0,0.0013
1690.0,0.0012
1689.0,0.0011
1688.0,0.001
1687.0,0.001
1686.0,0.0009
1685.0,0.0008
1684.0,0.0005
1683.0,0.0003
1682.0,0.0002
1681.0,0.0002
1680.0,0.0001
1679.0,0.0
1678.0,-0.0001
1677.0,-0.0002
1676.0,-0.0003
1675.0,-0.0004
1674.0,-0.0006
1673.0,-0.0007
1672.0,-0.0009
1671.0,-0.001
1670.0,-0.0012
1669.0,-0.0014
1668.0,-0.0015
1667.0,-0.0015
1666.0,-0.0014
1665.0,-0.0014
1664.0,-0.0014
1663.0,-0.0015
1662.0,-0.0016
1661.0,-0.0016
1660.0,-0.0016
1659.0,-0.0016
1658.0,-0.0015
1657.0,-0.0013
1656.0,-0.001
1655.0,-0.0005
1654.0,0.0005
1653.0,0.0015
1652.0,0.0019
1651.0,0.0022
1650.0,0.0026
1649.0,0.0032
1648.0,0.0043
1647.0,0.0058
1646.0,0.007
1645.0,0.0077
1644.0,0.0083
1643.0,0.0088
1642.0,0.0093
1641.0,0.0099
1640.0,0.0105
1639.0,0.0112
1638.0,0.0119
1637.0,0.0131
1636.0,0.0152
1635.0,0.0174
1634.0,0.0186
1633.0,0.0192
1632.0,0.0195
1631.0,0.0197
1630.0,0.0199
1629.0,0.0201
1628.0,0.0204
1627.0,0.0204
1626.0,0.0201
1625.0,0.0193
1624.0,0.018
1623.0,0.0165
1622.0,0.015
1621.0,0.0137
1620.0,0.0126
1619.0,0.0116
1618.0,0.0105
1617.0,0.0093
1616.0,0.0082
1615.0,0.0075
1614.0,0.007
1613.0,0.0065
1612.0,0.006
1611.0,0.0056
1610.0,0.0052
1609.0,0.0048
1608.0,0.0045
1607.0,0.0043
1606.0,0.004
1605.0,0.0037
1604.0,0.0035
1603.0,0.0032
1602.0,0.003
1601.0,0.0028
1600.0,0.0027
1599.0,0.0026
1598.0,0.0026
1597.0,0.0025
1596.0,0.0024
1595.0,0.0023
1594.0,0.0022
1593.0,0.0021
1592.0,0.0021
1591.0,0.002
1590.0,0.002
1589.0,0.002
1588.0,0.0019
1587.0,0.0019
1586.0,0.0019
1585.0,0.0019
1584.0,0.002
1583.0,0.0021
1582.0,0.0022
1581.0,0.0023
1580.0,0.0024
1579.0,0.0024
1578.0,0.0025
1577.0,0.0027
1576.0,0.0029
1575.0,0.0029
1574.0,0.0029
1573.0,0.0028
1572.0,0.0028
1571.0,0.0029
1570.0,0.003
1569.0,0.003
1568.0,0.003
1567.0,0.0029
1566.0,0.0029
1565.0,0.0028
1564.0,0.0028
1563.0,0.0028
1562.0,0.0028
1561.0,0.0026
1560.0,0.0025
1559.0,0.0027
1558.0,0.0029
1557.0,0.0031
1556.0,0.0032
1555.0,0.0032
1554.0,0.0032
1553.0,0.0032
1552.0,0.0031
1551.0,0.0031
1550.0,0.003
1549.0,0.003
1548.0,0.003
1547.0,0.003
1546.0,0.003
1545.0,0.0031
1544.0,0.003
1543.0,0.003
1542.0,0.0029
1541.0,0.003
1540.0,0.0031
1539.0,0.0032
1538.0,0.0032
1537.0,0.0032
1536.0,0.0032
1535.0,0.0032
1534.0,0.0032
1533.0,0.0031
1532.0,0.003
1531.0,0.0029
1530.0,0.0029
1529.0,0.0028
1528.0,0.0028
1527.0,0.0027
1526.0,0.0027
1525.0,0.0027
1524.0,0.0026
1523.0,0.0027
1522.0,0.0029
1521.0,0.0029
1520.0,0.0029
1519.0,0.0028
1518.0,0.0028
1517.0,0.0028
1516.0,0.0028
1515.0,0.0028
1514.0,0.0027
1513.0,0.0027
1512.0,0.0026
1511.0,0.0025
1510.0,0.0025
1509.0,0.0026
1508.0,0.0029
1507.0,0.0034
1506.0,0.0036
1505.0,0.0036
1504.0,0.0036
1503.0,0.0035
1502.0,0.0034
1501.0,0.0033
1500.0,0.0032
1499.0,0.0031
1498.0,0.003
1497.0,0.003
1496.0,0.0029
1495.0,0.0028
1494.0,0.0027
1493.0,0.0027
1492.0,0.0026
1491.0,0.0026
1490.0,0.0026
1489.0,0.0026
1488.0,0.0026
1487.0,0.0026
1486.0,0.0026
1485.0,0.0025
1484.0,0.0024
1483.0,0.0023
1482.0,0.0023
1481.0,0.0023
1480.0,0.0023
1479.0,0.0023
1478.0,0.0023
1477.0,0.0023
1476.0,0.0023
1475.0,0.0023
1474.0,0.0023
1473.0,0.0023
1472.0,0.0023
1471.0,0.0022
1470.0,0.0021
1469.0,0.0021
1468.0,0.0021
1467.0,0.0021
1466.0,0.0021
1465.0,0.0022
1464.0,0.0021
1463.0,0.0021
1462.0,0.0021
1461.0,0.0021
1460.0,0.0022
1459.0,0.0023
1458.0,0.0025
1457.0,0.0029
1456.0,0.003
1455.0,0.003
1454.0,0.003
1453.0,0.003
1452.0,0.003
1451.0,0.0031
1450.0,0.0031
1449.0,0.0031
1448.0,0.0031
1447.0,0.0031
1446.0,0.0031
1445.0,0.0031
1444.0,0.0031
1443.0,0.0031
1442.0,0.0031
1441.0,0.0032
1440.0,0.0032
1439.0,0.0032
1438.0,0.0032
1437.0,0.0032
1436.0,0.0032
1435.0,0.0031
1434.0,0.003
1433.0,0.0029
1432.0,0.0029
1431.0,0.0028
1430.0,0.0027
1429.0,0.0025
1428.0,0.0024
1427.0,0.0023
1426.0,0.0022
1425.0,0.0021
1424.0,0.002
1423.0,0.0019
1422.0,0.0019
1421.0,0.0018
1420.0,0.0018
1419.0,0.0017
1418.0,0.0017
1417.0,0.0016
1416.0,0.0017
1415.0,0.0019
1414.0,0.0022
1413.0,0.0027
1412.0,0.0034
1411.0,0.0041
1410.0,0.0047
1409.0,0.0052
1408.0,0.0055
1407.0,0.0056
1406.0,0.0056
1405.0,0.0054
1404.0,0.0052
1403.0,0.005
1402.0,0.0048
1401.0,0.0046
1400.0,0.0044
1399.0,0.0042
1398.0,0.004
1397.0,0.0038
1396.0,0.0037
1395.0,0.0035
1394.0,0.0033
1393.0,0.0031
1392.0,0.003
1391.0,0.0029
1390.0,0.0028
1389.0,0.0027
1388.0,0.0026
1387.0,0.0025
1386.0,0.0024
1385.0,0.0022
1384.0,0.0021
1383.0,0.002
1382.0,0.002
1381.0,0.0019
1380.0,0.0019
1379.0,0.0019
1378.0,0.0019
1377.0,0.0019
1376.0,0.002
1375.0,0.0021
1374.0,0.0023
1373.0,0.0024
1372.0,0.0025
1371.0,0.0026
1370.0,0.0028
1369.0,0.0028
1368.0,0.0029
1367.0,0.0028
1366.0,0.0027
1365.0,0.0027
1364.0,0.0026
1363.0,0.0025
1362.0,0.0024
1361.0,0.0023
1360.0,0.0021
1359.0,0.002
1358.0,0.0018
1357.0,0.0016
1356.0,0.0015
1355.0,0.0014
1354.0,0.0014
1353.0,0.0014
1352.0,0.0013
1351.0,0.0012
1350.0,0.0011
1349.0,0.0011
1348.0,0.0011
1347.0,0.0011
1346.0,0.0012
1345.0,0.0013
1344.0,0.0014
1343.0,0.0015
1342.0,0.0016
1341.0,0.0018
1340.0,0.0019
1339.0,0.0019
1338.0,0.0018
1337.0,0.0016
1336.0,0.0014
1335.0,0.0013
1334.0,0.0011
1333.0,0.0009
1332.0,0.0007
1331.0,0.0005
1330.0,0.0003
1329.0,0.0002
1328.0,0.0
1327.0,-0.0001
1326.0,-0.0002
1325.0,-0.0002
1324.0,-0.0002
1323.0,-0.0002
1322.0,-0.0002
1321.0,-0.0002
1320.0,-0.0002
1319.0,-0.0002
1318.0,-0.0002
1317.0,-0.0002
1316.0,-0.0001
1315.0,-0.0
1314.0,0.0001
1313.0,0.0002
1312.0,0.0003
1311.0,0.0004
1310.0,0.0005
1309.0,0.0006
1308.0,0.0007
1307.0,0.0008
1306.0,0.0009
1305.0,0.0011
1304.0,0.0012
1303.0,0.0014
1302.0,0.0016
1301.0,0.0018
1300.0,0.0021
1299.0,0.0026
1298.0,0.003
1297.0,0.0036
1296.0,0.0041
1295.0,0.0046
1294.0,0.0051
1293.0,0.0056
1292.0,0.0061
1291.0,0.0065
1290.0,0.007
1289.0,0.0075
1288.0,0.0079
1287.0,0.0083
1286.0,0.0087
1285.0,0.0091
1284.0,0.0094
1283.0,0.0096
1282.0,0.0098
1281.0,0.01
1280.0,0.0101
1279.0,0.0103
1278.0,0.0104
1277.0,0.0106
1276.0,0.0107
1275.0,0.0109
1274.0,0.0112
1273.0,0.0115
1272.0,0.012
1271.0,0.0125
1270.0,0.0131
1269.0,0.0137
1268.0,0.0143
1267.0,0.0149
1266.0,0.0155
1265.0,0.0161
1264.0,0.0166
1263.0,0.017
1262.0,0.0174
1261.0,0.0178
1260.0,0.0182
1259.0,0.0184
1258.0,0.0186
1257.0,0.0188
1256.0,0.019
1255.0,0.0191
1254.0,0.0192
1253.0,0.0194
1252.0,0.0196
1251.0,0.0199
1250.0,0.0202
1249.0,0.0206
1248.0,0.0211
1247.0,0.0215
1246.0,0.022
1245.0,0.0224
1244.0,0.0229
1243.0,0.0234
1242.0,0.0238
1241.0,0.0242
1240.0,0.0245
1239.0,0.0249
1238.0,0.0251
1237.0,0.0253
1236.0,0.0254
1235.0,0.0253
1234.0,0.0252
1233.0,0.025
1232.0,0.0247
1231.0,0.0245
1230.0,0.0242
1229.0,0.0238
1228.0,0.0235
1227.0,0.0231
1226.0,0.0227
1225.0,0.0223
1224.0,0.0219
1223.0,0.0215
1222.0,0.0212
1221.0,0.0208
1220.0,0.0205
1219.0,0.0201
1218.0,0.0198
1217.0,0.0195
1216.0,0.0191
1215.0,0.0188
1214.0,0.0186
1213.0,0.0183
1212.0,0.018
1211.0,0.0177
1210.0,0.0174
1209.0,0.0172
1208.0,0.0169
1207.0,0.0167
1206.0,0.0165
1205.0,0.0163
1204.0,0.0161
1203.0,0.0159
1202.0,0.0157
1201.0,0.0154
1200.0,0.0152
1199.0,0.015
1198.0,0.0148
1197.0,0.0146
1196.0,0.0145
1195.0,0.0142
1194.0,0.014
1193.0,0.0137
1192.0,0.0134
1191.0,0.0132
1190.0,0.013
1189.0,0.0128
1188.0,0.0126
1187.0,0.0125
1186.0,0.0123
1185.0,0.0121
1184.0,0.0119
1183.0,0.0118
1182.0,0.0117
1181.0,0.0116
1180.0,0.0116
1179.0,0.0115
1178.0,0.0115
1177.0,0.0114
1176.0,0.0114
1175.0,0.0114
1174.0,0.0114
1173.0,0.0113
1172.0,0.0112
1171.0,0.0111
1170.0,0.011
1169.0,0.0108
1168.0,0.0107
1167.0,0.0104
1166.0,0.0101
1165.0,0.0098
1164.0,0.0095
1163.0,0.0092
1162.0,0.009
1161.0,0.0088
1160.0,0.0085
1159.0,0.0083
1158.0,0.0081
1157.0,0.0079
1156.0,0.0077
1155.0,0.0076
1154.0,0.0075
1153.0,0.0074
1152.0,0.0073
1151.0,0.0072
1150.0,0.0071
1149.0,0.0071
1148.0,0.0072
1147.0,0.0073
1146.0,0.0074
1145.0,0.0075
1144.0,0.0077
1143.0,0.0079
1142.0,0.0082
1141.0,0.0085
1140.0,0.0088
1139.0,0.009
1138.0,0.0092
1137.0,0.0094
1136.0,0.0096
1135.0,0.0098
1134.0,0.01
1133.0,0.0102
1132.0,0.0103
1131.0,0.0105
1130.0,0.0108
1129.0,0.0111
1128.0,0.0114
1127.0,0.0119
1126.0,0.0124
1125.0,0.0129
1124.0,0.0135
1123.0,0.0141
1122.0,0.0147
1121.0,0.0153
1120.0,0.0159
1119.0,0.0164
1118.0,0.0167
1117.0,0.0169
1116.0,0.0169
1115.0,0.0169
1114.0,0.0167
1113.0,0.0165
1112.0,0.0163
1111.0,0.0161
1110.0,0.0161
1109.0,0.0163
1108.0,0.0167
1107.0,0.0171
1106.0,0.0177
1105.0,0.0185
1104.0,0.0195
1103.0,0.0206
1102.0,0.0216
1101.0,0.0225
1100.0,0.0234
1099.0,0.0243
1098.0,0.0251
1097.0,0.0258
1096.0,0.0265
1095.0,0.027
1094.0,0.0276
1093.0,0.0281
1092.0,0.0286
1091.0,0.029
1090.0,0.0293
1089.0,0.0295
1088.0,0.0296
1087.0,0.0297
1086.0,0.0297
1085.0,0.0297
1084.0,0.0297
1083.0,0.0297
1082.0,0.0297
1081.0,0.0296
1080.0,0.0295
1079.0,0.0292
1078.0,0.0289
1077.0,0.0286
1076.0,0.0282
1075.0,0.0278
1074.0,0.0274
1073.0,0.027
1072.0,0.0266
1071.0,0.0261
1070.0,0.0256
1069.0,0.0252
1068.0,0.0248
1067.0,0.0245
1066.0,0.0243
1065.0,0.024
1064.0,0.0237
1063.0,0.0235
1062.0,0.0231
1061.0,0.0228
1060.0,0.0226
1059.0,0.0223
1058.0,0.022
1057.0,0.0217
1056.0,0.0215
1055.0,0.0215
1054.0,0.0214
1053.0,0.0214
1052.0,0.0214
1051.0,0.0215
1050.0,0.0215
1049.0,0.0216
1048.0,0.0217
1047.0,0.0219
1046.0,0.022
1045.0,0.0222
1044.0,0.0224
1043.0,0.0226
1042.0,0.0228
1041.0,0.023
1040.0,0.023
1039.0,0.0231
1038.0,0.0231
1037.0,0.0231
1036.0,0.023
1035.0,0.023
1034.0,0.0229
1033.0,0.0228
1032.0,0.0226
1031.0,0.0225
1030.0,0.0224
1029.0,0.0222
1028.0,0.022
1027.0,0.0219
1026.0,0.0217
1025.0,0.0217
1024.0,0.0218
1023.0,0.022
1022.0,0.0225
1021.0,0.0233
1020.0,0.0245
1019.0,0.026
1018.0,0.0276
1017.0,0.029
1016.0,0.0301
1015.0,0.0307
1014.0,0.0306
1013.0,0.0302
1012.0,0.0296
1011.0,0.029
1010.0,0.0285
1009.0,0.0281
1008.0,0.0277
1007.0,0.0272
1006.0,0.0268
1005.0,0.0264
1004.0,0.0261
1003.0,0.0259
1002.0,0.0257
1001.0,0.0256
1000.0,0.0255
999.0,0.0253
998.0,0.0252
997.0,0.025
996.0,0.0249
995.0,0.0248
994.0,0.0248
993.0,0.0246
992.0,0.0245
991.0,0.0243
990.0,0.0242
989.0,0.0242
988.0,0.0242
987.0,0.0242
986.0,0.0242
985.0,0.0241
984.0,0.024
983.0,0.0239
982.0,0.0239
981.0,0.0239
980.0,0.024
979.0,0.024
978.0,0.024
977.0,0.024
976.0,0.0239
975.0,0.0239
974.0,0.0239
973.0,0.024
972.0,0.0241
971.0,0.0241
970.0,0.0241
969.0,0.024
968.0,0.024
967.0,0.0239
966.0,0.0239
965.0,0.0239
964.0,0.0239
963.0,0.0238
962.0,0.0237
961.0,0.0237
960.0,0.0236
959.0,0.0235
958.0,0.0234
957.0,0.0233
956.0,0.0233
955.0,0.0232
954.0,0.0232
953.0,0.0231
952.0,0.0231
951.0,0.023
950.0,0.023
949.0,0.023
948.0,0.0229
947.0,0.0229
946.0,0.0227
945.0,0.0226
944.0,0.0226
943.0,0.0226
942.0,0.0226
941.0,0.0226
940.0,0.0226
939.0,0.0225
938.0,0.0226
937.0,0.0226
936.0,0.0226
935.0,0.0226
934.0,0.0225
933.0,0.0224
932.0,0.0224
931.0,0.0223
930.0,0.0222
929.0,0.0222
928.0,0.0222
927.0,0.0223
926.0,0.0222
925.0,0.0222
924.0,0.022
923.0,0.0218
922.0,0.0217
921.0,0.0216
920.0,0.0215
919.0,0.0215
918.0,0.0215
917.0,0.0215
916.0,0.0215
915.0,0.0215
914.0,0.0214
913.0,0.0213
912.0,0.0212
911.0,0.0212
910.0,0.0212
909.0,0.0212
908.0,0.0213
907.0,0.0214
906.0,0.0215
905.0,0.0216
904.0,0.0218
903.0,0.022
902.0,0.0223
901.0,0.0225
900.0,0.0227
899.0,0.0228
898.0,0.0229
897.0,0.023
896.0,0.0231
895.0,0.0232
894.0,0.0231
893.0,0.023
892.0,0.023
891.0,0.023
890.0,0.0231
889.0,0.023
888.0,0.023
887.0,0.023
886.0,0.023
885.0,0.0232
884.0,0.0233
883.0,0.0235
882.0,0.0237
881.0,0.0239
880.0,0.0243
879.0,0.0247
878.0,0.0252
877.0,0.0259
876.0,0.0266
875.0,0.0273
874.0,0.028
873.0,0.0286
872.0,0.029
871.0,0.0292
870.0,0.0292
869.0,0.0289
868.0,0.0284
867.0,0.028
866.0,0.0278
865.0,0.0276
864.0,0.0274
863.0,0.0272
862.0,0.0269
861.0,0.0266
860.0,0.0264
859.0,0.0263
858.0,0.0263
857.0,0.0262
856.0,0.026
855.0,0.0259
854.0,0.0257
853.0,0.0256
852.0,0.0256
851.0,0.0256
850.0,0.0256
849.0,0.0256
848.0,0.0257
847.0,0.0257
846.0,0.0257
845.0,0.0257
844.0,0.0257
843.0,0.0257
842.0,0.0257
841.0,0.0257
840.0,0.0257
839.0,0.0258
838.0,0.0258
837.0,0.0258
836.0,0.0257
835.0,0.0256
834.0,0.0255
833.0,0.0254
832.0,0.0254
831.0,0.0253
830.0,0.0252
829.0,0.0251
828.0,0.0251
827.0,0.0251
826.0,0.025
825.0,0.025
824.0,0.0248
823.0,0.0246
822.0,0.0245
821.0,0.0245
820.0,0.0247
819.0,0.0248
818.0,0.0248
817.0,0.0247
816.0,0.0245
815.0,0.0244
814.0,0.0243
813.0,0.0243
812.0,0.0243
811.0,0.0242
810.0,0.0241
809.0,0.024
808.0,0.0238
807.0,0.0237
806.0,0.0236
805.0,0.0237
804.0,0.0238
803.0,0.0239
802.0,0.0239
801.0,0.0238
800.0,0.0237
799.0,0.0237
798.0,0.0238
797.0,0.024
796.0,0.0243
795.0,0.0246
794.0,0.0249
793.0,0.025
792.0,0.025
791.0,0.0249
790.0,0.0248
789.0,0.0246
788.0,0.0244
787.0,0.0241
786.0,0.0239
785.0,0.0238
784.0,0.0237
783.0,0.0235
782.0,0.0233
781.0,0.023
780.0,0.0226
779.0,0.0222
778.0,0.0219
777.0,0.0216
776.0,0.0214
775.0,0.0212
774.0,0.0211
773.0,0.021
772.0,0.0209
771.0,0.0206
770.0,0.0202
769.0,0.0199
768.0,0.0196
767.0,0.0193
766.0,0.0191
765.0,0.0188
764.0,0.0187
763.0,0.0186
762.0,0.0185
761.0,0.0181
760.0,0.0177
759.0,0.0172
758.0,0.0169
757.0,0.0167
756.0,0.0164
755.0,0.0161
754.0,0.0156
753.0,0.015
752.0,0.0143
751.0,0.0138
750.0,0.0133
749.0,0.0129
748.0,0.0126
747.0,0.0122
746.0,0.0117
745.0,0.0112
744.0,0.0106
743.0,0.0102
742.0,0.01
741.0,0.0105
740.0,0.0117
739.0,0.0135
738.0,0.0156
737.0,0.0181
736.0,0.0208
735.0,0.0235
734.0,0.0263
733.0,0.0293
732.0,0.0325
731.0,0.0359
730.0,0.0393
729.0,0.0429
728.0,0.0463
727.0,0.0496
726.0,0.0523
725.0,0.0545
724.0,0.0557
723.0,0.0559
722.0,0.055
721.0,0.0534
720.0,0.0511
719.0,0.0486
718.0,0.046
717.0,0.0437
716.0,0.0418
715.0,0.0401
714.0,0.0385
713.0,0.0371
712.0,0.0363
711.0,0.0359
710.0,0.0358
709.0,0.0356
708.0,0.0352
707.0,0.0346
706.0,0.0339
705.0,0.0332
704.0,0.0328
703.0,0.0326
702.0,0.0325
701.0,0.0323
700.0,0.032
699.0,0.0314
698.0,0.0307
697.0,0.03
696.0,0.0297
695.0,0.0296
694.0,0.0295
693.0,0.0295
692.0,0.0294
691.0,0.0292
690.0,0.0287
689.0,0.0279
688.0,0.0268
687.0,0.026
686.0,0.0256
685.0,0.026
684.0,0.027
683.0,0.0281
682.0,0.0289
681.0,0.0292
680.0,0.0292
679.0,0.0291
678.0,0.0291
677.0,0.0292
676.0,0.0291
675.0,0.0288
674.0,0.0287
673.0,0.0288
672.0,0.0287
671.0,0.0284
670.0,0.0282
669.0,0.029
668.0,0.031
667.0,0.0316
666.0,0.0305
665.0,0.0294
664.0,0.0288
663.0,0.0286
662.0,0.0286
661.0,0.0288
660.0,0.0292
659.0,0.0297
658.0,0.0301
657.0,0.0303
656.0,0.0307
655.0,0.0313
654.0,0.0319
653.0,0.0324
652.0,0.0327
651.0,0.0328
650.0,0.0329
649.0,0.0329
648.0,0.0331
647.0,0.0333
646.0,0.0337
645.0,0.0342
644.0,0.0345
643.0,0.0347
642.0,0.0347
641.0,0.0351
640.0,0.0358
639.0,0.0365
638.0,0.0371
637.0,0.0377
636.0,0.0385
635.0,0.0395
634.0,0.0404
633.0,0.0411
632.0,0.0414
631.0,0.0412
630.0,0.0408
629.0,0.0409
628.0,0.0417
627.0,0.0425
626.0,0.0428
625.0,0.0428
624.0,0.0431
623.0,0.0438
622.0,0.0449
621.0,0.0462
620.0,0.0473
619.0,0.0478
618.0,0.0479
617.0,0.0485
616.0,0.05
615.0,0.0513
614.0,0.0514
613.0,0.0505
612.0,0.0494
611.0,0.0487
610.0,0.0486
609.0,0.0488
608.0,0.0492
607.0,0.0497
606.0,0.0501
605.0,0.0504
604.0,0.0507
603.0,0.0503
602.0,0.0495
601.0,0.0489
600.0,0.049
