nm,Intensity
791.588,20565.6
791.862,20730.5
792.136,20530.5
792.411,20467.5
792.685,20576.3
792.959,21162.4
793.233,20954.4
793.507,20674.9
793.781,20779.6
794.056,20836.8
794.33,20736.7
794.604,20799.9
794.878,20838.2
795.152,20931.9
795.426,21039.9
795.701,20958.1
795.975,21009.7
796.249,20811.2
796.523,20788.6
796.797,20862.9
797.071,20811.3
797.345,20940.4
797.619,21050.6
797.894,21200.2
798.168,20794.7
798.442,20854.7
798.716,20889.1
798.99,20516.7
799.264,20833.2
799.538,20877.6
799.812,20930.0
800.086,21036.8
800.36,20871.8
800.634,20625.5
800.908,20888.2
801.182,20663.3
801.456,20767.6
801.73,20887.3
802.004,20771.5
802.278,20683.0
802.552,20611.5
802.826,20566.1
803.1,20779.2
803.374,21025.3
803.648,20371.6
803.922,20421.5
804.196,20432.6
804.47,20761.2
804.744,20881.5
805.018,20857.9
805.292,20563.0
805.566,20654.5
805.84,20491.2
806.114,20645.2
806.388,20598.6
806.662,20693.3
806.936,20426.0
807.209,20121.8
807.483,20362.5
807.757,20587.6
808.031,20351.5
808.305,20257.2
808.579,20466.5
808.853,20213.7
809.127,20246.2
809.4,20229.2
809.674,20458.3
809.948,20254.6
810.222,20188.0
810.496,19931.0
810.77,19992.3
811.043,20169.2
811.317,20049.8
811.591,19928.6
811.865,20220.7
812.139,20073.4
812.412,19886.9
812.686,19998.2
812.96,20127.3
813.234,20021.6
813.507,19763.7
813.781,20122.7
814.055,20129.6
814.329,19403.8
814.602,19540.1
814.876,19432.1
815.15,19514.4
815.424,19777.0
815.697,19321.2
815.971,19487.3
816.245,19466.4
816.518,19589.0
816.792,19371.9
817.066,19090.7
817.34,19183.9
817.613,19431.3
817.887,19027.0
818.161,19183.8
818.434,18950.2
818.708,19140.0
818.981,18998.2
819.255,18862.6
819.529,18850.3
819.802,18947.6
820.076,18927.1
820.35,18670.7
820.623,18872.5
820.897,18866.6
821.17,18453.5
821.444,18589.1
821.718,18300.6
821.991,18448.5
822.265,18301.7
822.538,18408.3
822.812,18268.2
823.085,18140.5
823.359,18115.8
823.632,18190.1
823.906,18236.4
824.18,18194.0
824.453,17980.9
824.727,17815.9
825.0,17891.3
825.274,18033.7
825.547,17850.5
825.821,17718.7
826.094,17941.5
826.367,17803.3
826.641,17505.2
826.914,17406.2
827.188,17405.9
827.461,17733.5
827.735,17505.0
828.008,17278.9
828.282,17322.2
828.555,17232.8
828.828,17204.4
829.102,17149.1
829.375,17130.2
829.649,17182.4
829.922,16991.9
830.195,16840.0
830.469,16996.9
830.742,17069.5
831.016,17118.0
831.289,16993.2
831.562,16842.2
831.836,16801.1
832.109,16679.7
832.382,16429.6
832.656,16673.7
832.929,16646.2
833.202,16505.7
833.476,16792.9
833.749,16488.4
834.022,16422.3
834.295,16247.2
834.569,16288.5
834.842,16440.8
835.115,16095.2
835.388,16141.5
835.662,16171.1
835.935,16160.5
836.208,16212.3
836.481,16009.8
836.755,16136.3
837.028,15918.9
837.301,15906.0
837.574,15839.0
837.848,15709.9
838.121,15919.0
838.394,16108.5
838.667,16012.3
838.94,15775.3
839.213,15640.0
839.487,15695.5
839.76,15337.9
840.033,15320.8
840.306,15384.4
840.579,15443.5
840.852,15546.6
841.125,15361.9
841.399,15279.8
841.672,15220.7
841.945,15543.9
842.218,15410.6
842.491,15356.8
842.764,15116.7
843.037,15175.7
843.31,15225.2
843.583,15055.6
843.856,15098.1
844.129,15058.6
844.402,15111.0
844.675,15151.4
844.948,15129.6
845.221,14807.7
845.495,14581.6
845.768,14568.2
846.041,14734.1
846.314,14674.0
846.586,14913.2
846.859,14705.8
847.132,14700.7
847.405,14839.3
847.678,14565.9
847.951,14405.5
848.224,14322.9
848.497,14472.6
848.77,14506.1
849.043,14515.9
849.316,14364.1
849.589,14278.6
849.862,14311.2
850.135,14265.9
850.408,14153.1
850.681,14046.6
850.953,14096.1
851.226,14136.3
851.499,14150.3
851.772,14169.9
852.045,14017.9
852.318,13965.7
852.591,14089.3
852.863,13949.2
853.136,14063.2
853.409,13698.1
853.682,13720.7
853.955,13879.4
854.227,13700.8
854.5,13476.1
854.773,13719.4
855.046,13701.4
855.318,13571.5
855.591,13481.3
855.864,13551.9
856.137,13482.5
856.409,13165.3
856.682,13280.9
856.955,13395.6
857.228,13228.6
857.5,13443.5
857.773,13271.9
858.046,13251.0
858.318,13132.8
858.591,13218.4
858.864,13167.9
859.137,13063.9
859.409,13028.4
859.682,13024.4
859.954,12949.1
860.227,12907.6
860.5,13119.8
860.772,12871.5
861.045,12867.9
861.318,12805.0
861.59,12731.8
861.863,12683.9
862.135,12777.6
862.408,12602.4
862.681,12438.5
862.953,12524.7
863.226,12585.7
863.498,12553.8
863.771,12485.4
864.043,12591.8
864.316,12412.0
864.588,12334.3
864.861,12270.8
865.133,12135.8
865.406,12157.9
865.678,12298.6
865.951,12286.0
866.223,12180.3
866.496,12134.2
866.768,11978.7
867.041,12005.6
867.313,11936.3
867.586,12004.8
867.858,11907.9
868.131,11910.3
868.403,11811.8
868.675,11796.9
868.948,11952.2
869.22,11745.1
869.493,11760.4
869.765,11855.7
870.037,11701.0
870.31,11562.4
870.582,11513.4
870.854,11555.5
871.127,11525.2
871.399,11604.6
871.672,11463.5
871.944,11415.4
872.216,11457.5
872.488,11423.7
872.761,11424.1
873.033,11277.7
873.305,11306.3
873.578,11163.9
873.85,11046.9
874.122,11127.2
874.394,11105.1
874.667,11251.4
874.939,11161.9
875.211,11223.4
875.483,11046.2
875.756,11012.0
876.028,10886.1
876.3,10882.1
876.572,10905.1
876.845,10979.7
877.117,10888.3
877.389,10790.8
877.661,10644.2
877.933,10567.6
878.205,10696.9
878.478,10676.0
878.75,10725.2
879.022,10685.5
879.294,10498.8
879.566,10510.7
879.838,10536.3
880.11,10535.9
880.382,10473.2
880.654,10357.6
880.927,10370.0
881.199,10318.3
881.471,10250.6
881.743,10269.3
882.015,10305.3
882.287,10317.9
882.559,10210.3
882.831,10156.3
883.103,10068.2
883.375,10153.1
883.647,10055.0
883.919,10054.0
884.191,10021.2
884.463,10051.8
884.735,9993.7
885.007,9902.9
885.279,9710.54
885.551,9743.48
885.823,9774.26
886.095,9743.6
886.367,9726.54
886.639,9672.78
886.91,9667.94
887.182,9686.94
887.454,9708.06
887.726,9690.12
887.998,9564.54
888.27,9597.1
888.542,9473.94
888.814,9424.28
889.085,9478.06
889.357,9367.92
889.629,9491.6
889.901,9559.94
890.173,9386.78
890.445,9441.12
890.716,9336.72
890.988,9269.54
891.26,9215.08
891.532,9065.94
891.804,9118.28
892.075,9181.12
892.347,9111.58
892.619,9032.72
892.891,8924.76
893.162,8975.12
893.434,8946.46
893.706,9004.9
893.978,8879.52
894.249,8776.82
894.521,8863.46
894.793,8765.68
895.064,8784.16
895.336,8791.76
895.608,8791.16
895.879,8722.3
896.151,8672.52
896.423,8606.7
896.694,8609.96
896.966,8673.6
897.237,8606.96
897.509,8593.12
897.781,8555.22
898.052,8535.38
898.324,8504.58
898.595,8452.84
898.867,8355.62
899.139,8393.18
899.41,8383.02
899.682,8359.34
899.953,8360.18
900.225,8380.38
900.496,8351.0
900.768,8311.9
901.039,8259.72
901.311,8211.6
901.582,8157.68
901.854,8054.1
902.125,8075.08
902.397,8119.08
902.668,8115.18
902.94,8029.58
903.211,8057.4
903.482,8076.52
903.754,7954.28
904.025,7977.62
904.297,8024.86
904.568,7977.78
904.839,7904.66
905.111,7948.86
905.382,7927.56
905.654,7862.74
905.925,7697.1
906.196,7702.02
906.468,7698.44
906.739,7673.38
907.01,7624.16
907.282,7647.3
907.553,7650.76
907.824,7632.68
908.096,7587.08
908.367,7515.68
908.638,7490.9
908.909,7523.44
909.181,7637.62
909.452,7490.58
909.723,7473.28
909.994,7339.56
910.266,7377.16
910.537,7422.82
910.808,7462.4
911.079,7464.66
911.35,7351.8
911.622,7368.16
911.893,7347.1
912.164,7307.98
912.435,7329.74
912.706,7228.1
912.977,7184.6
913.249,7146.6
913.52,7128.98
913.791,7057.24
914.062,7002.96
914.333,7026.66
914.604,7070.9
914.875,7011.8
915.146,6990.68
915.417,7025.34
915.688,6991.56
915.959,6983.1
916.231,6968.6
916.502,6919.5
916.773,6928.7
917.044,6897.72
917.315,6886.84
917.586,6909.28
917.857,6827.68
918.128,6779.48
918.399,6715.5
918.67,6712.74
918.941,6736.5
919.211,6722.3
919.482,6696.04
919.753,6627.42
920.024,6630.84
920.295,6672.58
920.566,6675.48
920.837,6654.86
921.108,6617.32
921.379,6608.46
921.65,6506.34
921.921,6432.98
922.191,6456.72
922.462,6460.5
922.733,6511.54
923.004,6452.32
923.275,6431.06
923.546,6402.0
923.816,6349.44
924.087,6353.98
924.358,6316.2
924.629,6365.7
924.9,6312.64
925.17,6218.58
925.441,6227.22
925.712,6263.32
925.983,6260.3
926.253,6215.56
926.524,6192.36
926.795,6172.94
927.065,6125.08
927.336,6117.7
927.607,6127.12
927.877,6086.74
928.148,6081.16
928.419,6049.18
928.689,6062.62
928.96,6005.48
929.231,6005.06
929.501,5965.72
929.772,5934.74
930.043,5913.88
930.313,5904.36
930.584,5938.06
930.854,5902.94
931.125,5850.46
931.396,5852.76
931.666,5820.06
931.937,5811.28
932.207,5796.26
932.478,5804.02
932.748,5770.0
933.019,5727.44
933.289,5691.94
933.56,5677.54
933.83,5696.18
934.101,5676.3
934.371,5666.98
934.642,5631.3
934.912,5605.5
935.183,5590.1
935.453,5604.4
935.723,5572.8
935.994,5540.28
936.264,5525.7
936.535,5509.46
936.805,5497.2
937.075,5493.26
937.346,5505.94
937.616,5507.24
937.886,5516.62
938.157,5476.6
938.427,5452.44
938.697,5405.36
938.968,5398.1
939.238,5388.7
939.508,5426.84
939.779,5369.34
940.049,5336.68
940.319,5305.6
940.59,5345.08
940.86,5320.68
941.13,5313.82
941.4,5337.42
941.671,5318.26
941.941,5292.18
942.211,5254.02
942.481,5257.66
942.751,5246.64
943.022,5237.38
943.292,5224.6
943.562,5187.32
943.832,5162.48
944.102,5138.5
944.372,5119.5
944.642,5119.86
944.913,5111.84
945.183,5104.6
945.453,5102.4
945.723,5092.22
945.993,5120.48
946.263,5099.32
946.533,5070.38
946.803,5044.06
947.073,5045.78
947.343,5031.76
947.613,4991.08
947.883,4969.52
948.153,4982.54
948.423,4994.02
948.693,4961.36
948.963,4972.66
949.233,4970.34
949.503,4992.02
949.773,4980.1
950.043,4959.66
950.313,4951.1
950.583,4888.6
950.853,4881.2
951.123,4864.78
951.393,4872.94
951.663,4855.54
951.933,4847.62
952.202,4848.08
952.472,4849.74
952.742,4830.68
953.012,4826.78
953.282,4791.82
953.552,4767.46
953.822,4763.06
954.091,4757.4
954.361,4766.48
954.631,4753.4
954.901,4748.64
955.17,4743.06
955.44,4744.96
955.71,4744.58
955.98,4751.54
956.25,4730.12
956.519,4702.68
956.789,4691.24
957.059,4692.28
957.328,4676.82
957.598,4662.54
957.868,4646.34
958.137,4607.0
958.407,4627.28
958.677,4664.62
958.946,4638.24
959.216,4617.9
959.486,4608.82
959.755,4590.64
960.025,4595.66
960.294,4590.32
960.564,4591.24
960.834,4587.04
961.103,4577.72
961.373,4562.74
961.642,4563.22
961.912,4568.84
962.181,4549.22
962.451,4520.06
962.72,4519.74
962.99,4524.14
963.259,4510.46
963.529,4496.86
963.798,4481.94
964.068,4475.48
964.337,4480.04
964.607,4487.72
964.876,4468.6
965.146,4461.04
965.415,4456.48
965.684,4449.82
965.954,4449.28
966.223,4429.86
966.493,4427.28
966.762,4432.54
967.031,4428.18
967.301,4432.74
967.57,4433.58
967.839,4424.16
968.109,4380.72
968.378,4369.54
968.647,4364.58
968.917,4368.74
969.186,4368.54
969.455,4359.72
969.724,4347.82
969.994,4356.96
970.263,4343.34
970.532,4335.42
970.801,4332.38
971.071,4315.18
971.34,4311.1
971.609,4305.24
971.878,4296.8
972.147,4310.72
972.417,4316.54
972.686,4305.86
972.955,4305.44
973.224,4294.7
973.493,4293.02
973.762,4275.86
974.031,4250.88
974.3,4246.44
974.57,4244.12
974.839,4242.3
975.108,4248.22
975.377,4248.1
975.646,4245.24
975.915,4241.78
976.184,4245.4
976.453,4236.44
976.722,4236.78
976.991,4230.42
977.26,4209.3
977.529,4206.04
977.798,4215.44
978.067,4207.14
978.336,4198.52
978.605,4197.22
978.874,4183.76
979.143,4188.1
979.412,4184.66
979.68,4176.18
979.949,4160.44
980.218,4153.92
980.487,4162.28
980.756,4146.5
981.025,4146.0
981.294,4144.16
981.563,4155.56
981.831,4148.66
982.1,4147.24
982.369,4144.02
982.638,4138.6
982.907,4128.38
983.175,4120.24
983.444,4122.52
983.713,4133.24
983.982,4119.6
984.25,4108.02
984.519,4114.68
984.788,4100.3
985.057,4093.86
985.325,4092.04
985.594,4089.22
985.863,4083.98
986.131,4077.74
986.4,4072.98
986.669,4071.9
986.937,4069.36
987.206,4069.44
987.475,4073.2
987.743,4074.66
988.012,4071.1
988.28,4060.0
988.549,4052.74
988.817,4054.14
989.086,4053.84
989.355,4054.58
989.623,4050.12
989.892,4041.72
990.16,4034.6
990.429,4031.12
990.697,4028.52
990.966,4028.84
991.234,4021.52
991.503,4022.88
991.771,4024.66
992.04,4019.24
992.308,4013.6
992.576,4009.76
992.845,4008.66
993.113,4004.06
993.382,4001.44
993.65,4005.64
993.918,4002.2
994.187,3994.84
994.455,3992.12
994.723,3992.82
994.992,3988.34
995.26,3982.0
995.528,3975.06
995.797,3976.92
996.065,3978.58
996.333,3975.76
996.602,3969.68
996.87,3972.38
997.138,3961.52
997.406,3957.34
997.675,3962.28
997.943,3965.28
998.211,3962.52
998.479,3956.44
998.747,3954.3
999.016,3954.82
999.284,3946.2
999.552,3947.38
999.82,3941.36
1000.09,3937.36
1000.36,3939.88
1000.62,3937.12
1000.89,3937.24
1001.16,3932.9
1001.43,3929.34
1001.7,3924.44
1001.97,3923.52
1002.23,3924.72
1002.5,3920.46
1002.77,3919.02
1003.04,3916.52
1003.31,3915.86
1003.57,3913.24
1003.84,3907.4
1004.11,3905.24
1004.38,3904.4
1004.65,3905.18
1004.91,3904.5
1005.18,3905.76
1005.45,3897.84
1005.72,3897.88
1005.98,3894.6
1006.25,3885.84
1006.52,3890.98
1006.79,3890.86
1007.06,3892.34
1007.32,3894.98
1007.59,3889.4
1007.86,3887.6
1008.13,3884.42
1008.4,3878.64
1008.66,3876.04
1008.93,3875.08
1009.2,3875.96
1009.47,3875.4
1009.73,3873.22
1010.0,3875.9
1010.27,3879.36
1010.54,3873.46
1010.81,3869.2
1011.07,3868.36
1011.34,3866.08
1011.61,3861.94
1011.88,3859.36
1012.14,3862.38
1012.41,3860.84
1012.68,3857.84
1012.95,3855.72
1013.21,3854.82
1013.48,3853.34
1013.75,3850.46
1014.02,3850.64
1014.29,3845.24
1014.55,3844.56
1014.82,3844.6
1015.09,3843.02
1015.36,3843.24
1015.62,3841.78
1015.89,3841.68
1016.16,3838.0
1016.43,3837.2
1016.69,3836.88
1016.96,3833.6
1017.23,3832.64
1017.5,3833.92
1017.76,3836.34
1018.03,3832.98
1018.3,3830.88
1018.57,3827.92
1018.83,3828.6
1019.1,3825.48
1019.37,3825.18
1019.63,3825.48
1019.9,3824.66
1020.17,3822.26
1020.44,3821.28
1020.7,3818.24
1020.97,3816.84
1021.24,3815.78
1021.51,3815.78
1021.77,3814.0
1022.04,3813.58
1022.31,3810.7
1022.58,3810.34
1022.84,3811.98
1023.11,3810.8
1023.38,3809.82
1023.64,3807.52
1023.91,3807.34
1024.18,3805.44
1024.45,3804.82
1024.71,3803.84
1024.98,3801.8
1025.25,3799.96
1025.51,3799.86
1025.78,3801.16
1026.05,3798.24
1026.32,3798.96
1026.58,3798.38
1026.85,3798.12
1027.12,3795.5
1027.38,3795.64
1027.65,3794.08
1027.92,3794.9
1028.19,3794.1
1028.45,3792.88
1028.72,3791.06
1028.99,3790.82
1029.25,3788.3
1029.52,3787.78
1029.79,3787.44
1030.05,3786.4
1030.32,3786.2
1030.59,3786.36
1030.85,3785.48
1031.12,3783.34
1031.39,3783.54
1031.66,3784.72
1031.92,3783.0
1032.19,3783.96
1032.46,3782.26
1032.72,3782.26
1032.99,3780.02
1033.26,3780.82
1033.52,3779.12
1033.79,3779.06
1034.06,3778.36
1034.32,3777.44
1034.59,3776.44
1034.86,3776.7
1035.12,3776.6
1035.39,3774.08
1035.66,3775.32
1035.92,3774.8
1036.19,3774.16
1036.46,3775.1
1036.72,3774.28
1036.99,3773.36
1037.26,3770.44
1037.52,3770.82
1037.79,3771.7
1038.06,3770.36
1038.32,3768.04
1038.59,3768.84
1038.86,3768.08
1039.12,3769.14
1039.39,3768.32
1039.66,3769.78
1039.92,3767.5
1040.19,3767.48
1040.46,3767.16
1040.72,3764.46
1040.99,3765.64
1041.26,3764.66
1041.52,3762.72
1041.79,3765.1
1042.06,3764.02
1042.32,3763.9
1042.59,3763.36
1042.86,3764.36
1043.12,3761.16
1043.39,3762.52
1043.65,3762.0
1043.92,3760.82
1044.19,3760.92
1044.45,3759.08
1044.72,3760.3
1044.99,3759.42
1045.25,3758.6
1045.52,3757.84
1045.79,3758.58
1046.05,3757.4
1046.32,3757.26
1046.58,3756.96
1046.85,3758.48
1047.12,3758.12
1047.38,3757.66
1047.65,3758.36
1047.92,3757.08
1048.18,3755.0
1048.45,3757.12
1048.71,3754.92
1048.98,3754.24
1049.25,3755.34
1049.51,3754.46
1049.78,3753.82
1050.04,3754.22
1050.31,3755.24
1050.58,3754.22
1050.84,3754.74
1051.11,3753.84
1051.37,3753.9
1051.64,3753.32
1051.91,3753.42
1052.17,3754.22
1052.44,3753.38
1052.7,3753.6
1052.97,3752.28
1053.24,3752.2
1053.5,3752.78
1053.77,3751.36
1054.03,3752.24
1054.3,3750.62
1054.57,3750.58
1054.83,3751.22
1055.1,3751.16
1055.36,3750.38
1055.63,3751.36
1055.9,3750.58
1056.16,3750.8
1056.43,3750.5
1056.69,3749.9
1056.96,3748.96
1057.23,3749.54
1057.49,3750.28
1057.76,3749.54
1058.02,3749.52
1058.29,3749.66
1058.55,3748.66
1058.82,3748.26
1059.09,3748.62
1059.35,3747.9
1059.62,3748.5
1059.88,3747.68
1060.15,3748.08
1060.41,3748.26
1060.68,3747.34
1060.95,3747.74
1061.21,3746.72
1061.48,3747.56
1061.74,3747.3
1062.01,3747.86
1062.27,3746.84
1062.54,3747.42
1062.8,3747.08
1063.07,3747.82
1063.34,3746.28
1063.6,3746.5
1063.87,3744.5
1064.13,3747.02
1064.4,3746.74
1064.66,3745.7
1064.93,3745.0
1065.19,3746.06
1065.46,3745.2
1065.73,3745.8
1065.99,3744.38
1066.26,3745.18
1066.52,3744.78
1066.79,3745.28
1067.05,3744.0
1067.32,3744.04
1067.58,3744.06
1067.85,3744.46
1068.11,3743.66
