cm-1,A
4000.0,0.002
3999.0,0.002
3998.0,0.0021
3997.0,0.0021
3996.0,0.0021
3995.0,0.0021
3994.0,0.002
3993.0,0.002
3992.0,0.002
3991.0,0.002
3990.0,0.002
3989.0,0.0021
3988.0,0.0021
3987.0,0.0021
3986.0,0.0021
3985.0,0.002
3984.0,0.002
3983.0,0.002
3982.0,0.0019
3981.0,0.0019
3980.0,0.0019
3979.0,0.0019
3978.0,0.002
3977.0,0.002
3976.0,0.002
3975.0,0.002
3974.0,0.0019
3973.0,0.0019
3972.0,0.0019
3971.0,0.002
3970.0,0.002
3969.0,0.002
3968.0,0.002
3967.0,0.002
3966.0,0.002
3965.0,0.0021
3964.0,0.0021
3963.0,0.0021
3962.0,0.0021
3961.0,0.0021
3960.0,0.0021
3959.0,0.0021
3958.0,0.002
3957.0,0.0019
3956.0,0.0018
3955.0,0.0018
3954.0,0.0019
3953.0,0.0019
3952.0,0.002
3951.0,0.0021
3950.0,0.0022
3949.0,0.0022
3948.0,0.0023
3947.0,0.0022
3946.0,0.0022
3945.0,0.002
3944.0,0.0019
3943.0,0.0019
3942.0,0.002
3941.0,0.0021
3940.0,0.0022
3939.0,0.0022
3938.0,0.0022
3937.0,0.0021
3936.0,0.002
3935.0,0.002
3934.0,0.0019
3933.0,0.002
3932.0,0.002
3931.0,0.0021
3930.0,0.0022
3929.0,0.0022
3928.0,0.0022
3927.0,0.0023
3926.0,0.0023
3925.0,0.0023
3924.0,0.0022
3923.0,0.0021
3922.0,0.0021
3921.0,0.0022
3920.0,0.0022
3919.0,0.0022
3918.0,0.0022
3917.0,0.0022
3916.0,0.0021
3915.0,0.002
3914.0,0.0019
3913.0,0.0019
3912.0,0.0018
3911.0,0.0018
3910.0,0.0018
3909.0,0.0019
3908.0,0.0019
3907.0,0.0019
3906.0,0.002
3905.0,0.0021
3904.0,0.0023
3903.0,0.0023
3902.0,0.0023
3901.0,0.0022
3900.0,0.0021
3899.0,0.0021
3898.0,0.0021
3897.0,0.002
3896.0,0.002
3895.0,0.002
3894.0,0.002
3893.0,0.0021
3892.0,0.0021
3891.0,0.0021
3890.0,0.0021
3889.0,0.0021
3888.0,0.0021
3887.0,0.0021
3886.0,0.0022
3885.0,0.0023
3884.0,0.0024
3883.0,0.0024
3882.0,0.0024
3881.0,0.0024
3880.0,0.0023
3879.0,0.0023
3878.0,0.0024
3877.0,0.0024
3876.0,0.0023
3875.0,0.0023
3874.0,0.0022
3873.0,0.0022
3872.0,0.0022
3871.0,0.0023
3870.0,0.0024
3869.0,0.0024
3868.0,0.0024
3867.0,0.0024
3866.0,0.0024
3865.0,0.0025
3864.0,0.0026
3863.0,0.0026
3862.0,0.0026
3861.0,0.0024
3860.0,0.0023
3859.0,0.0022
3858.0,0.0021
3857.0,0.002
3856.0,0.002
3855.0,0.0021
3854.0,0.0021
3853.0,0.002
3852.0,0.002
3851.0,0.0021
3850.0,0.0022
3849.0,0.0022
3848.0,0.0022
3847.0,0.0022
3846.0,0.0023
3845.0,0.0023
3844.0,0.0023
3843.0,0.0023
3842.0,0.0022
3841.0,0.0021
3840.0,0.002
3839.0,0.0019
3838.0,0.002
3837.0,0.0021
3836.0,0.0022
3835.0,0.0023
3834.0,0.0023
3833.0,0.0023
3832.0,0.0022
3831.0,0.0023
3830.0,0.0024
3829.0,0.0025
3828.0,0.0026
3827.0,0.0026
3826.0,0.0026
3825.0,0.0026
3824.0,0.0026
3823.0,0.0027
3822.0,0.0028
3821.0,0.0028
3820.0,0.0027
3819.0,0.0025
3818.0,0.0023
3817.0,0.0021
3816.0,0.002
3815.0,0.002
3814.0,0.0021
3813.0,0.0022
3812.0,0.0023
3811.0,0.0024
3810.0,0.0024
3809.0,0.0024
3808.0,0.0024
3807.0,0.0024
3806.0,0.0023
3805.0,0.0023
3804.0,0.0023
3803.0,0.0023
3802.0,0.0024
3801.0,0.0025
3800.0,0.0025
3799.0,0.0026
3798.0,0.0026
3797.0,0.0026
3796.0,0.0025
3795.0,0.0025
3794.0,0.0024
3793.0,0.0024
3792.0,0.0024
3791.0,0.0024
3790.0,0.0024
3789.0,0.0024
3788.0,0.0025
3787.0,0.0025
3786.0,0.0025
3785.0,0.0026
3784.0,0.0026
3783.0,0.0026
3782.0,0.0026
3781.0,0.0026
3780.0,0.0026
3779.0,0.0025
3778.0,0.0025
3777.0,0.0024
3776.0,0.0024
3775.0,0.0024
3774.0,0.0024
3773.0,0.0024
3772.0,0.0024
3771.0,0.0024
3770.0,0.0024
3769.0,0.0024
3768.0,0.0024
3767.0,0.0024
3766.0,0.0024
3765.0,0.0024
3764.0,0.0025
3763.0,0.0025
3762.0,0.0025
3761.0,0.0026
3760.0,0.0026
3759.0,0.0026
3758.0,0.0025
3757.0,0.0025
3756.0,0.0024
3755.0,0.0023
3754.0,0.0023
3753.0,0.0022
3752.0,0.0021
3751.0,0.002
3750.0,0.002
3749.0,0.002
3748.0,0.0021
3747.0,0.0021
3746.0,0.0021
3745.0,0.0021
3744.0,0.002
3743.0,0.0021
3742.0,0.0022
3741.0,0.0023
3740.0,0.0023
3739.0,0.0024
3738.0,0.0024
3737.0,0.0024
3736.0,0.0024
3735.0,0.0023
3734.0,0.0022
3733.0,0.002
3732.0,0.0019
3731.0,0.0019
3730.0,0.0019
3729.0,0.0019
3728.0,0.0019
3727.0,0.0019
3726.0,0.0019
3725.0,0.002
3724.0,0.0021
3723.0,0.002
3722.0,0.002
3721.0,0.002
3720.0,0.002
3719.0,0.0021
3718.0,0.0022
3717.0,0.0023
3716.0,0.0022
3715.0,0.0022
3714.0,0.0021
3713.0,0.0021
3712.0,0.0021
3711.0,0.0022
3710.0,0.0022
3709.0,0.0021
3708.0,0.0021
3707.0,0.002
3706.0,0.002
3705.0,0.002
3704.0,0.002
3703.0,0.002
3702.0,0.002
3701.0,0.0019
3700.0,0.0019
3699.0,0.0018
3698.0,0.0018
3697.0,0.0018
3696.0,0.0017
3695.0,0.0016
3694.0,0.0015
3693.0,0.0015
3692.0,0.0016
3691.0,0.0017
3690.0,0.0018
3689.0,0.0018
3688.0,0.0018
3687.0,0.0018
3686.0,0.0018
3685.0,0.0018
3684.0,0.0017
3683.0,0.0017
3682.0,0.0017
3681.0,0.0017
3680.0,0.0017
3679.0,0.0016
3678.0,0.0016
3677.0,0.0017
3676.0,0.0018
3675.0,0.0019
3674.0,0.0019
3673.0,0.0018
3672.0,0.0017
3671.0,0.0016
3670.0,0.0015
3669.0,0.0015
3668.0,0.0014
3667.0,0.0014
3666.0,0.0013
3665.0,0.0012
3664.0,0.0011
3663.0,0.001
3662.0,0.0009
3661.0,0.0008
3660.0,0.0007
3659.0,0.0005
3658.0,0.0005
3657.0,0.0004
3656.0,0.0004
3655.0,0.0004
3654.0,0.0004
3653.0,0.0003
3652.0,0.0003
3651.0,0.0003
3650.0,0.0003
3649.0,0.0003
3648.0,0.0001
3647.0,-0.0
3646.0,-0.0002
3645.0,-0.0003
3644.0,-0.0004
3643.0,-0.0006
3642.0,-0.0009
3641.0,-0.001
3640.0,-0.0012
3639.0,-0.0013
3638.0,-0.0014
3637.0,-0.0016
3636.0,-0.0017
3635.0,-0.0019
3634.0,-0.0021
3633.0,-0.0023
3632.0,-0.0025
3631.0,-0.0028
3630.0,-0.003
3629.0,-0.0031
3628.0,-0.0031
3627.0,-0.0032
3626.0,-0.0032
3625.0,-0.0033
3624.0,-0.0034
3623.0,-0.0034
3622.0,-0.0034
3621.0,-0.0034
3620.0,-0.0034
3619.0,-0.0035
3618.0,-0.0035
3617.0,-0.0035
3616.0,-0.0036
3615.0,-0.0037
3614.0,-0.0039
3613.0,-0.0043
3612.0,-0.0047
3611.0,-0.0051
3610.0,-0.0053
3609.0,-0.0055
3608.0,-0.0055
3607.0,-0.0055
3606.0,-0.0056
3605.0,-0.0057
3604.0,-0.0058
3603.0,-0.006
3602.0,-0.0062
3601.0,-0.0064
3600.0,-0.0066
3599.0,-0.0069
3598.0,-0.007
3597.0,-0.0071
3596.0,-0.0072
3595.0,-0.0073
3594.0,-0.0074
3593.0,-0.0076
3592.0,-0.0079
3591.0,-0.0081
3590.0,-0.0083
3589.0,-0.0084
3588.0,-0.0085
3587.0,-0.0086
3586.0,-0.0087
3585.0,-0.0088
3584.0,-0.0089
3583.0,-0.0089
3582.0,-0.009
3581.0,-0.0092
3580.0,-0.0094
3579.0,-0.0096
3578.0,-0.0098
3577.0,-0.01
3576.0,-0.01
3575.0,-0.0101
3574.0,-0.0101
3573.0,-0.0102
3572.0,-0.0104
3571.0,-0.0106
3570.0,-0.0109
3569.0,-0.0111
3568.0,-0.0112
3567.0,-0.0113
3566.0,-0.0114
3565.0,-0.0115
3564.0,-0.0117
3563.0,-0.012
3562.0,-0.0122
3561.0,-0.0124
3560.0,-0.0126
3559.0,-0.0127
3558.0,-0.0128
3557.0,-0.0128
3556.0,-0.0128
3555.0,-0.0129
3554.0,-0.0129
3553.0,-0.013
3552.0,-0.0132
3551.0,-0.0134
3550.0,-0.0136
3549.0,-0.0138
3548.0,-0.014
3547.0,-0.0141
3546.0,-0.0142
3545.0,-0.0143
3544.0,-0.0145
3543.0,-0.0148
3542.0,-0.015
3541.0,-0.0152
3540.0,-0.0154
3539.0,-0.0155
3538.0,-0.0155
3537.0,-0.0156
3536.0,-0.0157
3535.0,-0.016
3534.0,-0.0163
3533.0,-0.0165
3532.0,-0.0167
3531.0,-0.0169
3530.0,-0.017
3529.0,-0.0171
3528.0,-0.0172
3527.0,-0.0173
3526.0,-0.0174
3525.0,-0.0176
3524.0,-0.0178
3523.0,-0.0179
3522.0,-0.0182
3521.0,-0.0184
3520.0,-0.0187
3519.0,-0.019
3518.0,-0.0192
3517.0,-0.0195
3516.0,-0.0196
3515.0,-0.0197
3514.0,-0.0198
3513.0,-0.0199
3512.0,-0.0201
3511.0,-0.0203
3510.0,-0.0205
3509.0,-0.0206
3508.0,-0.0208
3507.0,-0.0208
3506.0,-0.0209
3505.0,-0.021
3504.0,-0.0212
3503.0,-0.0214
3502.0,-0.0218
3501.0,-0.0221
3500.0,-0.0224
3499.0,-0.0227
3498.0,-0.0229
3497.0,-0.023
3496.0,-0.023
3495.0,-0.0232
3494.0,-0.0234
3493.0,-0.0236
3492.0,-0.0237
3491.0,-0.0238
3490.0,-0.0239
3489.0,-0.0241
3488.0,-0.0243
3487.0,-0.0247
3486.0,-0.025
3485.0,-0.0252
3484.0,-0.0254
3483.0,-0.0256
3482.0,-0.0259
3481.0,-0.0261
3480.0,-0.0263
3479.0,-0.0265
3478.0,-0.0267
3477.0,-0.0269
3476.0,-0.0271
3475.0,-0.0273
3474.0,-0.0275
3473.0,-0.0276
3472.0,-0.0277
3471.0,-0.0279
3470.0,-0.0282
3469.0,-0.0284
3468.0,-0.0287
3467.0,-0.0289
3466.0,-0.0292
3465.0,-0.0293
3464.0,-0.0294
3463.0,-0.0295
3462.0,-0.0297
3461.0,-0.0298
3460.0,-0.0301
3459.0,-0.0304
3458.0,-0.0307
3457.0,-0.031
3456.0,-0.0314
3455.0,-0.0317
3454.0,-0.0319
3453.0,-0.032
3452.0,-0.0321
3451.0,-0.0322
3450.0,-0.0324
3449.0,-0.0326
3448.0,-0.0328
3447.0,-0.0331
3446.0,-0.0334
3445.0,-0.0337
3444.0,-0.0339
3443.0,-0.034
3442.0,-0.0341
3441.0,-0.0342
3440.0,-0.0344
3439.0,-0.0346
3438.0,-0.0349
3437.0,-0.0352
3436.0,-0.0354
3435.0,-0.0356
3434.0,-0.0358
3433.0,-0.0361
3432.0,-0.0364
3431.0,-0.0366
3430.0,-0.0368
3429.0,-0.037
3428.0,-0.0372
3427.0,-0.0373
3426.0,-0.0375
3425.0,-0.0377
3424.0,-0.0378
3423.0,-0.038
3422.0,-0.0383
3421.0,-0.0387
3420.0,-0.0391
3419.0,-0.0395
3418.0,-0.0398
3417.0,-0.04
3416.0,-0.04
3415.0,-0.0401
3414.0,-0.0403
3413.0,-0.0406
3412.0,-0.041
3411.0,-0.0413
3410.0,-0.0415
3409.0,-0.0416
3408.0,-0.0418
3407.0,-0.042
3406.0,-0.0422
3405.0,-0.0425
3404.0,-0.0427
3403.0,-0.0429
3402.0,-0.0431
3401.0,-0.0434
3400.0,-0.0437
3399.0,-0.044
3398.0,-0.0442
3397.0,-0.0445
3396.0,-0.0448
3395.0,-0.0451
3394.0,-0.0453
3393.0,-0.0456
3392.0,-0.0459
3391.0,-0.0462
3390.0,-0.0465
3389.0,-0.0466
3388.0,-0.0468
3387.0,-0.0469
3386.0,-0.0471
3385.0,-0.0472
3384.0,-0.0474
3383.0,-0.0477
3382.0,-0.048
3381.0,-0.0483
3380.0,-0.0485
3379.0,-0.0487
3378.0,-0.0489
3377.0,-0.0491
3376.0,-0.0493
3375.0,-0.0495
3374.0,-0.0498
3373.0,-0.0499
3372.0,-0.05
3371.0,-0.0501
3370.0,-0.0502
3369.0,-0.0504
3368.0,-0.0506
3367.0,-0.0509
3366.0,-0.051
3365.0,-0.0511
3364.0,-0.0511
3363.0,-0.051
3362.0,-0.051
3361.0,-0.051
3360.0,-0.0511
3359.0,-0.0512
3358.0,-0.0513
3357.0,-0.0515
3356.0,-0.0516
3355.0,-0.0517
3354.0,-0.0518
3353.0,-0.0518
3352.0,-0.0518
3351.0,-0.0518
3350.0,-0.0519
3349.0,-0.0521
3348.0,-0.0521
3347.0,-0.0521
3346.0,-0.052
3345.0,-0.052
3344.0,-0.052
3343.0,-0.052
3342.0,-0.052
3341.0,-0.0521
3340.0,-0.0521
3339.0,-0.0522
3338.0,-0.0522
3337.0,-0.0522
3336.0,-0.0521
3335.0,-0.0519
3334.0,-0.0517
3333.0,-0.0515
3332.0,-0.0513
3331.0,-0.0512
3330.0,-0.0511
3329.0,-0.0511
3328.0,-0.051
3327.0,-0.051
3326.0,-0.051
3325.0,-0.0511
3324.0,-0.051
3323.0,-0.0509
3322.0,-0.0507
3321.0,-0.0505
3320.0,-0.0504
3319.0,-0.0504
3318.0,-0.0503
3317.0,-0.0502
3316.0,-0.05
3315.0,-0.05
3314.0,-0.0499
3313.0,-0.0498
3312.0,-0.0497
3311.0,-0.0495
3310.0,-0.0493
3309.0,-0.0491
3308.0,-0.049
3307.0,-0.0489
3306.0,-0.0489
3305.0,-0.0488
3304.0,-0.0487
3303.0,-0.0485
3302.0,-0.0483
3301.0,-0.0482
3300.0,-0.048
3299.0,-0.048
3298.0,-0.048
3297.0,-0.048
3296.0,-0.0479
3295.0,-0.0476
3294.0,-0.0473
3293.0,-0.047
3292.0,-0.0468
3291.0,-0.0466
3290.0,-0.0466
3289.0,-0.0465
3288.0,-0.0465
3287.0,-0.0464
3286.0,-0.0463
3285.0,-0.0462
3284.0,-0.046
3283.0,-0.0459
3282.0,-0.0458
3281.0,-0.0457
3280.0,-0.0456
3279.0,-0.0455
3278.0,-0.0454
3277.0,-0.0452
3276.0,-0.0449
3275.0,-0.0447
3274.0,-0.0445
3273.0,-0.0444
3272.0,-0.0443
3271.0,-0.0443
3270.0,-0.0442
3269.0,-0.044
3268.0,-0.0438
3267.0,-0.0437
3266.0,-0.0438
3265.0,-0.0439
3264.0,-0.044
3263.0,-0.0439
3262.0,-0.0437
3261.0,-0.0435
3260.0,-0.0433
3259.0,-0.0432
3258.0,-0.0431
3257.0,-0.043
3256.0,-0.0428
3255.0,-0.0426
3254.0,-0.0425
3253.0,-0.0425
3252.0,-0.0424
3251.0,-0.0423
3250.0,-0.0422
3249.0,-0.0421
3248.0,-0.0418
3247.0,-0.0416
3246.0,-0.0414
3245.0,-0.0413
3244.0,-0.0413
3243.0,-0.0413
3242.0,-0.0413
3241.0,-0.0413
3240.0,-0.0412
3239.0,-0.041
3238.0,-0.0409
3237.0,-0.0407
3236.0,-0.0406
3235.0,-0.0405
3234.0,-0.0404
3233.0,-0.0403
3232.0,-0.0403
3231.0,-0.0401
3230.0,-0.0399
3229.0,-0.0396
3228.0,-0.0393
3227.0,-0.0391
3226.0,-0.039
3225.0,-0.039
3224.0,-0.039
3223.0,-0.0391
3222.0,-0.0391
3221.0,-0.0389
3220.0,-0.0387
3219.0,-0.0384
3218.0,-0.0382
3217.0,-0.038
3216.0,-0.0377
3215.0,-0.0375
3214.0,-0.0373
3213.0,-0.0371
3212.0,-0.037
3211.0,-0.0369
3210.0,-0.0368
3209.0,-0.0367
3208.0,-0.0366
3207.0,-0.0365
3206.0,-0.0364
3205.0,-0.0361
3204.0,-0.0358
3203.0,-0.0354
3202.0,-0.035
3201.0,-0.0347
3200.0,-0.0344
3199.0,-0.0341
3198.0,-0.0339
3197.0,-0.0337
3196.0,-0.0336
3195.0,-0.0336
3194.0,-0.0335
3193.0,-0.0334
3192.0,-0.0332
3191.0,-0.033
3190.0,-0.0327
3189.0,-0.0324
3188.0,-0.0321
3187.0,-0.0318
3186.0,-0.0315
3185.0,-0.0313
3184.0,-0.0312
3183.0,-0.031
3182.0,-0.0308
3181.0,-0.0306
3180.0,-0.0304
3179.0,-0.0301
3178.0,-0.03
3177.0,-0.0298
3176.0,-0.0297
3175.0,-0.0296
3174.0,-0.0294
3173.0,-0.0291
3172.0,-0.0288
3171.0,-0.0286
3170.0,-0.0283
3169.0,-0.0282
3168.0,-0.0281
3167.0,-0.0279
3166.0,-0.0276
3165.0,-0.0273
3164.0,-0.027
3163.0,-0.0267
3162.0,-0.0266
3161.0,-0.0264
3160.0,-0.0262
3159.0,-0.0261
3158.0,-0.0259
3157.0,-0.0256
3156.0,-0.0253
3155.0,-0.025
3154.0,-0.0247
3153.0,-0.0245
3152.0,-0.0244
3151.0,-0.0242
3150.0,-0.0241
3149.0,-0.024
3148.0,-0.0239
3147.0,-0.0237
3146.0,-0.0235
3145.0,-0.0233
3144.0,-0.023
3143.0,-0.0228
3142.0,-0.0227
3141.0,-0.0225
3140.0,-0.0222
3139.0,-0.0218
3138.0,-0.0215
3137.0,-0.0213
3136.0,-0.0212
3135.0,-0.0212
3134.0,-0.0212
3133.0,-0.0211
3132.0,-0.021
3131.0,-0.0208
3130.0,-0.0206
3129.0,-0.0204
3128.0,-0.0202
3127.0,-0.02
3126.0,-0.0198
3125.0,-0.0197
3124.0,-0.0195
3123.0,-0.0194
3122.0,-0.0193
3121.0,-0.0192
3120.0,-0.0191
3119.0,-0.019
3118.0,-0.0187
3117.0,-0.0185
3116.0,-0.0183
3115.0,-0.0181
3114.0,-0.018
3113.0,-0.0179
3112.0,-0.0178
3111.0,-0.0177
3110.0,-0.0176
3109.0,-0.0175
3108.0,-0.0174
3107.0,-0.0172
3106.0,-0.0169
3105.0,-0.0167
3104.0,-0.0165
3103.0,-0.0164
3102.0,-0.0164
3101.0,-0.0164
3100.0,-0.0163
3099.0,-0.0162
3098.0,-0.016
3097.0,-0.0158
3096.0,-0.0156
3095.0,-0.0155
3094.0,-0.0153
3093.0,-0.0152
3092.0,-0.0151
3091.0,-0.0149
3090.0,-0.0148
3089.0,-0.0147
3088.0,-0.0145
3087.0,-0.0144
3086.0,-0.0142
3085.0,-0.0141
3084.0,-0.014
3083.0,-0.0139
3082.0,-0.0137
3081.0,-0.0136
3080.0,-0.0135
3079.0,-0.0134
3078.0,-0.0132
3077.0,-0.0131
3076.0,-0.013
3075.0,-0.0128
3074.0,-0.0127
3073.0,-0.0127
3072.0,-0.0126
3071.0,-0.0126
3070.0,-0.0124
3069.0,-0.0122
3068.0,-0.012
3067.0,-0.0119
3066.0,-0.0119
3065.0,-0.0118
3064.0,-0.0117
3063.0,-0.0116
3062.0,-0.0114
3061.0,-0.0113
3060.0,-0.0111
3059.0,-0.011
3058.0,-0.0109
3057.0,-0.0107
3056.0,-0.0106
3055.0,-0.0106
3054.0,-0.0105
3053.0,-0.0104
3052.0,-0.0102
3051.0,-0.0101
3050.0,-0.01
3049.0,-0.0099
3048.0,-0.0099
3047.0,-0.0099
3046.0,-0.0098
3045.0,-0.0098
3044.0,-0.0097
3043.0,-0.0096
3042.0,-0.0095
3041.0,-0.0094
3040.0,-0.0093
3039.0,-0.0091
3038.0,-0.0091
3037.0,-0.009
3036.0,-0.009
3035.0,-0.0089
3034.0,-0.0088
3033.0,-0.0087
3032.0,-0.0086
3031.0,-0.0085
3030.0,-0.0085
3029.0,-0.0084
3028.0,-0.0083
3027.0,-0.0082
3026.0,-0.0082
3025.0,-0.0081
3024.0,-0.0081
3023.0,-0.008
3022.0,-0.008
3021.0,-0.008
3020.0,-0.008
3019.0,-0.0079
3018.0,-0.0077
3017.0,-0.0075
3016.0,-0.0075
3015.0,-0.0074
3014.0,-0.0074
3013.0,-0.0074
3012.0,-0.0072
3011.0,-0.0071
3010.0,-0.007
3009.0,-0.0069
3008.0,-0.0068
3007.0,-0.0067
3006.0,-0.0066
3005.0,-0.0065
3004.0,-0.0065
3003.0,-0.0064
3002.0,-0.0064
3001.0,-0.0064
3000.0,-0.0064
2999.0,-0.0063
2998.0,-0.0063
2997.0,-0.0063
2996.0,-0.0062
2995.0,-0.0061
2994.0,-0.006
2993.0,-0.006
2992.0,-0.0059
2991.0,-0.0059
2990.0,-0.0058
2989.0,-0.0058
2988.0,-0.0058
2987.0,-0.0058
2986.0,-0.0058
2985.0,-0.0057
2984.0,-0.0056
2983.0,-0.0055
2982.0,-0.0055
2981.0,-0.0054
2980.0,-0.0053
2979.0,-0.0052
2978.0,-0.0051
2977.0,-0.0051
2976.0,-0.005
2975.0,-0.005
2974.0,-0.005
2973.0,-0.005
2972.0,-0.0049
2971.0,-0.0048
2970.0,-0.0048
2969.0,-0.0049
2968.0,-0.005
2967.0,-0.005
2966.0,-0.0049
2965.0,-0.0048
2964.0,-0.0046
2963.0,-0.0045
2962.0,-0.0043
2961.0,-0.0043
2960.0,-0.0043
2959.0,-0.0043
2958.0,-0.0042
2957.0,-0.0042
2956.0,-0.0042
2955.0,-0.0042
2954.0,-0.0042
2953.0,-0.0041
2952.0,-0.004
2951.0,-0.004
2950.0,-0.0039
2949.0,-0.0038
2948.0,-0.0037
2947.0,-0.0037
2946.0,-0.0037
2945.0,-0.0037
2944.0,-0.0037
2943.0,-0.0037
2942.0,-0.0037
2941.0,-0.0036
2940.0,-0.0036
2939.0,-0.0035
2938.0,-0.0035
2937.0,-0.0034
2936.0,-0.0033
2935.0,-0.0033
2934.0,-0.0033
2933.0,-0.0034
2932.0,-0.0035
2931.0,-0.0035
2930.0,-0.0035
2929.0,-0.0034
2928.0,-0.0033
2927.0,-0.0032
2926.0,-0.0031
2925.0,-0.003
2924.0,-0.0029
2923.0,-0.0029
2922.0,-0.0029
2921.0,-0.0029
2920.0,-0.0029
2919.0,-0.003
2918.0,-0.0029
2917.0,-0.0029
2916.0,-0.0028
2915.0,-0.0027
2914.0,-0.0027
2913.0,-0.0027
2912.0,-0.0026
2911.0,-0.0026
2910.0,-0.0025
2909.0,-0.0024
2908.0,-0.0024
2907.0,-0.0024
2906.0,-0.0025
2905.0,-0.0024
2904.0,-0.0024
2903.0,-0.0024
2902.0,-0.0024
2901.0,-0.0024
2900.0,-0.0023
2899.0,-0.0023
2898.0,-0.0022
2897.0,-0.0021
2896.0,-0.002
2895.0,-0.002
2894.0,-0.002
2893.0,-0.002
2892.0,-0.002
2891.0,-0.0021
2890.0,-0.0021
2889.0,-0.0021
2888.0,-0.0022
2887.0,-0.0022
2886.0,-0.0022
2885.0,-0.0021
2884.0,-0.002
2883.0,-0.0019
2882.0,-0.0019
2881.0,-0.0019
2880.0,-0.0019
2879.0,-0.0019
2878.0,-0.0019
2877.0,-0.0019
2876.0,-0.0019
2875.0,-0.002
2874.0,-0.0019
2873.0,-0.0019
2872.0,-0.0018
2871.0,-0.0017
2870.0,-0.0017
2869.0,-0.0017
2868.0,-0.0016
2867.0,-0.0016
2866.0,-0.0015
2865.0,-0.0015
2864.0,-0.0016
2863.0,-0.0015
2862.0,-0.0015
2861.0,-0.0015
2860.0,-0.0014
2859.0,-0.0013
2858.0,-0.0012
2857.0,-0.0012
2856.0,-0.0012
2855.0,-0.0013
2854.0,-0.0013
2853.0,-0.0014
2852.0,-0.0014
2851.0,-0.0014
2850.0,-0.0013
2849.0,-0.0012
2848.0,-0.0012
2847.0,-0.0012
2846.0,-0.0012
2845.0,-0.0012
2844.0,-0.0012
2843.0,-0.0011
2842.0,-0.0011
2841.0,-0.0011
2840.0,-0.001
2839.0,-0.0011
2838.0,-0.0011
2837.0,-0.0011
2836.0,-0.0011
2835.0,-0.0011
2834.0,-0.0011
2833.0,-0.0011
2832.0,-0.0012
2831.0,-0.0012
2830.0,-0.0011
2829.0,-0.001
2828.0,-0.0009
2827.0,-0.0008
2826.0,-0.0008
2825.0,-0.0009
2824.0,-0.0009
2823.0,-0.0009
2822.0,-0.0009
2821.0,-0.0009
2820.0,-0.0008
2819.0,-0.0008
2818.0,-0.0008
2817.0,-0.0008
2816.0,-0.0008
2815.0,-0.0008
2814.0,-0.0008
2813.0,-0.0008
2812.0,-0.0008
2811.0,-0.0008
2810.0,-0.0008
2809.0,-0.0008
2808.0,-0.0007
2807.0,-0.0007
2806.0,-0.0007
2805.0,-0.0007
2804.0,-0.0006
2803.0,-0.0006
2802.0,-0.0005
2801.0,-0.0005
2800.0,-0.0005
2799.0,-0.0005
2798.0,-0.0005
2797.0,-0.0006
2796.0,-0.0006
2795.0,-0.0007
2794.0,-0.0007
2793.0,-0.0006
2792.0,-0.0005
2791.0,-0.0005
2790.0,-0.0004
2789.0,-0.0004
2788.0,-0.0004
2787.0,-0.0004
2786.0,-0.0004
2785.0,-0.0004
2784.0,-0.0004
2783.0,-0.0003
2782.0,-0.0003
2781.0,-0.0003
2780.0,-0.0002
2779.0,-0.0002
2778.0,-0.0002
2777.0,-0.0002
2776.0,-0.0002
2775.0,-0.0003
2774.0,-0.0003
2773.0,-0.0004
2772.0,-0.0004
2771.0,-0.0004
2770.0,-0.0004
2769.0,-0.0004
2768.0,-0.0003
2767.0,-0.0003
2766.0,-0.0003
2765.0,-0.0002
2764.0,-0.0002
2763.0,-0.0002
2762.0,-0.0002
2761.0,-0.0001
2760.0,-0.0001
2759.0,-0.0001
2758.0,-0.0002
2757.0,-0.0002
2756.0,-0.0002
2755.0,-0.0002
2754.0,-0.0002
2753.0,-0.0002
2752.0,-0.0002
2751.0,-0.0002
2750.0,-0.0002
2749.0,-0.0002
2748.0,-0.0002
2747.0,-0.0002
2746.0,-0.0002
2745.0,-0.0002
2744.0,-0.0002
2743.0,-0.0002
2742.0,-0.0002
2741.0,-0.0001
2740.0,-0.0001
2739.0,-0.0
2738.0,-0.0
2737.0,0.0
2736.0,-0.0
2735.0,-0.0001
2734.0,-0.0001
2733.0,-0.0001
2732.0,-0.0001
2731.0,-0.0001
2730.0,-0.0001
2729.0,-0.0001
2728.0,-0.0
2727.0,-0.0001
2726.0,-0.0001
2725.0,-0.0001
2724.0,-0.0001
2723.0,-0.0
2722.0,0.0001
2721.0,0.0001
2720.0,0.0002
2719.0,0.0002
2718.0,0.0002
2717.0,0.0002
2716.0,0.0002
2715.0,0.0002
2714.0,0.0002
2713.0,0.0003
2712.0,0.0004
2711.0,0.0004
2710.0,0.0003
2709.0,0.0002
2708.0,0.0001
2707.0,0.0001
2706.0,0.0001
2705.0,0.0001
2704.0,0.0002
2703.0,0.0002
2702.0,0.0002
2701.0,0.0002
2700.0,0.0002
2699.0,0.0002
2698.0,0.0002
2697.0,0.0002
2696.0,0.0002
2695.0,0.0002
2694.0,0.0002
2693.0,0.0003
2692.0,0.0003
2691.0,0.0003
2690.0,0.0003
2689.0,0.0002
2688.0,0.0002
2687.0,0.0002
2686.0,0.0002
2685.0,0.0002
2684.0,0.0002
2683.0,0.0002
2682.0,0.0002
2681.0,0.0002
2680.0,0.0002
2679.0,0.0002
2678.0,0.0002
2677.0,0.0002
2676.0,0.0002
2675.0,0.0002
2674.0,0.0002
2673.0,0.0003
2672.0,0.0003
2671.0,0.0004
2670.0,0.0004
2669.0,0.0004
2668.0,0.0005
2667.0,0.0004
2666.0,0.0004
2665.0,0.0003
2664.0,0.0003
2663.0,0.0002
2662.0,0.0003
2661.0,0.0003
2660.0,0.0004
2659.0,0.0004
2658.0,0.0004
2657.0,0.0004
2656.0,0.0004
2655.0,0.0005
2654.0,0.0005
2653.0,0.0004
2652.0,0.0004
2651.0,0.0004
2650.0,0.0004
2649.0,0.0004
2648.0,0.0004
2647.0,0.0005
2646.0,0.0005
2645.0,0.0005
2644.0,0.0004
2643.0,0.0004
2642.0,0.0004
2641.0,0.0004
2640.0,0.0004
2639.0,0.0004
2638.0,0.0004
2637.0,0.0004
2636.0,0.0005
2635.0,0.0005
2634.0,0.0005
2633.0,0.0005
2632.0,0.0005
2631.0,0.0004
2630.0,0.0004
2629.0,0.0004
2628.0,0.0004
2627.0,0.0004
2626.0,0.0004
2625.0,0.0004
2624.0,0.0004
2623.0,0.0004
2622.0,0.0004
2621.0,0.0004
2620.0,0.0005
2619.0,0.0005
2618.0,0.0006
2617.0,0.0006
2616.0,0.0005
2615.0,0.0005
2614.0,0.0005
2613.0,0.0005
2612.0,0.0005
2611.0,0.0005
2610.0,0.0005
2609.0,0.0005
2608.0,0.0005
2607.0,0.0004
2606.0,0.0004
2605.0,0.0004
2604.0,0.0004
2603.0,0.0004
2602.0,0.0004
2601.0,0.0004
2600.0,0.0005
2599.0,0.0005
2598.0,0.0006
2597.0,0.0006
2596.0,0.0006
2595.0,0.0005
2594.0,0.0005
2593.0,0.0005
2592.0,0.0005
2591.0,0.0005
2590.0,0.0005
2589.0,0.0005
2588.0,0.0005
2587.0,0.0004
2586.0,0.0005
2585.0,0.0005
2584.0,0.0005
2583.0,0.0005
2582.0,0.0005
2581.0,0.0005
2580.0,0.0005
2579.0,0.0005
2578.0,0.0005
2577.0,0.0005
2576.0,0.0006
2575.0,0.0006
2574.0,0.0006
2573.0,0.0006
2572.0,0.0006
2571.0,0.0005
2570.0,0.0004
2569.0,0.0004
2568.0,0.0004
2567.0,0.0005
2566.0,0.0005
2565.0,0.0004
2564.0,0.0004
2563.0,0.0003
2562.0,0.0003
2561.0,0.0004
2560.0,0.0005
2559.0,0.0005
2558.0,0.0005
2557.0,0.0005
2556.0,0.0005
2555.0,0.0006
2554.0,0.0006
2553.0,0.0006
2552.0,0.0006
2551.0,0.0005
2550.0,0.0005
2549.0,0.0004
2548.0,0.0004
2547.0,0.0004
2546.0,0.0005
2545.0,0.0005
2544.0,0.0004
2543.0,0.0004
2542.0,0.0004
2541.0,0.0004
2540.0,0.0004
2539.0,0.0004
2538.0,0.0004
2537.0,0.0004
2536.0,0.0005
2535.0,0.0005
2534.0,0.0005
2533.0,0.0005
2532.0,0.0005
2531.0,0.0005
2530.0,0.0005
2529.0,0.0005
2528.0,0.0005
2527.0,0.0005
2526.0,0.0005
2525.0,0.0006
2524.0,0.0005
2523.0,0.0005
2522.0,0.0005
2521.0,0.0005
2520.0,0.0005
2519.0,0.0005
2518.0,0.0005
2517.0,0.0005
2516.0,0.0005
2515.0,0.0005
2514.0,0.0005
2513.0,0.0004
2512.0,0.0004
2511.0,0.0004
2510.0,0.0004
2509.0,0.0004
2508.0,0.0004
2507.0,0.0004
2506.0,0.0005
2505.0,0.0005
2504.0,0.0005
2503.0,0.0004
2502.0,0.0004
2501.0,0.0003
2500.0,0.0003
2499.0,0.0003
2498.0,0.0003
2497.0,0.0004
2496.0,0.0004
2495.0,0.0004
2494.0,0.0005
2493.0,0.0004
2492.0,0.0004
2491.0,0.0003
2490.0,0.0002
2489.0,0.0003
2488.0,0.0003
2487.0,0.0004
2486.0,0.0004
2485.0,0.0005
2484.0,0.0005
2483.0,0.0004
2482.0,0.0003
2481.0,0.0003
2480.0,0.0002
2479.0,0.0002
2478.0,0.0002
2477.0,0.0002
2476.0,0.0002
2475.0,0.0002
2474.0,0.0002
2473.0,0.0002
2472.0,0.0002
2471.0,0.0002
2470.0,0.0003
2469.0,0.0003
2468.0,0.0003
2467.0,0.0003
2466.0,0.0003
2465.0,0.0002
2464.0,0.0001
2463.0,0.0
2462.0,0.0
2461.0,0.0
2460.0,0.0001
2459.0,0.0001
2458.0,0.0001
2457.0,0.0001
2456.0,0.0001
2455.0,0.0001
2454.0,0.0001
2453.0,0.0001
2452.0,0.0001
2451.0,0.0001
2450.0,0.0001
2449.0,0.0001
2448.0,0.0001
2447.0,0.0001
2446.0,0.0
2445.0,0.0
2444.0,0.0001
2443.0,0.0001
2442.0,0.0001
2441.0,0.0002
2440.0,0.0002
2439.0,0.0002
2438.0,0.0001
2437.0,0.0001
2436.0,0.0001
2435.0,0.0001
2434.0,0.0002
2433.0,0.0002
2432.0,0.0002
2431.0,0.0002
2430.0,0.0001
2429.0,0.0001
2428.0,0.0001
2427.0,0.0001
2426.0,0.0001
2425.0,0.0001
2424.0,0.0001
2423.0,0.0001
2422.0,0.0001
2421.0,0.0
2420.0,-0.0
2419.0,-0.0001
2418.0,-0.0001
2417.0,-0.0001
2416.0,-0.0001
2415.0,-0.0001
2414.0,-0.0001
2413.0,-0.0
2412.0,-0.0
2411.0,-0.0
2410.0,-0.0
2409.0,-0.0001
2408.0,-0.0001
2407.0,-0.0001
2406.0,-0.0001
2405.0,-0.0001
2404.0,-0.0001
2403.0,-0.0001
2402.0,-0.0001
2401.0,-0.0001
2400.0,-0.0001
2399.0,-0.0001
2398.0,-0.0001
2397.0,-0.0001
2396.0,-0.0001
2395.0,-0.0001
2394.0,-0.0002
2393.0,-0.0002
2392.0,-0.0003
2391.0,-0.0003
2390.0,-0.0004
2389.0,-0.0005
2388.0,-0.0005
2387.0,-0.0007
2386.0,-0.0008
2385.0,-0.001
2384.0,-0.0012
2383.0,-0.0014
2382.0,-0.0016
2381.0,-0.0018
2380.0,-0.002
2379.0,-0.0022
2378.0,-0.0023
2377.0,-0.0024
2376.0,-0.0024
2375.0,-0.0023
2374.0,-0.0022
2373.0,-0.0023
2372.0,-0.0025
2371.0,-0.0028
2370.0,-0.0032
2369.0,-0.0035
2368.0,-0.0035
2367.0,-0.0034
2366.0,-0.0033
2365.0,-0.0031
2364.0,-0.0023
2363.0,-0.0012
2362.0,-0.0009
2361.0,-0.002
2360.0,-0.0035
2359.0,-0.0043
2358.0,-0.0041
2357.0,-0.0036
2356.0,-0.0036
2355.0,-0.004
2354.0,-0.0044
2353.0,-0.0044
2352.0,-0.0041
2351.0,-0.0039
2350.0,-0.0038
2349.0,-0.0038
2348.0,-0.004
2347.0,-0.0041
2346.0,-0.0043
2345.0,-0.0042
2344.0,-0.0037
2343.0,-0.0031
2342.0,-0.0029
2341.0,-0.0033
2340.0,-0.004
2339.0,-0.0045
2338.0,-0.0044
2337.0,-0.0042
2336.0,-0.004
2335.0,-0.004
2334.0,-0.0041
2333.0,-0.0043
2332.0,-0.0045
2331.0,-0.0049
2330.0,-0.0051
2329.0,-0.005
2328.0,-0.0048
2327.0,-0.0044
2326.0,-0.004
2325.0,-0.0037
2324.0,-0.0035
2323.0,-0.0034
2322.0,-0.0033
2321.0,-0.0032
2320.0,-0.0032
2319.0,-0.0033
2318.0,-0.0033
2317.0,-0.0033
2316.0,-0.0032
2315.0,-0.0031
2314.0,-0.0031
2313.0,-0.0031
2312.0,-0.0032
2311.0,-0.0031
2310.0,-0.003
2309.0,-0.0028
2308.0,-0.0027
2307.0,-0.0025
2306.0,-0.0025
2305.0,-0.0025
2304.0,-0.0025
2303.0,-0.0025
2302.0,-0.0024
2301.0,-0.0022
2300.0,-0.0021
2299.0,-0.0019
2298.0,-0.0018
2297.0,-0.0017
2296.0,-0.0016
2295.0,-0.0016
2294.0,-0.0015
2293.0,-0.0015
2292.0,-0.0014
2291.0,-0.0013
2290.0,-0.0012
2289.0,-0.0011
2288.0,-0.001
2287.0,-0.0009
2286.0,-0.0008
2285.0,-0.0007
2284.0,-0.0007
2283.0,-0.0006
2282.0,-0.0006
2281.0,-0.0006
2280.0,-0.0006
2279.0,-0.0006
2278.0,-0.0007
2277.0,-0.0007
2276.0,-0.0008
2275.0,-0.0009
2274.0,-0.0009
2273.0,-0.0008
2272.0,-0.0008
2271.0,-0.0008
2270.0,-0.0008
2269.0,-0.0009
2268.0,-0.0008
2267.0,-0.0008
2266.0,-0.0007
2265.0,-0.0007
2264.0,-0.0007
2263.0,-0.0007
2262.0,-0.0007
2261.0,-0.0007
2260.0,-0.0007
2259.0,-0.0007
2258.0,-0.0006
2257.0,-0.0006
2256.0,-0.0006
2255.0,-0.0006
2254.0,-0.0006
2253.0,-0.0006
2252.0,-0.0006
2251.0,-0.0006
2250.0,-0.0006
2249.0,-0.0006
2248.0,-0.0006
2247.0,-0.0006
2246.0,-0.0005
2245.0,-0.0005
2244.0,-0.0004
2243.0,-0.0005
2242.0,-0.0004
2241.0,-0.0004
2240.0,-0.0003
2239.0,-0.0003
2238.0,-0.0002
2237.0,-0.0002
2236.0,-0.0003
2235.0,-0.0003
2234.0,-0.0004
2233.0,-0.0004
2232.0,-0.0004
2231.0,-0.0004
2230.0,-0.0004
2229.0,-0.0004
2228.0,-0.0004
2227.0,-0.0004
2226.0,-0.0004
2225.0,-0.0004
2224.0,-0.0004
2223.0,-0.0004
2222.0,-0.0004
2221.0,-0.0004
2220.0,-0.0004
2219.0,-0.0004
2218.0,-0.0004
2217.0,-0.0004
2216.0,-0.0004
2215.0,-0.0004
2214.0,-0.0004
2213.0,-0.0004
2212.0,-0.0003
2211.0,-0.0003
2210.0,-0.0003
2209.0,-0.0004
2208.0,-0.0004
2207.0,-0.0003
2206.0,-0.0003
2205.0,-0.0003
2204.0,-0.0004
2203.0,-0.0004
2202.0,-0.0005
2201.0,-0.0005
2200.0,-0.0004
2199.0,-0.0004
2198.0,-0.0004
2197.0,-0.0004
2196.0,-0.0004
2195.0,-0.0004
2194.0,-0.0004
2193.0,-0.0004
2192.0,-0.0004
2191.0,-0.0004
2190.0,-0.0004
2189.0,-0.0004
2188.0,-0.0004
2187.0,-0.0004
2186.0,-0.0004
2185.0,-0.0004
2184.0,-0.0003
2183.0,-0.0004
2182.0,-0.0004
2181.0,-0.0004
2180.0,-0.0003
2179.0,-0.0003
2178.0,-0.0003
2177.0,-0.0003
2176.0,-0.0003
2175.0,-0.0003
2174.0,-0.0004
2173.0,-0.0004
2172.0,-0.0004
2171.0,-0.0004
2170.0,-0.0003
2169.0,-0.0003
2168.0,-0.0003
2167.0,-0.0003
2166.0,-0.0004
2165.0,-0.0004
2164.0,-0.0004
2163.0,-0.0005
2162.0,-0.0005
2161.0,-0.0006
2160.0,-0.0006
2159.0,-0.0006
2158.0,-0.0005
2157.0,-0.0005
2156.0,-0.0004
2155.0,-0.0004
2154.0,-0.0004
2153.0,-0.0004
2152.0,-0.0004
2151.0,-0.0003
2150.0,-0.0004
2149.0,-0.0004
2148.0,-0.0004
2147.0,-0.0003
2146.0,-0.0003
2145.0,-0.0003
2144.0,-0.0004
2143.0,-0.0004
2142.0,-0.0004
2141.0,-0.0004
2140.0,-0.0003
2139.0,-0.0003
2138.0,-0.0003
2137.0,-0.0004
2136.0,-0.0005
2135.0,-0.0005
2134.0,-0.0005
2133.0,-0.0004
2132.0,-0.0004
2131.0,-0.0003
2130.0,-0.0003
2129.0,-0.0004
2128.0,-0.0004
2127.0,-0.0004
2126.0,-0.0004
2125.0,-0.0004
2124.0,-0.0004
2123.0,-0.0005
2122.0,-0.0005
2121.0,-0.0004
2120.0,-0.0004
2119.0,-0.0004
2118.0,-0.0004
2117.0,-0.0005
2116.0,-0.0006
2115.0,-0.0006
2114.0,-0.0005
2113.0,-0.0005
2112.0,-0.0004
2111.0,-0.0003
2110.0,-0.0004
2109.0,-0.0004
2108.0,-0.0004
2107.0,-0.0005
2106.0,-0.0005
2105.0,-0.0006
2104.0,-0.0005
2103.0,-0.0005
2102.0,-0.0004
2101.0,-0.0004
2100.0,-0.0005
2099.0,-0.0005
2098.0,-0.0005
2097.0,-0.0006
2096.0,-0.0006
2095.0,-0.0006
2094.0,-0.0006
2093.0,-0.0005
2092.0,-0.0005
2091.0,-0.0005
2090.0,-0.0005
2089.0,-0.0005
2088.0,-0.0006
2087.0,-0.0006
2086.0,-0.0006
2085.0,-0.0006
2084.0,-0.0006
2083.0,-0.0005
2082.0,-0.0005
2081.0,-0.0005
2080.0,-0.0005
2079.0,-0.0005
2078.0,-0.0005
2077.0,-0.0005
2076.0,-0.0005
2075.0,-0.0005
2074.0,-0.0005
2073.0,-0.0005
2072.0,-0.0005
2071.0,-0.0005
2070.0,-0.0005
2069.0,-0.0005
2068.0,-0.0005
2067.0,-0.0005
2066.0,-0.0005
2065.0,-0.0005
2064.0,-0.0006
2063.0,-0.0006
2062.0,-0.0006
2061.0,-0.0007
2060.0,-0.0007
2059.0,-0.0007
2058.0,-0.0006
2057.0,-0.0006
2056.0,-0.0006
2055.0,-0.0006
2054.0,-0.0005
2053.0,-0.0005
2052.0,-0.0005
2051.0,-0.0005
2050.0,-0.0005
2049.0,-0.0005
2048.0,-0.0005
2047.0,-0.0005
2046.0,-0.0006
2045.0,-0.0006
2044.0,-0.0005
2043.0,-0.0005
2042.0,-0.0005
2041.0,-0.0004
2040.0,-0.0004
2039.0,-0.0004
2038.0,-0.0004
2037.0,-0.0004
2036.0,-0.0005
2035.0,-0.0004
2034.0,-0.0004
2033.0,-0.0004
2032.0,-0.0004
2031.0,-0.0004
2030.0,-0.0005
2029.0,-0.0005
2028.0,-0.0005
2027.0,-0.0005
2026.0,-0.0005
2025.0,-0.0005
2024.0,-0.0005
2023.0,-0.0005
2022.0,-0.0005
2021.0,-0.0005
2020.0,-0.0005
2019.0,-0.0005
2018.0,-0.0004
2017.0,-0.0003
2016.0,-0.0003
2015.0,-0.0003
2014.0,-0.0003
2013.0,-0.0003
2012.0,-0.0003
2011.0,-0.0003
2010.0,-0.0003
2009.0,-0.0003
2008.0,-0.0003
2007.0,-0.0003
2006.0,-0.0003
2005.0,-0.0004
2004.0,-0.0004
2003.0,-0.0004
2002.0,-0.0004
2001.0,-0.0004
2000.0,-0.0003
1999.0,-0.0003
1998.0,-0.0003
1997.0,-0.0003
1996.0,-0.0002
1995.0,-0.0002
1994.0,-0.0003
1993.0,-0.0003
1992.0,-0.0003
1991.0,-0.0003
1990.0,-0.0003
1989.0,-0.0003
1988.0,-0.0002
1987.0,-0.0002
1986.0,-0.0001
1985.0,-0.0001
1984.0,-0.0001
1983.0,-0.0001
1982.0,-0.0001
1981.0,-0.0001
1980.0,-0.0001
1979.0,-0.0001
1978.0,-0.0001
1977.0,-0.0001
1976.0,-0.0001
1975.0,-0.0001
1974.0,-0.0001
1973.0,-0.0002
1972.0,-0.0002
1971.0,-0.0002
1970.0,-0.0002
1969.0,-0.0001
1968.0,-0.0001
1967.0,-0.0001
1966.0,-0.0001
1965.0,-0.0001
1964.0,-0.0001
1963.0,-0.0001
1962.0,-0.0
1961.0,-0.0
1960.0,-0.0
1959.0,-0.0
1958.0,-0.0
1957.0,-0.0
1956.0,0.0
1955.0,-0.0
1954.0,-0.0001
1953.0,-0.0001
1952.0,-0.0001
1951.0,-0.0002
1950.0,-0.0001
1949.0,-0.0001
1948.0,-0.0002
1947.0,-0.0002
1946.0,-0.0001
1945.0,-0.0001
1944.0,-0.0001
1943.0,-0.0001
1942.0,-0.0
1941.0,-0.0
1940.0,-0.0
1939.0,-0.0001
1938.0,-0.0001
1937.0,-0.0001
1936.0,-0.0001
1935.0,-0.0001
1934.0,-0.0001
1933.0,-0.0001
1932.0,-0.0001
1931.0,-0.0
1930.0,0.0
1929.0,0.0001
1928.0,0.0001
1927.0,0.0001
1926.0,0.0001
1925.0,0.0002
1924.0,0.0002
1923.0,0.0002
1922.0,0.0001
1921.0,0.0001
1920.0,0.0001
1919.0,0.0001
1918.0,0.0001
1917.0,0.0001
1916.0,0.0001
1915.0,0.0001
1914.0,0.0001
1913.0,0.0
1912.0,0.0
1911.0,-0.0
1910.0,-0.0
1909.0,0.0
1908.0,0.0001
1907.0,0.0001
1906.0,0.0001
1905.0,0.0001
1904.0,0.0001
1903.0,0.0001
1902.0,0.0001
1901.0,0.0001
1900.0,0.0
1899.0,-0.0
1898.0,-0.0001
1897.0,-0.0001
1896.0,-0.0
1895.0,0.0001
1894.0,0.0001
1893.0,0.0001
1892.0,0.0002
1891.0,0.0001
1890.0,0.0001
1889.0,0.0001
1888.0,0.0001
1887.0,0.0001
1886.0,0.0001
1885.0,0.0001
1884.0,0.0001
1883.0,0.0002
1882.0,0.0001
1881.0,0.0001
1880.0,0.0
1879.0,-0.0
1878.0,-0.0
1877.0,0.0
1876.0,0.0001
1875.0,0.0001
1874.0,0.0001
1873.0,0.0001
1872.0,0.0
1871.0,0.0
1870.0,0.0
1869.0,0.0
1868.0,0.0
1867.0,0.0
1866.0,0.0
1865.0,0.0
1864.0,0.0
1863.0,0.0001
1862.0,0.0001
1861.0,0.0001
1860.0,0.0001
1859.0,0.0
1858.0,-0.0
1857.0,-0.0
1856.0,-0.0
1855.0,-0.0
1854.0,0.0
1853.0,0.0
1852.0,0.0
1851.0,0.0
1850.0,0.0
1849.0,0.0
1848.0,0.0
1847.0,-0.0
1846.0,-0.0001
1845.0,-0.0
1844.0,0.0001
1843.0,0.0001
1842.0,0.0002
1841.0,0.0001
1840.0,0.0001
1839.0,0.0
1838.0,-0.0
1837.0,-0.0001
1836.0,-0.0001
1835.0,-0.0
1834.0,0.0
1833.0,0.0001
1832.0,0.0001
1831.0,0.0001
1830.0,0.0001
1829.0,0.0002
1828.0,0.0001
1827.0,0.0001
1826.0,0.0
1825.0,-0.0
1824.0,-0.0
1823.0,0.0
1822.0,0.0
1821.0,0.0
1820.0,0.0
1819.0,-0.0
1818.0,-0.0
1817.0,0.0
1816.0,0.0001
1815.0,0.0002
1814.0,0.0002
1813.0,0.0002
1812.0,0.0002
1811.0,0.0001
1810.0,0.0001
1809.0,0.0001
1808.0,0.0001
1807.0,-0.0
1806.0,-0.0
1805.0,-0.0
1804.0,0.0
1803.0,0.0001
1802.0,0.0001
1801.0,0.0001
1800.0,0.0001
1799.0,0.0001
1798.0,0.0001
1797.0,0.0001
1796.0,0.0
1795.0,-0.0
1794.0,-0.0001
1793.0,-0.0001
1792.0,-0.0001
1791.0,-0.0
1790.0,0.0
1789.0,0.0
1788.0,0.0
1787.0,-0.0
1786.0,-0.0
1785.0,-0.0001
1784.0,-0.0001
1783.0,-0.0001
1782.0,-0.0001
1781.0,-0.0001
1780.0,-0.0001
1779.0,-0.0001
1778.0,-0.0001
1777.0,-0.0001
1776.0,-0.0001
1775.0,-0.0001
1774.0,-0.0001
1773.0,-0.0002
1772.0,-0.0001
1771.0,-0.0001
1770.0,-0.0002
1769.0,-0.0002
1768.0,-0.0003
1767.0,-0.0003
1766.0,-0.0003
1765.0,-0.0003
1764.0,-0.0003
1763.0,-0.0003
1762.0,-0.0003
1761.0,-0.0003
1760.0,-0.0003
1759.0,-0.0003
1758.0,-0.0003
1757.0,-0.0003
1756.0,-0.0003
1755.0,-0.0003
1754.0,-0.0003
1753.0,-0.0004
1752.0,-0.0005
1751.0,-0.0005
1750.0,-0.0005
1749.0,-0.0005
1748.0,-0.0005
1747.0,-0.0006
1746.0,-0.0006
1745.0,-0.0006
1744.0,-0.0007
1743.0,-0.0007
1742.0,-0.0007
1741.0,-0.0007
1740.0,-0.0008
1739.0,-0.0008
1738.0,-0.0008
1737.0,-0.0008
1736.0,-0.0009
1735.0,-0.001
1734.0,-0.001
1733.0,-0.001
1732.0,-0.001
1731.0,-0.0011
1730.0,-0.0012
1729.0,-0.0013
1728.0,-0.0014
1727.0,-0.0014
1726.0,-0.0015
1725.0,-0.0016
1724.0,-0.0016
1723.0,-0.0017
1722.0,-0.0017
1721.0,-0.0018
1720.0,-0.0019
1719.0,-0.0022
1718.0,-0.0024
1717.0,-0.0025
1716.0,-0.0026
1715.0,-0.0026
1714.0,-0.0026
1713.0,-0.0026
1712.0,-0.0027
1711.0,-0.0029
1710.0,-0.003
1709.0,-0.0031
1708.0,-0.0032
1707.0,-0.0034
1706.0,-0.0035
1705.0,-0.0037
1704.0,-0.0038
1703.0,-0.0039
1702.0,-0.0041
1701.0,-0.0043
1700.0,-0.0045
1699.0,-0.0046
1698.0,-0.0047
1697.0,-0.0048
1696.0,-0.0052
1695.0,-0.0054
1694.0,-0.0056
1693.0,-0.0058
1692.0,-0.006
1691.0,-0.0062
1690.0,-0.0064
1689.0,-0.0066
1688.0,-0.0068
1687.0,-0.007
1686.0,-0.0071
1685.0,-0.0075
1684.0,-0.0082
1683.0,-0.0087
1682.0,-0.009
1681.0,-0.0094
1680.0,-0.0097
1679.0,-0.0101
1678.0,-0.0104
1677.0,-0.0107
1676.0,-0.0112
1675.0,-0.0117
1674.0,-0.012
1673.0,-0.0123
1672.0,-0.0125
1671.0,-0.0129
1670.0,-0.0133
1669.0,-0.0137
1668.0,-0.0141
1667.0,-0.0144
1666.0,-0.0146
1665.0,-0.0148
1664.0,-0.0151
1663.0,-0.0155
1662.0,-0.0158
1661.0,-0.0161
1660.0,-0.0163
1659.0,-0.0165
1658.0,-0.0166
1657.0,-0.0166
1656.0,-0.0167
1655.0,-0.0167
1654.0,-0.0167
1653.0,-0.017
1652.0,-0.0172
1651.0,-0.0173
1650.0,-0.0172
1649.0,-0.0171
1648.0,-0.0171
1647.0,-0.017
1646.0,-0.0169
1645.0,-0.0168
1644.0,-0.0167
1643.0,-0.0167
1642.0,-0.0166
1641.0,-0.0166
1640.0,-0.0165
1639.0,-0.0165
1638.0,-0.0165
1637.0,-0.0165
1636.0,-0.0165
1635.0,-0.0164
1634.0,-0.0163
1633.0,-0.0163
1632.0,-0.0162
1631.0,-0.0161
1630.0,-0.016
1629.0,-0.0159
1628.0,-0.0158
1627.0,-0.0157
1626.0,-0.0155
1625.0,-0.0152
1624.0,-0.015
1623.0,-0.0148
1622.0,-0.0147
1621.0,-0.0145
1620.0,-0.0143
1619.0,-0.0142
1618.0,-0.0139
1617.0,-0.0135
1616.0,-0.0132
1615.0,-0.0129
1614.0,-0.0127
1613.0,-0.0125
1612.0,-0.0123
1611.0,-0.0121
1610.0,-0.0118
1609.0,-0.0115
1608.0,-0.0112
1607.0,-0.011
1606.0,-0.0107
1605.0,-0.0105
1604.0,-0.0103
1603.0,-0.0101
1602.0,-0.0099
1601.0,-0.0097
1600.0,-0.0094
1599.0,-0.0092
1598.0,-0.009
1597.0,-0.0088
1596.0,-0.0086
1595.0,-0.0085
1594.0,-0.0083
1593.0,-0.008
1592.0,-0.0078
1591.0,-0.0076
1590.0,-0.0074
1589.0,-0.0072
1588.0,-0.007
1587.0,-0.0069
1586.0,-0.0067
1585.0,-0.0066
1584.0,-0.0065
1583.0,-0.0064
1582.0,-0.0063
1581.0,-0.0061
1580.0,-0.0059
1579.0,-0.0058
1578.0,-0.0058
1577.0,-0.0057
1576.0,-0.0056
1575.0,-0.0055
1574.0,-0.0053
1573.0,-0.0052
1572.0,-0.0051
1571.0,-0.0051
1570.0,-0.005
1569.0,-0.0048
1568.0,-0.0047
1567.0,-0.0046
1566.0,-0.0045
1565.0,-0.0044
1564.0,-0.0044
1563.0,-0.0043
1562.0,-0.0042
1561.0,-0.004
1560.0,-0.0038
1559.0,-0.0037
1558.0,-0.0038
1557.0,-0.0038
1556.0,-0.0039
1555.0,-0.0039
1554.0,-0.0038
1553.0,-0.0037
1552.0,-0.0037
1551.0,-0.0036
1550.0,-0.0036
1549.0,-0.0035
1548.0,-0.0035
1547.0,-0.0034
1546.0,-0.0035
1545.0,-0.0035
1544.0,-0.0035
1543.0,-0.0035
1542.0,-0.0034
1541.0,-0.0032
1540.0,-0.0031
1539.0,-0.0031
1538.0,-0.0031
1537.0,-0.0031
1536.0,-0.0031
1535.0,-0.0031
1534.0,-0.003
1533.0,-0.003
1532.0,-0.0029
1531.0,-0.0029
1530.0,-0.0028
1529.0,-0.0028
1528.0,-0.0028
1527.0,-0.0029
1526.0,-0.0029
1525.0,-0.0029
1524.0,-0.0029
1523.0,-0.0028
1522.0,-0.0028
1521.0,-0.0028
1520.0,-0.0027
1519.0,-0.0027
1518.0,-0.0027
1517.0,-0.0027
1516.0,-0.0027
1515.0,-0.0026
1514.0,-0.0026
1513.0,-0.0026
1512.0,-0.0026
1511.0,-0.0026
1510.0,-0.0026
1509.0,-0.0027
1508.0,-0.0028
1507.0,-0.0028
1506.0,-0.0026
1505.0,-0.0025
1504.0,-0.0025
1503.0,-0.0025
1502.0,-0.0025
1501.0,-0.0025
1500.0,-0.0025
1499.0,-0.0025
1498.0,-0.0025
1497.0,-0.0024
1496.0,-0.0024
1495.0,-0.0024
1494.0,-0.0024
1493.0,-0.0024
1492.0,-0.0024
1491.0,-0.0024
1490.0,-0.0024
1489.0,-0.0024
1488.0,-0.0024
1487.0,-0.0023
1486.0,-0.0023
1485.0,-0.0023
1484.0,-0.0024
1483.0,-0.0024
1482.0,-0.0025
1481.0,-0.0025
1480.0,-0.0025
1479.0,-0.0024
1478.0,-0.0024
1477.0,-0.0024
1476.0,-0.0024
1475.0,-0.0023
1474.0,-0.0023
1473.0,-0.0024
1472.0,-0.0024
1471.0,-0.0024
1470.0,-0.0024
1469.0,-0.0024
1468.0,-0.0024
1467.0,-0.0024
1466.0,-0.0024
1465.0,-0.0024
1464.0,-0.0024
1463.0,-0.0024
1462.0,-0.0025
1461.0,-0.0025
1460.0,-0.0025
1459.0,-0.0026
1458.0,-0.0027
1457.0,-0.0028
1456.0,-0.0027
1455.0,-0.0026
1454.0,-0.0025
1453.0,-0.0025
1452.0,-0.0026
1451.0,-0.0026
1450.0,-0.0026
1449.0,-0.0026
1448.0,-0.0026
1447.0,-0.0026
1446.0,-0.0025
1445.0,-0.0025
1444.0,-0.0025
1443.0,-0.0025
1442.0,-0.0025
1441.0,-0.0025
1440.0,-0.0025
1439.0,-0.0024
1438.0,-0.0024
1437.0,-0.0025
1436.0,-0.0025
1435.0,-0.0026
1434.0,-0.0025
1433.0,-0.0025
1432.0,-0.0025
1431.0,-0.0024
1430.0,-0.0024
1429.0,-0.0024
1428.0,-0.0023
1427.0,-0.0023
1426.0,-0.0023
1425.0,-0.0023
1424.0,-0.0022
1423.0,-0.0022
1422.0,-0.0022
1421.0,-0.0022
1420.0,-0.0022
1419.0,-0.0022
1418.0,-0.0021
1417.0,-0.0021
1416.0,-0.0021
1415.0,-0.0021
1414.0,-0.0021
1413.0,-0.0021
1412.0,-0.0021
1411.0,-0.0022
1410.0,-0.0022
1409.0,-0.0022
1408.0,-0.0022
1407.0,-0.0022
1406.0,-0.0022
1405.0,-0.0023
1404.0,-0.0024
1403.0,-0.0024
1402.0,-0.0024
1401.0,-0.0024
1400.0,-0.0023
1399.0,-0.0023
1398.0,-0.0023
1397.0,-0.0023
1396.0,-0.0024
1395.0,-0.0024
1394.0,-0.0024
1393.0,-0.0025
1392.0,-0.0025
1391.0,-0.0025
1390.0,-0.0025
1389.0,-0.0025
1388.0,-0.0025
1387.0,-0.0025
1386.0,-0.0026
1385.0,-0.0026
1384.0,-0.0026
1383.0,-0.0027
1382.0,-0.0027
1381.0,-0.0028
1380.0,-0.0028
1379.0,-0.0028
1378.0,-0.0028
1377.0,-0.0027
1376.0,-0.0027
1375.0,-0.0026
1374.0,-0.0026
1373.0,-0.0026
1372.0,-0.0026
1371.0,-0.0026
1370.0,-0.0026
1369.0,-0.0026
1368.0,-0.0025
1367.0,-0.0025
1366.0,-0.0025
1365.0,-0.0024
1364.0,-0.0024
1363.0,-0.0024
1362.0,-0.0024
1361.0,-0.0024
1360.0,-0.0023
1359.0,-0.0023
1358.0,-0.0023
1357.0,-0.0023
1356.0,-0.0022
1355.0,-0.0022
1354.0,-0.0022
1353.0,-0.0022
1352.0,-0.0022
1351.0,-0.0022
1350.0,-0.0022
1349.0,-0.0022
1348.0,-0.0021
1347.0,-0.0021
1346.0,-0.002
1345.0,-0.002
1344.0,-0.002
1343.0,-0.002
1342.0,-0.002
1341.0,-0.002
1340.0,-0.002
1339.0,-0.002
1338.0,-0.002
1337.0,-0.002
1336.0,-0.002
1335.0,-0.002
1334.0,-0.0019
1333.0,-0.0019
1332.0,-0.0019
1331.0,-0.0019
1330.0,-0.0019
1329.0,-0.0019
1328.0,-0.0019
1327.0,-0.0019
1326.0,-0.0018
1325.0,-0.0018
1324.0,-0.0018
1323.0,-0.0018
1322.0,-0.0018
1321.0,-0.0018
1320.0,-0.0018
1319.0,-0.0018
1318.0,-0.0018
1317.0,-0.0018
1316.0,-0.0018
1315.0,-0.0018
1314.0,-0.0018
1313.0,-0.0018
1312.0,-0.0018
1311.0,-0.0018
1310.0,-0.0018
1309.0,-0.0018
1308.0,-0.0018
1307.0,-0.0019
1306.0,-0.0019
1305.0,-0.0018
1304.0,-0.0018
1303.0,-0.0018
1302.0,-0.0017
1301.0,-0.0017
1300.0,-0.0017
1299.0,-0.0017
1298.0,-0.0016
1297.0,-0.0016
1296.0,-0.0016
1295.0,-0.0016
1294.0,-0.0017
1293.0,-0.0017
1292.0,-0.0016
1291.0,-0.0016
1290.0,-0.0016
1289.0,-0.0015
1288.0,-0.0015
1287.0,-0.0016
1286.0,-0.0016
1285.0,-0.0016
1284.0,-0.0016
1283.0,-0.0017
1282.0,-0.0017
1281.0,-0.0016
1280.0,-0.0016
1279.0,-0.0016
1278.0,-0.0016
1277.0,-0.0016
1276.0,-0.0016
1275.0,-0.0015
1274.0,-0.0015
1273.0,-0.0015
1272.0,-0.0015
1271.0,-0.0015
1270.0,-0.0015
1269.0,-0.0015
1268.0,-0.0015
1267.0,-0.0014
1266.0,-0.0014
1265.0,-0.0014
1264.0,-0.0014
1263.0,-0.0015
1262.0,-0.0015
1261.0,-0.0015
1260.0,-0.0014
1259.0,-0.0014
1258.0,-0.0014
1257.0,-0.0014
1256.0,-0.0015
1255.0,-0.0015
1254.0,-0.0014
1253.0,-0.0014
1252.0,-0.0014
1251.0,-0.0014
1250.0,-0.0014
1249.0,-0.0014
1248.0,-0.0014
1247.0,-0.0013
1246.0,-0.0013
1245.0,-0.0013
1244.0,-0.0012
1243.0,-0.0012
1242.0,-0.0011
1241.0,-0.0011
1240.0,-0.001
1239.0,-0.001
1238.0,-0.001
1237.0,-0.001
1236.0,-0.001
1235.0,-0.001
1234.0,-0.001
1233.0,-0.001
1232.0,-0.0009
1231.0,-0.0009
1230.0,-0.0008
1229.0,-0.0008
1228.0,-0.0008
1227.0,-0.0008
1226.0,-0.0009
1225.0,-0.0009
1224.0,-0.0008
1223.0,-0.0008
1222.0,-0.0007
1221.0,-0.0007
1220.0,-0.0007
1219.0,-0.0007
1218.0,-0.0006
1217.0,-0.0006
1216.0,-0.0006
1215.0,-0.0006
1214.0,-0.0005
1213.0,-0.0005
1212.0,-0.0004
1211.0,-0.0004
1210.0,-0.0004
1209.0,-0.0004
1208.0,-0.0004
1207.0,-0.0005
1206.0,-0.0005
1205.0,-0.0005
1204.0,-0.0005
1203.0,-0.0005
1202.0,-0.0004
1201.0,-0.0004
1200.0,-0.0004
1199.0,-0.0005
1198.0,-0.0005
1197.0,-0.0005
1196.0,-0.0005
1195.0,-0.0004
1194.0,-0.0004
1193.0,-0.0004
1192.0,-0.0005
1191.0,-0.0005
1190.0,-0.0006
1189.0,-0.0006
1188.0,-0.0007
1187.0,-0.0007
1186.0,-0.0008
1185.0,-0.0008
1184.0,-0.0008
1183.0,-0.0009
1182.0,-0.0009
1181.0,-0.0009
1180.0,-0.001
1179.0,-0.001
1178.0,-0.0011
1177.0,-0.0011
1176.0,-0.0012
1175.0,-0.0013
1174.0,-0.0014
1173.0,-0.0014
1172.0,-0.0014
1171.0,-0.0014
1170.0,-0.0013
1169.0,-0.0014
1168.0,-0.0014
1167.0,-0.0016
1166.0,-0.0017
1165.0,-0.0018
1164.0,-0.0018
1163.0,-0.0018
1162.0,-0.0019
1161.0,-0.0019
1160.0,-0.002
1159.0,-0.002
1158.0,-0.002
1157.0,-0.0021
1156.0,-0.0021
1155.0,-0.0022
1154.0,-0.0022
1153.0,-0.0023
1152.0,-0.0023
1151.0,-0.0023
1150.0,-0.0023
1149.0,-0.0023
1148.0,-0.0024
1147.0,-0.0025
1146.0,-0.0027
1145.0,-0.0029
1144.0,-0.0031
1143.0,-0.0032
1142.0,-0.0033
1141.0,-0.0033
1140.0,-0.0034
1139.0,-0.0035
1138.0,-0.0036
1137.0,-0.0037
1136.0,-0.0039
1135.0,-0.0039
1134.0,-0.004
1133.0,-0.0041
1132.0,-0.0042
1131.0,-0.0043
1130.0,-0.0044
1129.0,-0.0044
1128.0,-0.0045
1127.0,-0.0046
1126.0,-0.0048
1125.0,-0.0049
1124.0,-0.005
1123.0,-0.005
1122.0,-0.0051
1121.0,-0.0051
1120.0,-0.0051
1119.0,-0.0052
1118.0,-0.0051
1117.0,-0.0051
1116.0,-0.005
1115.0,-0.0051
1114.0,-0.0052
1113.0,-0.0053
1112.0,-0.0053
1111.0,-0.0053
1110.0,-0.0052
1109.0,-0.0051
1108.0,-0.0051
1107.0,-0.0051
1106.0,-0.0051
1105.0,-0.0051
1104.0,-0.0051
1103.0,-0.0051
1102.0,-0.0051
1101.0,-0.0051
1100.0,-0.0051
1099.0,-0.0052
1098.0,-0.0052
1097.0,-0.0052
1096.0,-0.0052
1095.0,-0.0052
1094.0,-0.0052
1093.0,-0.0052
1092.0,-0.0052
1091.0,-0.0051
1090.0,-0.0051
1089.0,-0.0052
1088.0,-0.0052
1087.0,-0.0052
1086.0,-0.0052
1085.0,-0.0052
1084.0,-0.0052
1083.0,-0.0052
1082.0,-0.0052
1081.0,-0.0051
1080.0,-0.0051
1079.0,-0.005
1078.0,-0.0049
1077.0,-0.0048
1076.0,-0.0047
1075.0,-0.0047
1074.0,-0.0046
1073.0,-0.0045
1072.0,-0.0043
1071.0,-0.0042
1070.0,-0.0041
1069.0,-0.004
1068.0,-0.0039
1067.0,-0.0037
1066.0,-0.0036
1065.0,-0.0035
1064.0,-0.0034
1063.0,-0.0033
1062.0,-0.0033
1061.0,-0.0032
1060.0,-0.003
1059.0,-0.0029
1058.0,-0.0028
1057.0,-0.0027
1056.0,-0.0026
1055.0,-0.0025
1054.0,-0.0024
1053.0,-0.0024
1052.0,-0.0024
1051.0,-0.0024
1050.0,-0.0024
1049.0,-0.0024
1048.0,-0.0023
1047.0,-0.0023
1046.0,-0.0022
1045.0,-0.0022
1044.0,-0.0021
1043.0,-0.002
1042.0,-0.0019
1041.0,-0.0019
1040.0,-0.0019
1039.0,-0.0019
1038.0,-0.0019
1037.0,-0.0019
1036.0,-0.002
1035.0,-0.002
1034.0,-0.0021
1033.0,-0.0021
1032.0,-0.0021
1031.0,-0.002
1030.0,-0.0019
1029.0,-0.0019
1028.0,-0.0019
1027.0,-0.0019
1026.0,-0.0019
1025.0,-0.0019
1024.0,-0.0019
1023.0,-0.0019
1022.0,-0.0019
1021.0,-0.002
1020.0,-0.0021
1019.0,-0.0021
1018.0,-0.0021
1017.0,-0.0021
1016.0,-0.002
1015.0,-0.002
1014.0,-0.002
1013.0,-0.002
1012.0,-0.002
1011.0,-0.0019
1010.0,-0.0018
1009.0,-0.0017
1008.0,-0.0016
1007.0,-0.0015
1006.0,-0.0014
1005.0,-0.0014
1004.0,-0.0015
1003.0,-0.0016
1002.0,-0.0017
1001.0,-0.0017
1000.0,-0.0018
999.0,-0.0018
998.0,-0.0019
997.0,-0.002
996.0,-0.0021
995.0,-0.0022
994.0,-0.0022
993.0,-0.0022
992.0,-0.0022
991.0,-0.0022
990.0,-0.0022
989.0,-0.0022
988.0,-0.0021
987.0,-0.0021
986.0,-0.0022
985.0,-0.0022
984.0,-0.0023
983.0,-0.0024
982.0,-0.0025
981.0,-0.0025
980.0,-0.0024
979.0,-0.0024
978.0,-0.0023
977.0,-0.0023
976.0,-0.0023
975.0,-0.0023
974.0,-0.0024
973.0,-0.0024
972.0,-0.0024
971.0,-0.0023
970.0,-0.0022
969.0,-0.0022
968.0,-0.0023
967.0,-0.0023
966.0,-0.0024
965.0,-0.0024
964.0,-0.0023
963.0,-0.0024
962.0,-0.0024
961.0,-0.0024
960.0,-0.0024
959.0,-0.0024
958.0,-0.0024
957.0,-0.0024
956.0,-0.0025
955.0,-0.0025
954.0,-0.0025
953.0,-0.0025
952.0,-0.0025
951.0,-0.0024
950.0,-0.0024
949.0,-0.0024
948.0,-0.0024
947.0,-0.0024
946.0,-0.0024
945.0,-0.0025
944.0,-0.0026
943.0,-0.0026
942.0,-0.0026
941.0,-0.0027
940.0,-0.0027
939.0,-0.0028
938.0,-0.0029
937.0,-0.0029
936.0,-0.0029
935.0,-0.0029
934.0,-0.003
933.0,-0.003
932.0,-0.003
931.0,-0.003
930.0,-0.0029
929.0,-0.0029
928.0,-0.0029
927.0,-0.0029
926.0,-0.0029
925.0,-0.003
924.0,-0.003
923.0,-0.003
922.0,-0.003
921.0,-0.003
920.0,-0.003
919.0,-0.0031
918.0,-0.0031
917.0,-0.0031
916.0,-0.0031
915.0,-0.0031
914.0,-0.0031
913.0,-0.0031
912.0,-0.0032
911.0,-0.0033
910.0,-0.0034
909.0,-0.0034
908.0,-0.0033
907.0,-0.0034
906.0,-0.0034
905.0,-0.0035
904.0,-0.0036
903.0,-0.0037
902.0,-0.0037
901.0,-0.0037
900.0,-0.0037
899.0,-0.0037
898.0,-0.0038
897.0,-0.0038
896.0,-0.0038
895.0,-0.0037
894.0,-0.0037
893.0,-0.0037
892.0,-0.0039
891.0,-0.0041
890.0,-0.0042
889.0,-0.0043
888.0,-0.0043
887.0,-0.0044
886.0,-0.0043
885.0,-0.0043
884.0,-0.0043
883.0,-0.0044
882.0,-0.0044
881.0,-0.0045
880.0,-0.0046
879.0,-0.0046
878.0,-0.0046
877.0,-0.0046
876.0,-0.0047
875.0,-0.0047
874.0,-0.0047
873.0,-0.0047
872.0,-0.0047
871.0,-0.0048
870.0,-0.0049
869.0,-0.005
868.0,-0.0051
867.0,-0.0052
866.0,-0.0053
865.0,-0.0054
864.0,-0.0055
863.0,-0.0056
862.0,-0.0056
861.0,-0.0057
860.0,-0.0056
859.0,-0.0056
858.0,-0.0056
857.0,-0.0056
856.0,-0.0057
855.0,-0.0058
854.0,-0.0059
853.0,-0.0059
852.0,-0.006
851.0,-0.0061
850.0,-0.0062
849.0,-0.0063
848.0,-0.0064
847.0,-0.0065
846.0,-0.0065
845.0,-0.0066
844.0,-0.0066
843.0,-0.0067
842.0,-0.0068
841.0,-0.0068
840.0,-0.0068
839.0,-0.0068
838.0,-0.0068
837.0,-0.0069
836.0,-0.007
835.0,-0.0071
834.0,-0.0073
833.0,-0.0074
832.0,-0.0075
831.0,-0.0076
830.0,-0.0076
829.0,-0.0076
828.0,-0.0077
827.0,-0.0078
826.0,-0.0079
825.0,-0.0081
824.0,-0.0082
823.0,-0.0083
822.0,-0.0084
821.0,-0.0084
820.0,-0.0085
819.0,-0.0086
818.0,-0.0088
817.0,-0.0091
816.0,-0.0093
815.0,-0.0094
814.0,-0.0095
813.0,-0.0095
812.0,-0.0096
811.0,-0.0098
810.0,-0.0099
809.0,-0.01
808.0,-0.0101
807.0,-0.0103
806.0,-0.0105
805.0,-0.0107
804.0,-0.0108
803.0,-0.0107
802.0,-0.0106
801.0,-0.0106
800.0,-0.0108
799.0,-0.0109
798.0,-0.011
797.0,-0.011
796.0,-0.0111
795.0,-0.0113
794.0,-0.0115
793.0,-0.0117
792.0,-0.0118
791.0,-0.0119
790.0,-0.0121
789.0,-0.0122
788.0,-0.0123
787.0,-0.0123
786.0,-0.0125
785.0,-0.0127
784.0,-0.013
783.0,-0.0132
782.0,-0.0134
781.0,-0.0135
780.0,-0.0138
779.0,-0.014
778.0,-0.0142
777.0,-0.0143
776.0,-0.0143
775.0,-0.0142
774.0,-0.0142
773.0,-0.0142
772.0,-0.0142
771.0,-0.0143
770.0,-0.0145
769.0,-0.0146
768.0,-0.0147
767.0,-0.0149
766.0,-0.0151
765.0,-0.0154
764.0,-0.0155
763.0,-0.0155
762.0,-0.0155
761.0,-0.0156
760.0,-0.0158
759.0,-0.0161
758.0,-0.0163
757.0,-0.0164
756.0,-0.0166
755.0,-0.0168
754.0,-0.0172
753.0,-0.0174
752.0,-0.0175
751.0,-0.0175
750.0,-0.0174
749.0,-0.0175
748.0,-0.0176
747.0,-0.0177
746.0,-0.0179
745.0,-0.018
744.0,-0.0183
743.0,-0.0185
742.0,-0.0187
741.0,-0.0188
740.0,-0.0188
739.0,-0.0187
738.0,-0.0186
737.0,-0.0187
736.0,-0.0189
735.0,-0.0192
734.0,-0.0192
733.0,-0.0191
732.0,-0.019
731.0,-0.0189
730.0,-0.0189
729.0,-0.0192
728.0,-0.0196
727.0,-0.02
726.0,-0.0201
725.0,-0.0202
724.0,-0.0202
723.0,-0.0205
722.0,-0.0209
721.0,-0.0213
720.0,-0.0215
719.0,-0.0214
718.0,-0.0212
717.0,-0.0209
716.0,-0.0206
715.0,-0.0204
714.0,-0.0204
713.0,-0.0208
712.0,-0.0213
711.0,-0.0218
710.0,-0.022
709.0,-0.022
708.0,-0.022
707.0,-0.022
706.0,-0.0219
705.0,-0.0217
704.0,-0.0215
703.0,-0.0213
702.0,-0.0212
701.0,-0.0211
700.0,-0.021
699.0,-0.0209
698.0,-0.0208
697.0,-0.0207
696.0,-0.0206
695.0,-0.0204
694.0,-0.0202
693.0,-0.0202
692.0,-0.0206
691.0,-0.0211
690.0,-0.0215
689.0,-0.0214
688.0,-0.0211
687.0,-0.0208
686.0,-0.0205
685.0,-0.0205
684.0,-0.021
683.0,-0.022
682.0,-0.0227
681.0,-0.0227
680.0,-0.0219
679.0,-0.021
678.0,-0.0209
677.0,-0.0218
676.0,-0.0232
675.0,-0.0241
674.0,-0.024
673.0,-0.0232
672.0,-0.0223
671.0,-0.022
670.0,-0.0221
669.0,-0.0227
668.0,-0.0225
667.0,-0.0219
666.0,-0.0224
665.0,-0.0229
664.0,-0.0225
663.0,-0.0215
662.0,-0.021
661.0,-0.0211
660.0,-0.0217
659.0,-0.0222
658.0,-0.0222
657.0,-0.0217
656.0,-0.0212
655.0,-0.0212
654.0,-0.0217
653.0,-0.0219
652.0,-0.0217
651.0,-0.0213
650.0,-0.0213
649.0,-0.0215
648.0,-0.0214
647.0,-0.0207
646.0,-0.02
645.0,-0.0199
644.0,-0.0202
643.0,-0.0206
642.0,-0.0208
641.0,-0.021
640.0,-0.0215
639.0,-0.0222
638.0,-0.0228
637.0,-0.023
636.0,-0.023
635.0,-0.0231
634.0,-0.0231
633.0,-0.0226
632.0,-0.0213
631.0,-0.0198
630.0,-0.0187
629.0,-0.0187
628.0,-0.0195
627.0,-0.0205
626.0,-0.0212
625.0,-0.0214
624.0,-0.0217
623.0,-0.0221
622.0,-0.0222
621.0,-0.0216
620.0,-0.0204
619.0,-0.0192
618.0,-0.0188
617.0,-0.0192
616.0,-0.0201
615.0,-0.0212
614.0,-0.0221
613.0,-0.0226
612.0,-0.0229
611.0,-0.0228
610.0,-0.0221
609.0,-0.0208
608.0,-0.0194
607.0,-0.019
606.0,-0.0194
605.0,-0.0201
604.0,-0.0205
603.0,-0.0206
602.0,-0.0206
601.0,-0.0206
600.0,-0.0207
