cm-1,A
4000.0,-0.0034
3999.0,-0.0034
3998.0,-0.0035
3997.0,-0.0035
3996.0,-0.0036
3995.0,-0.0036
3994.0,-0.0037
3993.0,-0.0038
3992.0,-0.0038
3991.0,-0.0038
3990.0,-0.0037
3989.0,-0.0036
3988.0,-0.0035
3987.0,-0.0035
3986.0,-0.0035
3985.0,-0.0035
3984.0,-0.0035
3983.0,-0.0035
3982.0,-0.0035
3981.0,-0.0036
3980.0,-0.0036
3979.0,-0.0037
3978.0,-0.0037
3977.0,-0.0037
3976.0,-0.0037
3975.0,-0.0036
3974.0,-0.0035
3973.0,-0.0034
3972.0,-0.0034
3971.0,-0.0034
3970.0,-0.0034
3969.0,-0.0034
3968.0,-0.0034
3967.0,-0.0034
3966.0,-0.0034
3965.0,-0.0035
3964.0,-0.0035
3963.0,-0.0035
3962.0,-0.0035
3961.0,-0.0035
3960.0,-0.0035
3959.0,-0.0035
3958.0,-0.0035
3957.0,-0.0034
3956.0,-0.0034
3955.0,-0.0034
3954.0,-0.0034
3953.0,-0.0034
3952.0,-0.0035
3951.0,-0.0035
3950.0,-0.0035
3949.0,-0.0035
3948.0,-0.0035
3947.0,-0.0035
3946.0,-0.0035
3945.0,-0.0036
3944.0,-0.0036
3943.0,-0.0037
3942.0,-0.0037
3941.0,-0.0037
3940.0,-0.0037
3939.0,-0.0036
3938.0,-0.0035
3937.0,-0.0034
3936.0,-0.0033
3935.0,-0.0033
3934.0,-0.0033
3933.0,-0.0034
3932.0,-0.0035
3931.0,-0.0035
3930.0,-0.0035
3929.0,-0.0035
3928.0,-0.0035
3927.0,-0.0035
3926.0,-0.0035
3925.0,-0.0035
3924.0,-0.0035
3923.0,-0.0035
3922.0,-0.0035
3921.0,-0.0034
3920.0,-0.0034
3919.0,-0.0034
3918.0,-0.0035
3917.0,-0.0035
3916.0,-0.0036
3915.0,-0.0036
3914.0,-0.0036
3913.0,-0.0036
3912.0,-0.0035
3911.0,-0.0034
3910.0,-0.0034
3909.0,-0.0033
3908.0,-0.0033
3907.0,-0.0033
3906.0,-0.0033
3905.0,-0.0033
3904.0,-0.0033
3903.0,-0.0033
3902.0,-0.0034
3901.0,-0.0035
3900.0,-0.0035
3899.0,-0.0034
3898.0,-0.0034
3897.0,-0.0035
3896.0,-0.0036
3895.0,-0.0036
3894.0,-0.0036
3893.0,-0.0035
3892.0,-0.0033
3891.0,-0.0032
3890.0,-0.0031
3889.0,-0.0031
3888.0,-0.0032
3887.0,-0.0033
3886.0,-0.0034
3885.0,-0.0035
3884.0,-0.0036
3883.0,-0.0037
3882.0,-0.0037
3881.0,-0.0037
3880.0,-0.0036
3879.0,-0.0036
3878.0,-0.0036
3877.0,-0.0037
3876.0,-0.0038
3875.0,-0.0038
3874.0,-0.0037
3873.0,-0.0036
3872.0,-0.0034
3871.0,-0.0033
3870.0,-0.0033
3869.0,-0.0033
3868.0,-0.0033
3867.0,-0.0033
3866.0,-0.0033
3865.0,-0.0032
3864.0,-0.0033
3863.0,-0.0033
3862.0,-0.0034
3861.0,-0.0033
3860.0,-0.0032
3859.0,-0.0031
3858.0,-0.0029
3857.0,-0.0028
3856.0,-0.003
3855.0,-0.0033
3854.0,-0.0034
3853.0,-0.0034
3852.0,-0.0034
3851.0,-0.0034
3850.0,-0.0034
3849.0,-0.0034
3848.0,-0.0033
3847.0,-0.0033
3846.0,-0.0033
3845.0,-0.0033
3844.0,-0.0033
3843.0,-0.0033
3842.0,-0.0032
3841.0,-0.0032
3840.0,-0.0031
3839.0,-0.0031
3838.0,-0.0032
3837.0,-0.0033
3836.0,-0.0033
3835.0,-0.0034
3834.0,-0.0034
3833.0,-0.0033
3832.0,-0.0033
3831.0,-0.0034
3830.0,-0.0035
3829.0,-0.0036
3828.0,-0.0036
3827.0,-0.0036
3826.0,-0.0035
3825.0,-0.0034
3824.0,-0.0033
3823.0,-0.0033
3822.0,-0.0033
3821.0,-0.0033
3820.0,-0.0034
3819.0,-0.0036
3818.0,-0.0037
3817.0,-0.0037
3816.0,-0.0037
3815.0,-0.0036
3814.0,-0.0035
3813.0,-0.0034
3812.0,-0.0033
3811.0,-0.0033
3810.0,-0.0033
3809.0,-0.0033
3808.0,-0.0033
3807.0,-0.0034
3806.0,-0.0034
3805.0,-0.0034
3804.0,-0.0035
3803.0,-0.0036
3802.0,-0.0037
3801.0,-0.0037
3800.0,-0.0037
3799.0,-0.0037
3798.0,-0.0036
3797.0,-0.0036
3796.0,-0.0037
3795.0,-0.0037
3794.0,-0.0036
3793.0,-0.0036
3792.0,-0.0035
3791.0,-0.0035
3790.0,-0.0035
3789.0,-0.0035
3788.0,-0.0035
3787.0,-0.0034
3786.0,-0.0034
3785.0,-0.0034
3784.0,-0.0034
3783.0,-0.0034
3782.0,-0.0034
3781.0,-0.0034
3780.0,-0.0034
3779.0,-0.0034
3778.0,-0.0033
3777.0,-0.0033
3776.0,-0.0033
3775.0,-0.0033
3774.0,-0.0034
3773.0,-0.0035
3772.0,-0.0036
3771.0,-0.0036
3770.0,-0.0035
3769.0,-0.0033
3768.0,-0.0032
3767.0,-0.0032
3766.0,-0.0032
3765.0,-0.0032
3764.0,-0.0033
3763.0,-0.0033
3762.0,-0.0034
3761.0,-0.0034
3760.0,-0.0034
3759.0,-0.0033
3758.0,-0.0032
3757.0,-0.0031
3756.0,-0.0029
3755.0,-0.0028
3754.0,-0.0027
3753.0,-0.0026
3752.0,-0.0025
3751.0,-0.0025
3750.0,-0.0026
3749.0,-0.0027
3748.0,-0.0029
3747.0,-0.0031
3746.0,-0.0032
3745.0,-0.0032
3744.0,-0.0031
3743.0,-0.0031
3742.0,-0.0031
3741.0,-0.0031
3740.0,-0.003
3739.0,-0.0029
3738.0,-0.0028
3737.0,-0.0026
3736.0,-0.0025
3735.0,-0.0026
3734.0,-0.0027
3733.0,-0.0028
3732.0,-0.0027
3731.0,-0.0026
3730.0,-0.0025
3729.0,-0.0024
3728.0,-0.0024
3727.0,-0.0024
3726.0,-0.0024
3725.0,-0.0024
3724.0,-0.0024
3723.0,-0.0025
3722.0,-0.0026
3721.0,-0.0028
3720.0,-0.003
3719.0,-0.0032
3718.0,-0.0033
3717.0,-0.0033
3716.0,-0.0032
3715.0,-0.0031
3714.0,-0.003
3713.0,-0.003
3712.0,-0.0029
3711.0,-0.0027
3710.0,-0.0027
3709.0,-0.0027
3708.0,-0.0027
3707.0,-0.0027
3706.0,-0.0027
3705.0,-0.0027
3704.0,-0.0027
3703.0,-0.0027
3702.0,-0.0028
3701.0,-0.0027
3700.0,-0.0027
3699.0,-0.0027
3698.0,-0.0026
3697.0,-0.0026
3696.0,-0.0027
3695.0,-0.0027
3694.0,-0.0027
3693.0,-0.0027
3692.0,-0.0028
3691.0,-0.003
3690.0,-0.003
3689.0,-0.003
3688.0,-0.003
3687.0,-0.003
3686.0,-0.003
3685.0,-0.003
3684.0,-0.003
3683.0,-0.003
3682.0,-0.0029
3681.0,-0.0028
3680.0,-0.0027
3679.0,-0.0027
3678.0,-0.0027
3677.0,-0.0028
3676.0,-0.0027
3675.0,-0.0025
3674.0,-0.0023
3673.0,-0.0023
3672.0,-0.0023
3671.0,-0.0024
3670.0,-0.0024
3669.0,-0.0025
3668.0,-0.0025
3667.0,-0.0025
3666.0,-0.0025
3665.0,-0.0025
3664.0,-0.0025
3663.0,-0.0024
3662.0,-0.0023
3661.0,-0.0022
3660.0,-0.002
3659.0,-0.002
3658.0,-0.0019
3657.0,-0.0019
3656.0,-0.0019
3655.0,-0.002
3654.0,-0.002
3653.0,-0.0021
3652.0,-0.0023
3651.0,-0.0024
3650.0,-0.0023
3649.0,-0.002
3648.0,-0.0018
3647.0,-0.0016
3646.0,-0.0016
3645.0,-0.0016
3644.0,-0.0016
3643.0,-0.0016
3642.0,-0.0016
3641.0,-0.0015
3640.0,-0.0014
3639.0,-0.0013
3638.0,-0.0012
3637.0,-0.0012
3636.0,-0.0011
3635.0,-0.001
3634.0,-0.0009
3633.0,-0.0007
3632.0,-0.0006
3631.0,-0.0006
3630.0,-0.0005
3629.0,-0.0004
3628.0,-0.0003
3627.0,-0.0003
3626.0,-0.0004
3625.0,-0.0004
3624.0,-0.0004
3623.0,-0.0004
3622.0,-0.0005
3621.0,-0.0004
3620.0,-0.0002
3619.0,-0.0
3618.0,0.0
3617.0,-0.0
3616.0,-0.0001
3615.0,-0.0002
3614.0,-0.0002
3613.0,-0.0001
3612.0,0.0001
3611.0,0.0002
3610.0,0.0003
3609.0,0.0003
3608.0,0.0003
3607.0,0.0002
3606.0,0.0001
3605.0,0.0001
3604.0,0.0001
3603.0,0.0002
3602.0,0.0003
3601.0,0.0004
3600.0,0.0005
3599.0,0.0005
3598.0,0.0005
3597.0,0.0006
3596.0,0.0007
3595.0,0.0009
3594.0,0.0011
3593.0,0.0013
3592.0,0.0014
3591.0,0.0014
3590.0,0.0015
3589.0,0.0015
3588.0,0.0014
3587.0,0.0013
3586.0,0.0012
3585.0,0.0011
3584.0,0.0011
3583.0,0.0012
3582.0,0.0013
3581.0,0.0015
3580.0,0.0016
3579.0,0.0017
3578.0,0.0016
3577.0,0.0015
3576.0,0.0014
3575.0,0.0013
3574.0,0.0013
3573.0,0.0013
3572.0,0.0014
3571.0,0.0015
3570.0,0.0015
3569.0,0.0016
3568.0,0.0018
3567.0,0.0021
3566.0,0.0022
3565.0,0.0023
3564.0,0.0022
3563.0,0.0021
3562.0,0.0021
3561.0,0.002
3560.0,0.002
3559.0,0.002
3558.0,0.0021
3557.0,0.0021
3556.0,0.0021
3555.0,0.002
3554.0,0.0019
3553.0,0.002
3552.0,0.002
3551.0,0.0022
3550.0,0.0023
3549.0,0.0022
3548.0,0.0021
3547.0,0.002
3546.0,0.0019
3545.0,0.002
3544.0,0.0021
3543.0,0.0022
3542.0,0.0022
3541.0,0.0022
3540.0,0.0022
3539.0,0.0022
3538.0,0.0023
3537.0,0.0023
3536.0,0.0024
3535.0,0.0024
3534.0,0.0024
3533.0,0.0024
3532.0,0.0024
3531.0,0.0024
3530.0,0.0024
3529.0,0.0023
3528.0,0.0022
3527.0,0.0022
3526.0,0.0022
3525.0,0.0023
3524.0,0.0025
3523.0,0.0026
3522.0,0.0026
3521.0,0.0026
3520.0,0.0024
3519.0,0.0023
3518.0,0.0023
3517.0,0.0023
3516.0,0.0023
3515.0,0.0023
3514.0,0.0023
3513.0,0.0022
3512.0,0.0022
3511.0,0.0022
3510.0,0.0022
3509.0,0.0022
3508.0,0.0023
3507.0,0.0024
3506.0,0.0024
3505.0,0.0025
3504.0,0.0025
3503.0,0.0025
3502.0,0.0025
3501.0,0.0024
3500.0,0.0024
3499.0,0.0023
3498.0,0.0022
3497.0,0.0022
3496.0,0.0023
3495.0,0.0023
3494.0,0.0023
3493.0,0.0022
3492.0,0.0021
3491.0,0.002
3490.0,0.0019
3489.0,0.0019
3488.0,0.0019
3487.0,0.0019
3486.0,0.0017
3485.0,0.0016
3484.0,0.0015
3483.0,0.0015
3482.0,0.0015
3481.0,0.0015
3480.0,0.0015
3479.0,0.0014
3478.0,0.0013
3477.0,0.0012
3476.0,0.0011
3475.0,0.001
3474.0,0.0009
3473.0,0.0009
3472.0,0.0008
3471.0,0.0008
3470.0,0.0008
3469.0,0.0008
3468.0,0.0007
3467.0,0.0005
3466.0,0.0004
3465.0,0.0002
3464.0,0.0002
3463.0,0.0003
3462.0,0.0005
3461.0,0.0006
3460.0,0.0005
3459.0,0.0003
3458.0,0.0001
3457.0,-0.0002
3456.0,-0.0003
3455.0,-0.0004
3454.0,-0.0003
3453.0,-0.0003
3452.0,-0.0003
3451.0,-0.0004
3450.0,-0.0005
3449.0,-0.0005
3448.0,-0.0005
3447.0,-0.0005
3446.0,-0.0006
3445.0,-0.0008
3444.0,-0.0009
3443.0,-0.001
3442.0,-0.0011
3441.0,-0.0013
3440.0,-0.0015
3439.0,-0.0017
3438.0,-0.0019
3437.0,-0.002
3436.0,-0.0022
3435.0,-0.0024
3434.0,-0.0027
3433.0,-0.003
3432.0,-0.0032
3431.0,-0.0034
3430.0,-0.0034
3429.0,-0.0035
3428.0,-0.0038
3427.0,-0.0041
3426.0,-0.0045
3425.0,-0.0049
3424.0,-0.0052
3423.0,-0.0053
3422.0,-0.0054
3421.0,-0.0056
3420.0,-0.0057
3419.0,-0.0059
3418.0,-0.0062
3417.0,-0.0064
3416.0,-0.0067
3415.0,-0.007
3414.0,-0.0073
3413.0,-0.0076
3412.0,-0.0078
3411.0,-0.0079
3410.0,-0.0079
3409.0,-0.0079
3408.0,-0.0081
3407.0,-0.0083
3406.0,-0.0086
3405.0,-0.0089
3404.0,-0.0091
3403.0,-0.0094
3402.0,-0.0096
3401.0,-0.0099
3400.0,-0.01
3399.0,-0.0101
3398.0,-0.0101
3397.0,-0.0102
3396.0,-0.0104
3395.0,-0.0105
3394.0,-0.0106
3393.0,-0.0107
3392.0,-0.0109
3391.0,-0.011
3390.0,-0.0112
3389.0,-0.0112
3388.0,-0.0112
3387.0,-0.0111
3386.0,-0.0109
3385.0,-0.0108
3384.0,-0.0107
3383.0,-0.0106
3382.0,-0.0105
3381.0,-0.0103
3380.0,-0.0101
3379.0,-0.01
3378.0,-0.0097
3377.0,-0.0094
3376.0,-0.0089
3375.0,-0.0083
3374.0,-0.0079
3373.0,-0.0076
3372.0,-0.0074
3371.0,-0.0072
3370.0,-0.0069
3369.0,-0.0066
3368.0,-0.0063
3367.0,-0.006
3366.0,-0.0058
3365.0,-0.0054
3364.0,-0.0049
3363.0,-0.0043
3362.0,-0.0037
3361.0,-0.0032
3360.0,-0.0028
3359.0,-0.0025
3358.0,-0.0022
3357.0,-0.0019
3356.0,-0.0016
3355.0,-0.0012
3354.0,-0.0009
3353.0,-0.0005
3352.0,-0.0001
3351.0,0.0001
3350.0,0.0004
3349.0,0.0007
3348.0,0.001
3347.0,0.0013
3346.0,0.0016
3345.0,0.0018
3344.0,0.0021
3343.0,0.0024
3342.0,0.0027
3341.0,0.0031
3340.0,0.0035
3339.0,0.0038
3338.0,0.0042
3337.0,0.0045
3336.0,0.0049
3335.0,0.0053
3334.0,0.0057
3333.0,0.0061
3332.0,0.0063
3331.0,0.0064
3330.0,0.0066
3329.0,0.0069
3328.0,0.0071
3327.0,0.0074
3326.0,0.0075
3325.0,0.0076
3324.0,0.0077
3323.0,0.0079
3322.0,0.0081
3321.0,0.0084
3320.0,0.0086
3319.0,0.0089
3318.0,0.0091
3317.0,0.0094
3316.0,0.0097
3315.0,0.0101
3314.0,0.0103
3313.0,0.0104
3312.0,0.0104
3311.0,0.0104
3310.0,0.0105
3309.0,0.0105
3308.0,0.0106
3307.0,0.0108
3306.0,0.0111
3305.0,0.0113
3304.0,0.0115
3303.0,0.0115
3302.0,0.0116
3301.0,0.0116
3300.0,0.0116
3299.0,0.0118
3298.0,0.012
3297.0,0.0122
3296.0,0.0123
3295.0,0.0123
3294.0,0.0121
3293.0,0.012
3292.0,0.012
3291.0,0.0122
3290.0,0.0123
3289.0,0.0125
3288.0,0.0126
3287.0,0.0127
3286.0,0.0128
3285.0,0.0129
3284.0,0.013
3283.0,0.0131
3282.0,0.0131
3281.0,0.013
3280.0,0.0129
3279.0,0.0129
3278.0,0.0129
3277.0,0.0129
3276.0,0.013
3275.0,0.013
3274.0,0.013
3273.0,0.013
3272.0,0.0129
3271.0,0.0127
3270.0,0.0127
3269.0,0.0126
3268.0,0.0127
3267.0,0.0127
3266.0,0.0127
3265.0,0.0127
3264.0,0.0126
3263.0,0.0123
3262.0,0.012
3261.0,0.0118
3260.0,0.0117
3259.0,0.0116
3258.0,0.0116
3257.0,0.0114
3256.0,0.0112
3255.0,0.0109
3254.0,0.0107
3253.0,0.0105
3252.0,0.0103
3251.0,0.0101
3250.0,0.0099
3249.0,0.0097
3248.0,0.0095
3247.0,0.0094
3246.0,0.0093
3245.0,0.0092
3244.0,0.0092
3243.0,0.0091
3242.0,0.009
3241.0,0.009
3240.0,0.0091
3239.0,0.0093
3238.0,0.0095
3237.0,0.0097
3236.0,0.0098
3235.0,0.01
3234.0,0.0101
3233.0,0.0102
3232.0,0.0104
3231.0,0.0105
3230.0,0.0107
3229.0,0.0109
3228.0,0.0111
3227.0,0.0113
3226.0,0.0115
3225.0,0.0118
3224.0,0.012
3223.0,0.0121
3222.0,0.0122
3221.0,0.0122
3220.0,0.0123
3219.0,0.0125
3218.0,0.0127
3217.0,0.0129
3216.0,0.0132
3215.0,0.0134
3214.0,0.0136
3213.0,0.0138
3212.0,0.0139
3211.0,0.014
3210.0,0.014
3209.0,0.0141
3208.0,0.0141
3207.0,0.0141
3206.0,0.0141
3205.0,0.014
3204.0,0.0139
3203.0,0.0139
3202.0,0.0139
3201.0,0.014
3200.0,0.014
3199.0,0.014
3198.0,0.014
3197.0,0.0139
3196.0,0.0138
3195.0,0.0137
3194.0,0.0137
3193.0,0.0137
3192.0,0.0137
3191.0,0.0137
3190.0,0.0137
3189.0,0.0136
3188.0,0.0136
3187.0,0.0136
3186.0,0.0135
3185.0,0.0135
3184.0,0.0133
3183.0,0.0131
3182.0,0.0129
3181.0,0.0128
3180.0,0.0128
3179.0,0.0129
3178.0,0.0129
3177.0,0.0129
3176.0,0.0128
3175.0,0.0127
3174.0,0.0125
3173.0,0.0125
3172.0,0.0124
3171.0,0.0124
3170.0,0.0124
3169.0,0.0123
3168.0,0.0123
3167.0,0.0122
3166.0,0.0121
3165.0,0.012
3164.0,0.0119
3163.0,0.0117
3162.0,0.0116
3161.0,0.0115
3160.0,0.0115
3159.0,0.0115
3158.0,0.0116
3157.0,0.0116
3156.0,0.0116
3155.0,0.0116
3154.0,0.0116
3153.0,0.0114
3152.0,0.0112
3151.0,0.011
3150.0,0.0109
3149.0,0.0108
3148.0,0.0108
3147.0,0.0108
3146.0,0.0108
3145.0,0.0107
3144.0,0.0106
3143.0,0.0104
3142.0,0.0103
3141.0,0.0102
3140.0,0.0101
3139.0,0.01
3138.0,0.0099
3137.0,0.0098
3136.0,0.0096
3135.0,0.0096
3134.0,0.0095
3133.0,0.0095
3132.0,0.0096
3131.0,0.0096
3130.0,0.0096
3129.0,0.0095
3128.0,0.0093
3127.0,0.0091
3126.0,0.0088
3125.0,0.0086
3124.0,0.0085
3123.0,0.0084
3122.0,0.0084
3121.0,0.0084
3120.0,0.0085
3119.0,0.0085
3118.0,0.0085
3117.0,0.0084
3116.0,0.0082
3115.0,0.0081
3114.0,0.0079
3113.0,0.0078
3112.0,0.0077
3111.0,0.0078
3110.0,0.0078
3109.0,0.0078
3108.0,0.0077
3107.0,0.0076
3106.0,0.0075
3105.0,0.0076
3104.0,0.0076
3103.0,0.0075
3102.0,0.0074
3101.0,0.0072
3100.0,0.0071
3099.0,0.007
3098.0,0.0069
3097.0,0.0068
3096.0,0.0068
3095.0,0.0067
3094.0,0.0067
3093.0,0.0066
3092.0,0.0065
3091.0,0.0064
3090.0,0.0063
3089.0,0.0062
3088.0,0.0062
3087.0,0.0061
3086.0,0.0061
3085.0,0.006
3084.0,0.006
3083.0,0.006
3082.0,0.0059
3081.0,0.0058
3080.0,0.0058
3079.0,0.0057
3078.0,0.0056
3077.0,0.0056
3076.0,0.0055
3075.0,0.0055
3074.0,0.0055
3073.0,0.0054
3072.0,0.0053
3071.0,0.0053
3070.0,0.0052
3069.0,0.0051
3068.0,0.005
3067.0,0.0049
3066.0,0.0048
3065.0,0.0048
3064.0,0.0047
3063.0,0.0046
3062.0,0.0046
3061.0,0.0045
3060.0,0.0044
3059.0,0.0044
3058.0,0.0043
3057.0,0.0042
3056.0,0.0042
3055.0,0.0041
3054.0,0.0041
3053.0,0.0041
3052.0,0.004
3051.0,0.0039
3050.0,0.0038
3049.0,0.0037
3048.0,0.0037
3047.0,0.0037
3046.0,0.0037
3045.0,0.0037
3044.0,0.0037
3043.0,0.0036
3042.0,0.0036
3041.0,0.0035
3040.0,0.0034
3039.0,0.0033
3038.0,0.0032
3037.0,0.0032
3036.0,0.0031
3035.0,0.003
3034.0,0.003
3033.0,0.003
3032.0,0.003
3031.0,0.003
3030.0,0.003
3029.0,0.0029
3028.0,0.0029
3027.0,0.0029
3026.0,0.003
3025.0,0.0029
3024.0,0.0028
3023.0,0.0027
3022.0,0.0026
3021.0,0.0026
3020.0,0.0026
3019.0,0.0026
3018.0,0.0026
3017.0,0.0026
3016.0,0.0025
3015.0,0.0024
3014.0,0.0023
3013.0,0.0022
3012.0,0.0022
3011.0,0.0022
3010.0,0.0022
3009.0,0.0022
3008.0,0.0022
3007.0,0.0022
3006.0,0.0021
3005.0,0.002
3004.0,0.0019
3003.0,0.0018
3002.0,0.0018
3001.0,0.0018
3000.0,0.0018
2999.0,0.0017
2998.0,0.0017
2997.0,0.0016
2996.0,0.0015
2995.0,0.0015
2994.0,0.0015
2993.0,0.0016
2992.0,0.0016
2991.0,0.0017
2990.0,0.0016
2989.0,0.0016
2988.0,0.0014
2987.0,0.0013
2986.0,0.0012
2985.0,0.0013
2984.0,0.0013
2983.0,0.0013
2982.0,0.0013
2981.0,0.0012
2980.0,0.0012
2979.0,0.0012
2978.0,0.0013
2977.0,0.0013
2976.0,0.0012
2975.0,0.0011
2974.0,0.0011
2973.0,0.0011
2972.0,0.0011
2971.0,0.0011
2970.0,0.0011
2969.0,0.001
2968.0,0.001
2967.0,0.0009
2966.0,0.0008
2965.0,0.0007
2964.0,0.0005
2963.0,0.0004
2962.0,0.0004
2961.0,0.0003
2960.0,0.0004
2959.0,0.0005
2958.0,0.0005
2957.0,0.0006
2956.0,0.0006
2955.0,0.0006
2954.0,0.0006
2953.0,0.0005
2952.0,0.0005
2951.0,0.0004
2950.0,0.0004
2949.0,0.0003
2948.0,0.0003
2947.0,0.0003
2946.0,0.0004
2945.0,0.0004
2944.0,0.0003
2943.0,0.0003
2942.0,0.0002
2941.0,0.0001
2940.0,0.0
2939.0,-0.0
2938.0,-0.0
2937.0,-0.0
2936.0,0.0
2935.0,0.0
2934.0,0.0
2933.0,-0.0
2932.0,-0.0001
2931.0,-0.0001
2930.0,-0.0001
2929.0,-0.0001
2928.0,-0.0002
2927.0,-0.0003
2926.0,-0.0003
2925.0,-0.0003
2924.0,-0.0003
2923.0,-0.0003
2922.0,-0.0003
2921.0,-0.0003
2920.0,-0.0003
2919.0,-0.0003
2918.0,-0.0004
2917.0,-0.0004
2916.0,-0.0004
2915.0,-0.0005
2914.0,-0.0005
2913.0,-0.0005
2912.0,-0.0005
2911.0,-0.0004
2910.0,-0.0005
2909.0,-0.0005
2908.0,-0.0005
2907.0,-0.0005
2906.0,-0.0005
2905.0,-0.0006
2904.0,-0.0006
2903.0,-0.0006
2902.0,-0.0006
2901.0,-0.0006
2900.0,-0.0005
2899.0,-0.0006
2898.0,-0.0006
2897.0,-0.0007
2896.0,-0.0008
2895.0,-0.0009
2894.0,-0.0009
2893.0,-0.0009
2892.0,-0.0009
2891.0,-0.0008
2890.0,-0.0008
2889.0,-0.0007
2888.0,-0.0007
2887.0,-0.0007
2886.0,-0.0007
2885.0,-0.0007
2884.0,-0.0007
2883.0,-0.0007
2882.0,-0.0007
2881.0,-0.0007
2880.0,-0.0008
2879.0,-0.0008
2878.0,-0.0008
2877.0,-0.0007
2876.0,-0.0007
2875.0,-0.0007
2874.0,-0.0008
2873.0,-0.0009
2872.0,-0.0009
2871.0,-0.0008
2870.0,-0.0008
2869.0,-0.0008
2868.0,-0.0009
2867.0,-0.0009
2866.0,-0.0009
2865.0,-0.0009
2864.0,-0.0009
2863.0,-0.0009
2862.0,-0.001
2861.0,-0.001
2860.0,-0.001
2859.0,-0.001
2858.0,-0.0011
2857.0,-0.0011
2856.0,-0.0012
2855.0,-0.0013
2854.0,-0.0014
2853.0,-0.0015
2852.0,-0.0015
2851.0,-0.0015
2850.0,-0.0015
2849.0,-0.0014
2848.0,-0.0014
2847.0,-0.0013
2846.0,-0.0012
2845.0,-0.0012
2844.0,-0.0012
2843.0,-0.0012
2842.0,-0.0012
2841.0,-0.0013
2840.0,-0.0013
2839.0,-0.0013
2838.0,-0.0013
2837.0,-0.0013
2836.0,-0.0014
2835.0,-0.0015
2834.0,-0.0015
2833.0,-0.0016
2832.0,-0.0016
2831.0,-0.0015
2830.0,-0.0015
2829.0,-0.0014
2828.0,-0.0015
2827.0,-0.0015
2826.0,-0.0016
2825.0,-0.0017
2824.0,-0.0017
2823.0,-0.0017
2822.0,-0.0017
2821.0,-0.0018
2820.0,-0.0018
2819.0,-0.0018
2818.0,-0.0018
2817.0,-0.0018
2816.0,-0.0018
2815.0,-0.0018
2814.0,-0.0017
2813.0,-0.0017
2812.0,-0.0017
2811.0,-0.0018
2810.0,-0.0018
2809.0,-0.0018
2808.0,-0.0019
2807.0,-0.0019
2806.0,-0.0019
2805.0,-0.0019
2804.0,-0.0018
2803.0,-0.0018
2802.0,-0.0018
2801.0,-0.0017
2800.0,-0.0017
2799.0,-0.0017
2798.0,-0.0018
2797.0,-0.0019
2796.0,-0.0019
2795.0,-0.002
2794.0,-0.002
2793.0,-0.0019
2792.0,-0.0019
2791.0,-0.002
2790.0,-0.002
2789.0,-0.002
2788.0,-0.002
2787.0,-0.002
2786.0,-0.002
2785.0,-0.0019
2784.0,-0.0019
2783.0,-0.0019
2782.0,-0.0019
2781.0,-0.0019
2780.0,-0.0019
2779.0,-0.002
2778.0,-0.002
2777.0,-0.0021
2776.0,-0.0021
2775.0,-0.0022
2774.0,-0.0022
2773.0,-0.0021
2772.0,-0.0021
2771.0,-0.0021
2770.0,-0.0021
2769.0,-0.0021
2768.0,-0.0021
2767.0,-0.0021
2766.0,-0.0021
2765.0,-0.0022
2764.0,-0.0022
2763.0,-0.0022
2762.0,-0.0021
2761.0,-0.0021
2760.0,-0.0021
2759.0,-0.0021
2758.0,-0.0021
2757.0,-0.0021
2756.0,-0.0021
2755.0,-0.0022
2754.0,-0.0022
2753.0,-0.0022
2752.0,-0.0022
2751.0,-0.0022
2750.0,-0.0023
2749.0,-0.0023
2748.0,-0.0022
2747.0,-0.0022
2746.0,-0.0022
2745.0,-0.0022
2744.0,-0.0022
2743.0,-0.0021
2742.0,-0.0021
2741.0,-0.0021
2740.0,-0.0022
2739.0,-0.0022
2738.0,-0.0023
2737.0,-0.0023
2736.0,-0.0024
2735.0,-0.0023
2734.0,-0.0023
2733.0,-0.0023
2732.0,-0.0022
2731.0,-0.0022
2730.0,-0.0022
2729.0,-0.0022
2728.0,-0.0022
2727.0,-0.0022
2726.0,-0.0023
2725.0,-0.0024
2724.0,-0.0024
2723.0,-0.0025
2722.0,-0.0025
2721.0,-0.0024
2720.0,-0.0024
2719.0,-0.0024
2718.0,-0.0024
2717.0,-0.0024
2716.0,-0.0024
2715.0,-0.0023
2714.0,-0.0023
2713.0,-0.0024
2712.0,-0.0025
2711.0,-0.0025
2710.0,-0.0025
2709.0,-0.0025
2708.0,-0.0024
2707.0,-0.0023
2706.0,-0.0023
2705.0,-0.0023
2704.0,-0.0024
2703.0,-0.0024
2702.0,-0.0024
2701.0,-0.0025
2700.0,-0.0025
2699.0,-0.0025
2698.0,-0.0025
2697.0,-0.0025
2696.0,-0.0025
2695.0,-0.0024
2694.0,-0.0024
2693.0,-0.0024
2692.0,-0.0024
2691.0,-0.0025
2690.0,-0.0025
2689.0,-0.0024
2688.0,-0.0024
2687.0,-0.0025
2686.0,-0.0025
2685.0,-0.0025
2684.0,-0.0025
2683.0,-0.0025
2682.0,-0.0025
2681.0,-0.0026
2680.0,-0.0026
2679.0,-0.0026
2678.0,-0.0027
2677.0,-0.0027
2676.0,-0.0027
2675.0,-0.0027
2674.0,-0.0027
2673.0,-0.0027
2672.0,-0.0026
2671.0,-0.0026
2670.0,-0.0026
2669.0,-0.0026
2668.0,-0.0026
2667.0,-0.0027
2666.0,-0.0027
2665.0,-0.0027
2664.0,-0.0027
2663.0,-0.0027
2662.0,-0.0027
2661.0,-0.0027
2660.0,-0.0027
2659.0,-0.0027
2658.0,-0.0026
2657.0,-0.0027
2656.0,-0.0027
2655.0,-0.0027
2654.0,-0.0026
2653.0,-0.0025
2652.0,-0.0025
2651.0,-0.0025
2650.0,-0.0025
2649.0,-0.0025
2648.0,-0.0026
2647.0,-0.0026
2646.0,-0.0026
2645.0,-0.0026
2644.0,-0.0026
2643.0,-0.0026
2642.0,-0.0026
2641.0,-0.0027
2640.0,-0.0027
2639.0,-0.0027
2638.0,-0.0026
2637.0,-0.0026
2636.0,-0.0026
2635.0,-0.0026
2634.0,-0.0027
2633.0,-0.0028
2632.0,-0.0028
2631.0,-0.0028
2630.0,-0.0028
2629.0,-0.0028
2628.0,-0.0028
2627.0,-0.0027
2626.0,-0.0027
2625.0,-0.0027
2624.0,-0.0028
2623.0,-0.0028
2622.0,-0.0028
2621.0,-0.0027
2620.0,-0.0027
2619.0,-0.0026
2618.0,-0.0026
2617.0,-0.0027
2616.0,-0.0027
2615.0,-0.0027
2614.0,-0.0026
2613.0,-0.0026
2612.0,-0.0026
2611.0,-0.0026
2610.0,-0.0027
2609.0,-0.0027
2608.0,-0.0026
2607.0,-0.0026
2606.0,-0.0026
2605.0,-0.0026
2604.0,-0.0026
2603.0,-0.0027
2602.0,-0.0028
2601.0,-0.0028
2600.0,-0.0029
2599.0,-0.0029
2598.0,-0.0029
2597.0,-0.0028
2596.0,-0.0028
2595.0,-0.0027
2594.0,-0.0027
2593.0,-0.0028
2592.0,-0.0027
2591.0,-0.0027
2590.0,-0.0027
2589.0,-0.0027
2588.0,-0.0027
2587.0,-0.0027
2586.0,-0.0027
2585.0,-0.0028
2584.0,-0.0028
2583.0,-0.0028
2582.0,-0.0028
2581.0,-0.0028
2580.0,-0.0027
2579.0,-0.0027
2578.0,-0.0027
2577.0,-0.0027
2576.0,-0.0027
2575.0,-0.0027
2574.0,-0.0028
2573.0,-0.0028
2572.0,-0.0028
2571.0,-0.0028
2570.0,-0.0028
2569.0,-0.0027
2568.0,-0.0027
2567.0,-0.0027
2566.0,-0.0028
2565.0,-0.0028
2564.0,-0.0028
2563.0,-0.0028
2562.0,-0.0028
2561.0,-0.0028
2560.0,-0.0028
2559.0,-0.0028
2558.0,-0.0028
2557.0,-0.0027
2556.0,-0.0027
2555.0,-0.0027
2554.0,-0.0028
2553.0,-0.0028
2552.0,-0.0028
2551.0,-0.0028
2550.0,-0.0028
2549.0,-0.0028
2548.0,-0.0027
2547.0,-0.0027
2546.0,-0.0027
2545.0,-0.0028
2544.0,-0.0028
2543.0,-0.0028
2542.0,-0.0029
2541.0,-0.0029
2540.0,-0.0029
2539.0,-0.0029
2538.0,-0.0029
2537.0,-0.0028
2536.0,-0.0028
2535.0,-0.0028
2534.0,-0.0028
2533.0,-0.0028
2532.0,-0.0029
2531.0,-0.0029
2530.0,-0.0029
2529.0,-0.0029
2528.0,-0.0029
2527.0,-0.0029
2526.0,-0.0029
2525.0,-0.0029
2524.0,-0.0029
2523.0,-0.003
2522.0,-0.0029
2521.0,-0.0029
2520.0,-0.0029
2519.0,-0.0028
2518.0,-0.0028
2517.0,-0.0028
2516.0,-0.0029
2515.0,-0.0028
2514.0,-0.0028
2513.0,-0.0027
2512.0,-0.0027
2511.0,-0.0027
2510.0,-0.0027
2509.0,-0.0028
2508.0,-0.0028
2507.0,-0.0028
2506.0,-0.0027
2505.0,-0.0027
2504.0,-0.0027
2503.0,-0.0027
2502.0,-0.0027
2501.0,-0.0027
2500.0,-0.0028
2499.0,-0.0028
2498.0,-0.0028
2497.0,-0.0028
2496.0,-0.0029
2495.0,-0.0028
2494.0,-0.0028
2493.0,-0.0028
2492.0,-0.0028
2491.0,-0.0028
2490.0,-0.0028
2489.0,-0.0028
2488.0,-0.0028
2487.0,-0.0028
2486.0,-0.0028
2485.0,-0.0029
2484.0,-0.0029
2483.0,-0.0029
2482.0,-0.0028
2481.0,-0.0028
2480.0,-0.0028
2479.0,-0.0028
2478.0,-0.0028
2477.0,-0.0029
2476.0,-0.0029
2475.0,-0.003
2474.0,-0.003
2473.0,-0.0031
2472.0,-0.003
2471.0,-0.003
2470.0,-0.0029
2469.0,-0.0029
2468.0,-0.0028
2467.0,-0.0028
2466.0,-0.0028
2465.0,-0.0028
2464.0,-0.0028
2463.0,-0.0028
2462.0,-0.0028
2461.0,-0.0028
2460.0,-0.0028
2459.0,-0.0028
2458.0,-0.0028
2457.0,-0.0028
2456.0,-0.0028
2455.0,-0.0028
2454.0,-0.0028
2453.0,-0.0028
2452.0,-0.0029
2451.0,-0.0029
2450.0,-0.0028
2449.0,-0.0028
2448.0,-0.0028
2447.0,-0.0028
2446.0,-0.0027
2445.0,-0.0028
2444.0,-0.0028
2443.0,-0.0028
2442.0,-0.0027
2441.0,-0.0027
2440.0,-0.0026
2439.0,-0.0026
2438.0,-0.0027
2437.0,-0.0027
2436.0,-0.0027
2435.0,-0.0027
2434.0,-0.0026
2433.0,-0.0026
2432.0,-0.0026
2431.0,-0.0026
2430.0,-0.0026
2429.0,-0.0027
2428.0,-0.0027
2427.0,-0.0027
2426.0,-0.0027
2425.0,-0.0027
2424.0,-0.0027
2423.0,-0.0027
2422.0,-0.0027
2421.0,-0.0027
2420.0,-0.0026
2419.0,-0.0026
2418.0,-0.0026
2417.0,-0.0026
2416.0,-0.0026
2415.0,-0.0026
2414.0,-0.0026
2413.0,-0.0026
2412.0,-0.0026
2411.0,-0.0026
2410.0,-0.0026
2409.0,-0.0026
2408.0,-0.0027
2407.0,-0.0027
2406.0,-0.0027
2405.0,-0.0027
2404.0,-0.0026
2403.0,-0.0026
2402.0,-0.0025
2401.0,-0.0025
2400.0,-0.0025
2399.0,-0.0025
2398.0,-0.0026
2397.0,-0.0026
2396.0,-0.0025
2395.0,-0.0025
2394.0,-0.0025
2393.0,-0.0025
2392.0,-0.0026
2391.0,-0.0025
2390.0,-0.0025
2389.0,-0.0024
2388.0,-0.0024
2387.0,-0.0023
2386.0,-0.0023
2385.0,-0.0021
2384.0,-0.002
2383.0,-0.0017
2382.0,-0.0015
2381.0,-0.0014
2380.0,-0.0013
2379.0,-0.0013
2378.0,-0.0014
2377.0,-0.0016
2376.0,-0.0017
2375.0,-0.0017
2374.0,-0.0014
2373.0,-0.0011
2372.0,-0.0008
2371.0,-0.0004
2370.0,-0.0002
2369.0,-0.0001
2368.0,-0.0002
2367.0,-0.0005
2366.0,-0.0012
2365.0,-0.002
2364.0,-0.0025
2363.0,-0.0025
2362.0,-0.0022
2361.0,-0.002
2360.0,-0.002
2359.0,-0.0019
2358.0,-0.0016
2357.0,-0.001
2356.0,-0.0002
2355.0,0.0006
2354.0,0.0012
2353.0,0.0009
2352.0,0.0001
2351.0,-0.0006
2350.0,-0.0007
2349.0,-0.0001
2348.0,0.0009
2347.0,0.0016
2346.0,0.0017
2345.0,0.0013
2344.0,0.0007
2343.0,0.0001
2342.0,-0.0004
2341.0,-0.0007
2340.0,-0.0006
2339.0,-0.0004
2338.0,-0.0002
2337.0,-0.0001
2336.0,-0.0003
2335.0,-0.0003
2334.0,-0.0003
2333.0,-0.0
2332.0,0.0002
2331.0,0.0003
2330.0,0.0
2329.0,-0.0003
2328.0,-0.0004
2327.0,-0.0001
2326.0,0.0003
2325.0,0.0004
2324.0,0.0001
2323.0,-0.0002
2322.0,-0.0004
2321.0,-0.0005
2320.0,-0.0006
2319.0,-0.0007
2318.0,-0.0009
2317.0,-0.001
2316.0,-0.0012
2315.0,-0.0012
2314.0,-0.0012
2313.0,-0.0011
2312.0,-0.0009
2311.0,-0.0008
2310.0,-0.0007
2309.0,-0.0008
2308.0,-0.001
2307.0,-0.0011
2306.0,-0.0013
2305.0,-0.0013
2304.0,-0.0014
2303.0,-0.0015
2302.0,-0.0016
2301.0,-0.0017
2300.0,-0.0017
2299.0,-0.0018
2298.0,-0.0018
2297.0,-0.0019
2296.0,-0.002
2295.0,-0.0021
2294.0,-0.0021
2293.0,-0.0022
2292.0,-0.0023
2291.0,-0.0023
2290.0,-0.0024
2289.0,-0.0024
2288.0,-0.0025
2287.0,-0.0026
2286.0,-0.0027
2285.0,-0.0028
2284.0,-0.0028
2283.0,-0.0028
2282.0,-0.0028
2281.0,-0.0028
2280.0,-0.0028
2279.0,-0.0028
2278.0,-0.0028
2277.0,-0.0028
2276.0,-0.0027
2275.0,-0.0027
2274.0,-0.0027
2273.0,-0.0027
2272.0,-0.0028
2271.0,-0.0028
2270.0,-0.0029
2269.0,-0.0029
2268.0,-0.003
2267.0,-0.0031
2266.0,-0.003
2265.0,-0.003
2264.0,-0.0029
2263.0,-0.0029
2262.0,-0.0028
2261.0,-0.0029
2260.0,-0.0029
2259.0,-0.0029
2258.0,-0.0029
2257.0,-0.0029
2256.0,-0.0029
2255.0,-0.0029
2254.0,-0.003
2253.0,-0.003
2252.0,-0.003
2251.0,-0.003
2250.0,-0.003
2249.0,-0.003
2248.0,-0.003
2247.0,-0.003
2246.0,-0.003
2245.0,-0.003
2244.0,-0.003
2243.0,-0.0029
2242.0,-0.0029
2241.0,-0.003
2240.0,-0.003
2239.0,-0.0031
2238.0,-0.0031
2237.0,-0.0031
2236.0,-0.0031
2235.0,-0.0031
2234.0,-0.0031
2233.0,-0.003
2232.0,-0.003
2231.0,-0.0029
2230.0,-0.0029
2229.0,-0.0028
2228.0,-0.0028
2227.0,-0.0028
2226.0,-0.0028
2225.0,-0.0028
2224.0,-0.0029
2223.0,-0.003
2222.0,-0.003
2221.0,-0.003
2220.0,-0.003
2219.0,-0.003
2218.0,-0.0029
2217.0,-0.0029
2216.0,-0.0029
2215.0,-0.0029
2214.0,-0.0029
2213.0,-0.003
2212.0,-0.003
2211.0,-0.003
2210.0,-0.003
2209.0,-0.003
2208.0,-0.0029
2207.0,-0.0029
2206.0,-0.0029
2205.0,-0.003
2204.0,-0.003
2203.0,-0.003
2202.0,-0.003
2201.0,-0.003
2200.0,-0.003
2199.0,-0.003
2198.0,-0.003
2197.0,-0.0029
2196.0,-0.0029
2195.0,-0.0029
2194.0,-0.0029
2193.0,-0.0029
2192.0,-0.0029
2191.0,-0.0029
2190.0,-0.0029
2189.0,-0.0029
2188.0,-0.0029
2187.0,-0.0029
2186.0,-0.0028
2185.0,-0.0028
2184.0,-0.0028
2183.0,-0.0029
2182.0,-0.003
2181.0,-0.003
2180.0,-0.0029
2179.0,-0.0029
2178.0,-0.0028
2177.0,-0.0028
2176.0,-0.0028
2175.0,-0.0029
2174.0,-0.0029
2173.0,-0.003
2172.0,-0.003
2171.0,-0.0029
2170.0,-0.0029
2169.0,-0.0029
2168.0,-0.0029
2167.0,-0.0029
2166.0,-0.0029
2165.0,-0.0028
2164.0,-0.0028
2163.0,-0.0028
2162.0,-0.0028
2161.0,-0.0028
2160.0,-0.0028
2159.0,-0.0028
2158.0,-0.0028
2157.0,-0.0028
2156.0,-0.0028
2155.0,-0.0027
2154.0,-0.0027
2153.0,-0.0027
2152.0,-0.0028
2151.0,-0.0028
2150.0,-0.0028
2149.0,-0.0027
2148.0,-0.0027
2147.0,-0.0027
2146.0,-0.0027
2145.0,-0.0027
2144.0,-0.0027
2143.0,-0.0027
2142.0,-0.0027
2141.0,-0.0027
2140.0,-0.0027
2139.0,-0.0027
2138.0,-0.0027
2137.0,-0.0027
2136.0,-0.0027
2135.0,-0.0028
2134.0,-0.0027
2133.0,-0.0027
2132.0,-0.0027
2131.0,-0.0026
2130.0,-0.0026
2129.0,-0.0027
2128.0,-0.0027
2127.0,-0.0028
2126.0,-0.0028
2125.0,-0.0028
2124.0,-0.0028
2123.0,-0.0027
2122.0,-0.0026
2121.0,-0.0025
2120.0,-0.0025
2119.0,-0.0026
2118.0,-0.0026
2117.0,-0.0026
2116.0,-0.0026
2115.0,-0.0026
2114.0,-0.0026
2113.0,-0.0026
2112.0,-0.0025
2111.0,-0.0025
2110.0,-0.0025
2109.0,-0.0025
2108.0,-0.0025
2107.0,-0.0025
2106.0,-0.0025
2105.0,-0.0025
2104.0,-0.0026
2103.0,-0.0027
2102.0,-0.0027
2101.0,-0.0027
2100.0,-0.0027
2099.0,-0.0026
2098.0,-0.0025
2097.0,-0.0025
2096.0,-0.0025
2095.0,-0.0025
2094.0,-0.0025
2093.0,-0.0025
2092.0,-0.0026
2091.0,-0.0026
2090.0,-0.0025
2089.0,-0.0025
2088.0,-0.0025
2087.0,-0.0025
2086.0,-0.0025
2085.0,-0.0026
2084.0,-0.0026
2083.0,-0.0026
2082.0,-0.0026
2081.0,-0.0026
2080.0,-0.0026
2079.0,-0.0026
2078.0,-0.0026
2077.0,-0.0026
2076.0,-0.0026
2075.0,-0.0026
2074.0,-0.0027
2073.0,-0.0027
2072.0,-0.0027
2071.0,-0.0027
2070.0,-0.0027
2069.0,-0.0027
2068.0,-0.0027
2067.0,-0.0026
2066.0,-0.0026
2065.0,-0.0026
2064.0,-0.0025
2063.0,-0.0026
2062.0,-0.0026
2061.0,-0.0026
2060.0,-0.0026
2059.0,-0.0026
2058.0,-0.0026
2057.0,-0.0026
2056.0,-0.0025
2055.0,-0.0025
2054.0,-0.0025
2053.0,-0.0025
2052.0,-0.0025
2051.0,-0.0025
2050.0,-0.0026
2049.0,-0.0026
2048.0,-0.0026
2047.0,-0.0026
2046.0,-0.0026
2045.0,-0.0026
2044.0,-0.0026
2043.0,-0.0026
2042.0,-0.0026
2041.0,-0.0025
2040.0,-0.0025
2039.0,-0.0025
2038.0,-0.0026
2037.0,-0.0026
2036.0,-0.0026
2035.0,-0.0026
2034.0,-0.0026
2033.0,-0.0025
2032.0,-0.0025
2031.0,-0.0025
2030.0,-0.0025
2029.0,-0.0025
2028.0,-0.0026
2027.0,-0.0026
2026.0,-0.0026
2025.0,-0.0025
2024.0,-0.0024
2023.0,-0.0024
2022.0,-0.0024
2021.0,-0.0024
2020.0,-0.0025
2019.0,-0.0025
2018.0,-0.0025
2017.0,-0.0025
2016.0,-0.0026
2015.0,-0.0026
2014.0,-0.0026
2013.0,-0.0026
2012.0,-0.0026
2011.0,-0.0026
2010.0,-0.0025
2009.0,-0.0025
2008.0,-0.0025
2007.0,-0.0025
2006.0,-0.0026
2005.0,-0.0026
2004.0,-0.0026
2003.0,-0.0026
2002.0,-0.0026
2001.0,-0.0026
2000.0,-0.0026
1999.0,-0.0026
1998.0,-0.0025
1997.0,-0.0026
1996.0,-0.0026
1995.0,-0.0026
1994.0,-0.0026
1993.0,-0.0026
1992.0,-0.0026
1991.0,-0.0026
1990.0,-0.0025
1989.0,-0.0025
1988.0,-0.0026
1987.0,-0.0026
1986.0,-0.0027
1985.0,-0.0027
1984.0,-0.0027
1983.0,-0.0027
1982.0,-0.0026
1981.0,-0.0026
1980.0,-0.0025
1979.0,-0.0026
1978.0,-0.0026
1977.0,-0.0027
1976.0,-0.0027
1975.0,-0.0027
1974.0,-0.0027
1973.0,-0.0026
1972.0,-0.0026
1971.0,-0.0025
1970.0,-0.0025
1969.0,-0.0025
1968.0,-0.0024
1967.0,-0.0025
1966.0,-0.0025
1965.0,-0.0025
1964.0,-0.0026
1963.0,-0.0026
1962.0,-0.0027
1961.0,-0.0027
1960.0,-0.0027
1959.0,-0.0026
1958.0,-0.0026
1957.0,-0.0025
1956.0,-0.0025
1955.0,-0.0025
1954.0,-0.0025
1953.0,-0.0025
1952.0,-0.0025
1951.0,-0.0025
1950.0,-0.0025
1949.0,-0.0025
1948.0,-0.0025
1947.0,-0.0025
1946.0,-0.0025
1945.0,-0.0025
1944.0,-0.0025
1943.0,-0.0026
1942.0,-0.0026
1941.0,-0.0027
1940.0,-0.0027
1939.0,-0.0027
1938.0,-0.0027
1937.0,-0.0027
1936.0,-0.0027
1935.0,-0.0027
1934.0,-0.0027
1933.0,-0.0027
1932.0,-0.0026
1931.0,-0.0026
1930.0,-0.0026
1929.0,-0.0026
1928.0,-0.0027
1927.0,-0.0027
1926.0,-0.0027
1925.0,-0.0027
1924.0,-0.0027
1923.0,-0.0026
1922.0,-0.0026
1921.0,-0.0026
1920.0,-0.0027
1919.0,-0.0027
1918.0,-0.0028
1917.0,-0.0028
1916.0,-0.0028
1915.0,-0.0027
1914.0,-0.0026
1913.0,-0.0026
1912.0,-0.0026
1911.0,-0.0026
1910.0,-0.0027
1909.0,-0.0027
1908.0,-0.0026
1907.0,-0.0026
1906.0,-0.0026
1905.0,-0.0026
1904.0,-0.0026
1903.0,-0.0027
1902.0,-0.0027
1901.0,-0.0027
1900.0,-0.0027
1899.0,-0.0028
1898.0,-0.0027
1897.0,-0.0027
1896.0,-0.0027
1895.0,-0.0027
1894.0,-0.0027
1893.0,-0.0027
1892.0,-0.0026
1891.0,-0.0026
1890.0,-0.0026
1889.0,-0.0027
1888.0,-0.0027
1887.0,-0.0027
1886.0,-0.0027
1885.0,-0.0026
1884.0,-0.0026
1883.0,-0.0026
1882.0,-0.0026
1881.0,-0.0026
1880.0,-0.0027
1879.0,-0.0027
1878.0,-0.0027
1877.0,-0.0027
1876.0,-0.0027
1875.0,-0.0027
1874.0,-0.0027
1873.0,-0.0028
1872.0,-0.0028
1871.0,-0.0028
1870.0,-0.0028
1869.0,-0.0027
1868.0,-0.0027
1867.0,-0.0028
1866.0,-0.0028
1865.0,-0.0028
1864.0,-0.0028
1863.0,-0.0028
1862.0,-0.0028
1861.0,-0.0029
1860.0,-0.0029
1859.0,-0.0029
1858.0,-0.0029
1857.0,-0.0029
1856.0,-0.0028
1855.0,-0.0028
1854.0,-0.0027
1853.0,-0.0027
1852.0,-0.0027
1851.0,-0.0027
1850.0,-0.0027
1849.0,-0.0027
1848.0,-0.0027
1847.0,-0.0027
1846.0,-0.0027
1845.0,-0.0028
1844.0,-0.0028
1843.0,-0.0028
1842.0,-0.0029
1841.0,-0.0029
1840.0,-0.0028
1839.0,-0.0027
1838.0,-0.0027
1837.0,-0.0027
1836.0,-0.0026
1835.0,-0.0026
1834.0,-0.0026
1833.0,-0.0025
1832.0,-0.0025
1831.0,-0.0024
1830.0,-0.0024
1829.0,-0.0024
1828.0,-0.0024
1827.0,-0.0024
1826.0,-0.0025
1825.0,-0.0026
1824.0,-0.0027
1823.0,-0.0027
1822.0,-0.0028
1821.0,-0.0028
1820.0,-0.0028
1819.0,-0.0028
1818.0,-0.0027
1817.0,-0.0027
1816.0,-0.0026
1815.0,-0.0026
1814.0,-0.0026
1813.0,-0.0026
1812.0,-0.0025
1811.0,-0.0025
1810.0,-0.0025
1809.0,-0.0026
1808.0,-0.0026
1807.0,-0.0026
1806.0,-0.0026
1805.0,-0.0026
1804.0,-0.0026
1803.0,-0.0026
1802.0,-0.0026
1801.0,-0.0026
1800.0,-0.0025
1799.0,-0.0025
1798.0,-0.0025
1797.0,-0.0025
1796.0,-0.0025
1795.0,-0.0025
1794.0,-0.0025
1793.0,-0.0025
1792.0,-0.0025
1791.0,-0.0024
1790.0,-0.0024
1789.0,-0.0024
1788.0,-0.0024
1787.0,-0.0024
1786.0,-0.0025
1785.0,-0.0025
1784.0,-0.0026
1783.0,-0.0026
1782.0,-0.0026
1781.0,-0.0026
1780.0,-0.0026
1779.0,-0.0026
1778.0,-0.0026
1777.0,-0.0025
1776.0,-0.0024
1775.0,-0.0023
1774.0,-0.0023
1773.0,-0.0023
1772.0,-0.0024
1771.0,-0.0025
1770.0,-0.0025
1769.0,-0.0025
1768.0,-0.0025
1767.0,-0.0025
1766.0,-0.0025
1765.0,-0.0025
1764.0,-0.0025
1763.0,-0.0025
1762.0,-0.0025
1761.0,-0.0025
1760.0,-0.0024
1759.0,-0.0024
1758.0,-0.0024
1757.0,-0.0024
1756.0,-0.0024
1755.0,-0.0024
1754.0,-0.0024
1753.0,-0.0024
1752.0,-0.0024
1751.0,-0.0024
1750.0,-0.0024
1749.0,-0.0025
1748.0,-0.0025
1747.0,-0.0025
1746.0,-0.0026
1745.0,-0.0026
1744.0,-0.0026
1743.0,-0.0025
1742.0,-0.0025
1741.0,-0.0025
1740.0,-0.0024
1739.0,-0.0024
1738.0,-0.0023
1737.0,-0.0022
1736.0,-0.0023
1735.0,-0.0023
1734.0,-0.0023
1733.0,-0.0023
1732.0,-0.0022
1731.0,-0.0021
1730.0,-0.0021
1729.0,-0.0021
1728.0,-0.002
1727.0,-0.002
1726.0,-0.0019
1725.0,-0.0018
1724.0,-0.0018
1723.0,-0.0017
1722.0,-0.0016
1721.0,-0.0016
1720.0,-0.0015
1719.0,-0.0015
1718.0,-0.0014
1717.0,-0.0013
1716.0,-0.0011
1715.0,-0.001
1714.0,-0.0009
1713.0,-0.0009
1712.0,-0.0008
1711.0,-0.0008
1710.0,-0.0007
1709.0,-0.0007
1708.0,-0.0006
1707.0,-0.0005
1706.0,-0.0005
1705.0,-0.0004
1704.0,-0.0003
1703.0,-0.0003
1702.0,-0.0003
1701.0,-0.0003
1700.0,-0.0
1699.0,0.0003
1698.0,0.0005
1697.0,0.0006
1696.0,0.0007
1695.0,0.0008
1694.0,0.0009
1693.0,0.001
1692.0,0.0011
1691.0,0.0013
1690.0,0.0014
1689.0,0.0016
1688.0,0.0018
1687.0,0.0018
1686.0,0.0018
1685.0,0.0019
1684.0,0.0022
1683.0,0.0025
1682.0,0.0028
1681.0,0.003
1680.0,0.0032
1679.0,0.0033
1678.0,0.0034
1677.0,0.0035
1676.0,0.0036
1675.0,0.0038
1674.0,0.004
1673.0,0.0041
1672.0,0.0043
1671.0,0.0044
1670.0,0.0046
1669.0,0.0048
1668.0,0.0049
1667.0,0.0049
1666.0,0.0049
1665.0,0.005
1664.0,0.005
1663.0,0.005
1662.0,0.005
1661.0,0.005
1660.0,0.0049
1659.0,0.0049
1658.0,0.0048
1657.0,0.0047
1656.0,0.0046
1655.0,0.0043
1654.0,0.0037
1653.0,0.0032
1652.0,0.0029
1651.0,0.0028
1650.0,0.0026
1649.0,0.0024
1648.0,0.0022
1647.0,0.0018
1646.0,0.0013
1645.0,0.001
1644.0,0.0006
1643.0,0.0002
1642.0,-0.0002
1641.0,-0.0006
1640.0,-0.0011
1639.0,-0.0014
1638.0,-0.0017
1637.0,-0.0018
1636.0,-0.0018
1635.0,-0.0018
1634.0,-0.0019
1633.0,-0.0017
1632.0,-0.0014
1631.0,-0.001
1630.0,-0.0003
1629.0,0.0007
1628.0,0.0019
1627.0,0.003
1626.0,0.004
1625.0,0.0049
1624.0,0.0059
1623.0,0.0068
1622.0,0.0075
1621.0,0.0078
1620.0,0.0079
1619.0,0.008
1618.0,0.0081
1617.0,0.0083
1616.0,0.0085
1615.0,0.0085
1614.0,0.0085
1613.0,0.0084
1612.0,0.0084
1611.0,0.0083
1610.0,0.0082
1609.0,0.0081
1608.0,0.0081
1607.0,0.008
1606.0,0.0079
1605.0,0.0078
1604.0,0.0077
1603.0,0.0076
1602.0,0.0074
1601.0,0.0072
1600.0,0.007
1599.0,0.0069
1598.0,0.0068
1597.0,0.0066
1596.0,0.0065
1595.0,0.0064
1594.0,0.0062
1593.0,0.006
1592.0,0.0058
1591.0,0.0056
1590.0,0.0054
1589.0,0.0052
1588.0,0.005
1587.0,0.0049
1586.0,0.0047
1585.0,0.0046
1584.0,0.0044
1583.0,0.0042
1582.0,0.004
1581.0,0.0039
1580.0,0.0038
1579.0,0.0037
1578.0,0.0036
1577.0,0.0034
1576.0,0.0032
1575.0,0.0031
1574.0,0.003
1573.0,0.0029
1572.0,0.0028
1571.0,0.0026
1570.0,0.0025
1569.0,0.0024
1568.0,0.0024
1567.0,0.0024
1566.0,0.0023
1565.0,0.0022
1564.0,0.0021
1563.0,0.0021
1562.0,0.0021
1561.0,0.002
1560.0,0.0018
1559.0,0.0014
1558.0,0.0013
1557.0,0.0013
1556.0,0.0013
1555.0,0.0013
1554.0,0.0013
1553.0,0.0013
1552.0,0.0012
1551.0,0.0011
1550.0,0.001
1549.0,0.001
1548.0,0.0009
1547.0,0.0009
1546.0,0.0009
1545.0,0.0008
1544.0,0.0007
1543.0,0.0006
1542.0,0.0005
1541.0,0.0004
1540.0,0.0006
1539.0,0.0007
1538.0,0.0008
1537.0,0.0008
1536.0,0.0007
1535.0,0.0007
1534.0,0.0006
1533.0,0.0005
1532.0,0.0005
1531.0,0.0005
1530.0,0.0004
1529.0,0.0004
1528.0,0.0003
1527.0,0.0003
1526.0,0.0002
1525.0,0.0002
1524.0,0.0002
1523.0,0.0002
1522.0,0.0003
1521.0,0.0004
1520.0,0.0004
1519.0,0.0004
1518.0,0.0004
1517.0,0.0004
1516.0,0.0004
1515.0,0.0003
1514.0,0.0002
1513.0,0.0001
1512.0,0.0001
1511.0,0.0001
1510.0,0.0001
1509.0,0.0
1508.0,0.0001
1507.0,0.0002
1506.0,0.0002
1505.0,0.0002
1504.0,0.0002
1503.0,0.0001
1502.0,0.0001
1501.0,0.0001
1500.0,0.0001
1499.0,0.0001
1498.0,0.0001
1497.0,0.0001
1496.0,0.0001
1495.0,0.0001
1494.0,0.0001
1493.0,0.0001
1492.0,0.0
1491.0,-0.0
1490.0,0.0
1489.0,0.0001
1488.0,0.0001
1487.0,0.0
1486.0,-0.0
1485.0,-0.0001
1484.0,-0.0001
1483.0,-0.0001
1482.0,-0.0001
1481.0,-0.0001
1480.0,-0.0001
1479.0,-0.0001
1478.0,-0.0001
1477.0,-0.0001
1476.0,-0.0001
1475.0,-0.0
1474.0,-0.0
1473.0,-0.0001
1472.0,-0.0001
1471.0,-0.0001
1470.0,-0.0001
1469.0,-0.0001
1468.0,-0.0001
1467.0,-0.0001
1466.0,-0.0001
1465.0,-0.0001
1464.0,-0.0001
1463.0,-0.0001
1462.0,-0.0
1461.0,0.0
1460.0,0.0001
1459.0,0.0001
1458.0,0.0001
1457.0,-0.0001
1456.0,-0.0002
1455.0,-0.0002
1454.0,-0.0002
1453.0,-0.0002
1452.0,-0.0002
1451.0,-0.0002
1450.0,-0.0002
1449.0,-0.0002
1448.0,-0.0002
1447.0,-0.0002
1446.0,-0.0002
1445.0,-0.0002
1444.0,-0.0002
1443.0,-0.0002
1442.0,-0.0002
1441.0,-0.0001
1440.0,-0.0001
1439.0,-0.0002
1438.0,-0.0002
1437.0,-0.0002
1436.0,-0.0002
1435.0,-0.0002
1434.0,-0.0002
1433.0,-0.0002
1432.0,-0.0002
1431.0,-0.0002
1430.0,-0.0002
1429.0,-0.0002
1428.0,-0.0003
1427.0,-0.0003
1426.0,-0.0003
1425.0,-0.0003
1424.0,-0.0003
1423.0,-0.0003
1422.0,-0.0003
1421.0,-0.0004
1420.0,-0.0004
1419.0,-0.0004
1418.0,-0.0003
1417.0,-0.0003
1416.0,-0.0003
1415.0,-0.0003
1414.0,-0.0003
1413.0,-0.0003
1412.0,-0.0003
1411.0,-0.0003
1410.0,-0.0002
1409.0,-0.0001
1408.0,-0.0001
1407.0,0.0
1406.0,0.0001
1405.0,0.0002
1404.0,0.0002
1403.0,0.0003
1402.0,0.0004
1401.0,0.0005
1400.0,0.0006
1399.0,0.0007
1398.0,0.0008
1397.0,0.0008
1396.0,0.0009
1395.0,0.0009
1394.0,0.0009
1393.0,0.0009
1392.0,0.0008
1391.0,0.0008
1390.0,0.0008
1389.0,0.0008
1388.0,0.0008
1387.0,0.0008
1386.0,0.0008
1385.0,0.0008
1384.0,0.0009
1383.0,0.001
1382.0,0.0011
1381.0,0.0011
1380.0,0.0012
1379.0,0.0013
1378.0,0.0013
1377.0,0.0013
1376.0,0.0013
1375.0,0.0013
1374.0,0.0013
1373.0,0.0012
1372.0,0.0012
1371.0,0.0012
1370.0,0.0011
1369.0,0.001
1368.0,0.001
1367.0,0.0009
1366.0,0.0009
1365.0,0.0009
1364.0,0.0008
1363.0,0.0007
1362.0,0.0007
1361.0,0.0006
1360.0,0.0006
1359.0,0.0006
1358.0,0.0005
1357.0,0.0005
1356.0,0.0004
1355.0,0.0004
1354.0,0.0003
1353.0,0.0003
1352.0,0.0003
1351.0,0.0002
1350.0,0.0002
1349.0,0.0001
1348.0,0.0
1347.0,-0.0
1346.0,-0.0001
1345.0,-0.0001
1344.0,-0.0001
1343.0,-0.0001
1342.0,-0.0001
1341.0,-0.0001
1340.0,-0.0001
1339.0,-0.0002
1338.0,-0.0002
1337.0,-0.0002
1336.0,-0.0003
1335.0,-0.0003
1334.0,-0.0003
1333.0,-0.0003
1332.0,-0.0003
1331.0,-0.0003
1330.0,-0.0004
1329.0,-0.0004
1328.0,-0.0004
1327.0,-0.0005
1326.0,-0.0005
1325.0,-0.0005
1324.0,-0.0005
1323.0,-0.0004
1322.0,-0.0004
1321.0,-0.0005
1320.0,-0.0005
1319.0,-0.0006
1318.0,-0.0006
1317.0,-0.0007
1316.0,-0.0007
1315.0,-0.0007
1314.0,-0.0007
1313.0,-0.0006
1312.0,-0.0006
1311.0,-0.0006
1310.0,-0.0006
1309.0,-0.0007
1308.0,-0.0008
1307.0,-0.0008
1306.0,-0.0009
1305.0,-0.0009
1304.0,-0.0009
1303.0,-0.0009
1302.0,-0.0008
1301.0,-0.0008
1300.0,-0.0008
1299.0,-0.0009
1298.0,-0.0009
1297.0,-0.001
1296.0,-0.001
1295.0,-0.0009
1294.0,-0.0008
1293.0,-0.0008
1292.0,-0.0007
1291.0,-0.0007
1290.0,-0.0006
1289.0,-0.0006
1288.0,-0.0006
1287.0,-0.0006
1286.0,-0.0006
1285.0,-0.0006
1284.0,-0.0006
1283.0,-0.0007
1282.0,-0.0007
1281.0,-0.0007
1280.0,-0.0007
1279.0,-0.0007
1278.0,-0.0007
1277.0,-0.0006
1276.0,-0.0006
1275.0,-0.0006
1274.0,-0.0006
1273.0,-0.0006
1272.0,-0.0006
1271.0,-0.0006
1270.0,-0.0006
1269.0,-0.0006
1268.0,-0.0006
1267.0,-0.0005
1266.0,-0.0005
1265.0,-0.0005
1264.0,-0.0004
1263.0,-0.0004
1262.0,-0.0003
1261.0,-0.0003
1260.0,-0.0003
1259.0,-0.0003
1258.0,-0.0003
1257.0,-0.0003
1256.0,-0.0003
1255.0,-0.0003
1254.0,-0.0003
1253.0,-0.0003
1252.0,-0.0003
1251.0,-0.0002
1250.0,-0.0002
1249.0,-0.0002
1248.0,-0.0002
1247.0,-0.0002
1246.0,-0.0001
1245.0,-0.0001
1244.0,0.0
1243.0,0.0001
1242.0,0.0001
1241.0,0.0001
1240.0,0.0001
1239.0,0.0
1238.0,-0.0
1237.0,-0.0
1236.0,-0.0001
1235.0,-0.0
1234.0,-0.0
1233.0,0.0
1232.0,0.0
1231.0,0.0
1230.0,0.0
1229.0,0.0
1228.0,0.0
1227.0,0.0
1226.0,0.0
1225.0,0.0
1224.0,0.0
1223.0,0.0
1222.0,0.0
1221.0,0.0001
1220.0,0.0001
1219.0,0.0001
1218.0,0.0001
1217.0,0.0001
1216.0,0.0001
1215.0,0.0001
1214.0,0.0001
1213.0,0.0001
1212.0,0.0001
1211.0,0.0001
1210.0,0.0001
1209.0,0.0001
1208.0,0.0001
1207.0,0.0001
1206.0,0.0001
1205.0,0.0002
1204.0,0.0002
1203.0,0.0003
1202.0,0.0002
1201.0,0.0002
1200.0,0.0002
1199.0,0.0002
1198.0,0.0002
1197.0,0.0002
1196.0,0.0003
1195.0,0.0004
1194.0,0.0005
1193.0,0.0005
1192.0,0.0006
1191.0,0.0006
1190.0,0.0006
1189.0,0.0006
1188.0,0.0005
1187.0,0.0005
1186.0,0.0005
1185.0,0.0005
1184.0,0.0005
1183.0,0.0006
1182.0,0.0006
1181.0,0.0006
1180.0,0.0007
1179.0,0.0008
1178.0,0.0009
1177.0,0.001
1176.0,0.0011
1175.0,0.0011
1174.0,0.0012
1173.0,0.0012
1172.0,0.0012
1171.0,0.0013
1170.0,0.0013
1169.0,0.0013
1168.0,0.0014
1167.0,0.0014
1166.0,0.0014
1165.0,0.0015
1164.0,0.0016
1163.0,0.0017
1162.0,0.0017
1161.0,0.0017
1160.0,0.0018
1159.0,0.0019
1158.0,0.0019
1157.0,0.002
1156.0,0.002
1155.0,0.002
1154.0,0.0021
1153.0,0.0022
1152.0,0.0023
1151.0,0.0023
1150.0,0.0024
1149.0,0.0024
1148.0,0.0024
1147.0,0.0024
1146.0,0.0025
1145.0,0.0026
1144.0,0.0026
1143.0,0.0026
1142.0,0.0026
1141.0,0.0027
1140.0,0.0028
1139.0,0.0028
1138.0,0.0028
1137.0,0.0028
1136.0,0.0027
1135.0,0.0027
1134.0,0.0028
1133.0,0.0028
1132.0,0.0028
1131.0,0.0028
1130.0,0.0028
1129.0,0.0028
1128.0,0.0028
1127.0,0.0028
1126.0,0.0029
1125.0,0.003
1124.0,0.0031
1123.0,0.0032
1122.0,0.0033
1121.0,0.0033
1120.0,0.0033
1119.0,0.0033
1118.0,0.0033
1117.0,0.0034
1116.0,0.0035
1115.0,0.0035
1114.0,0.0035
1113.0,0.0036
1112.0,0.0036
1111.0,0.0035
1110.0,0.0035
1109.0,0.0035
1108.0,0.0035
1107.0,0.0035
1106.0,0.0035
1105.0,0.0035
1104.0,0.0035
1103.0,0.0034
1102.0,0.0034
1101.0,0.0033
1100.0,0.0033
1099.0,0.0034
1098.0,0.0035
1097.0,0.0034
1096.0,0.0034
1095.0,0.0033
1094.0,0.0033
1093.0,0.0033
1092.0,0.0033
1091.0,0.0034
1090.0,0.0035
1089.0,0.0035
1088.0,0.0034
1087.0,0.0032
1086.0,0.0031
1085.0,0.0031
1084.0,0.0031
1083.0,0.0031
1082.0,0.003
1081.0,0.003
1080.0,0.0029
1079.0,0.0028
1078.0,0.0027
1077.0,0.0026
1076.0,0.0025
1075.0,0.0025
1074.0,0.0025
1073.0,0.0025
1072.0,0.0026
1071.0,0.0026
1070.0,0.0026
1069.0,0.0025
1068.0,0.0024
1067.0,0.0023
1066.0,0.0021
1065.0,0.002
1064.0,0.0019
1063.0,0.0018
1062.0,0.0017
1061.0,0.0017
1060.0,0.0016
1059.0,0.0016
1058.0,0.0016
1057.0,0.0016
1056.0,0.0015
1055.0,0.0015
1054.0,0.0014
1053.0,0.0014
1052.0,0.0015
1051.0,0.0016
1050.0,0.0016
1049.0,0.0016
1048.0,0.0015
1047.0,0.0015
1046.0,0.0014
1045.0,0.0014
1044.0,0.0014
1043.0,0.0014
1042.0,0.0015
1041.0,0.0016
1040.0,0.0016
1039.0,0.0015
1038.0,0.0015
1037.0,0.0014
1036.0,0.0015
1035.0,0.0014
1034.0,0.0014
1033.0,0.0013
1032.0,0.0013
1031.0,0.0013
1030.0,0.0013
1029.0,0.0013
1028.0,0.0013
1027.0,0.0012
1026.0,0.0012
1025.0,0.0011
1024.0,0.0011
1023.0,0.0011
1022.0,0.0011
1021.0,0.0011
1020.0,0.0011
1019.0,0.0011
1018.0,0.0011
1017.0,0.0011
1016.0,0.0012
1015.0,0.0012
1014.0,0.0013
1013.0,0.0014
1012.0,0.0015
1011.0,0.0015
1010.0,0.0014
1009.0,0.0014
1008.0,0.0015
1007.0,0.0015
1006.0,0.0015
1005.0,0.0014
1004.0,0.0014
1003.0,0.0014
1002.0,0.0014
1001.0,0.0014
1000.0,0.0014
999.0,0.0014
998.0,0.0014
997.0,0.0015
996.0,0.0015
995.0,0.0016
994.0,0.0016
993.0,0.0015
992.0,0.0015
991.0,0.0014
990.0,0.0013
989.0,0.0013
988.0,0.0013
987.0,0.0014
986.0,0.0014
985.0,0.0015
984.0,0.0015
983.0,0.0015
982.0,0.0016
981.0,0.0017
980.0,0.0017
979.0,0.0016
978.0,0.0016
977.0,0.0016
976.0,0.0015
975.0,0.0015
974.0,0.0015
973.0,0.0015
972.0,0.0015
971.0,0.0014
970.0,0.0014
969.0,0.0015
968.0,0.0015
967.0,0.0016
966.0,0.0017
965.0,0.0018
964.0,0.0018
963.0,0.0017
962.0,0.0017
961.0,0.0016
960.0,0.0015
959.0,0.0014
958.0,0.0013
957.0,0.0014
956.0,0.0014
955.0,0.0016
954.0,0.0017
953.0,0.0017
952.0,0.0017
951.0,0.0017
950.0,0.0017
949.0,0.0017
948.0,0.0017
947.0,0.0017
946.0,0.0018
945.0,0.0019
944.0,0.002
943.0,0.002
942.0,0.002
941.0,0.002
940.0,0.002
939.0,0.002
938.0,0.002
937.0,0.002
936.0,0.0019
935.0,0.0019
934.0,0.0019
933.0,0.002
932.0,0.0021
931.0,0.0021
930.0,0.0022
929.0,0.0022
928.0,0.0021
927.0,0.0022
926.0,0.0022
925.0,0.0023
924.0,0.0023
923.0,0.0022
922.0,0.0022
921.0,0.0021
920.0,0.0022
919.0,0.0023
918.0,0.0024
917.0,0.0025
916.0,0.0025
915.0,0.0024
914.0,0.0024
913.0,0.0024
912.0,0.0024
911.0,0.0024
910.0,0.0024
909.0,0.0025
908.0,0.0026
907.0,0.0027
906.0,0.0028
905.0,0.0027
904.0,0.0027
903.0,0.0027
902.0,0.0027
901.0,0.0028
900.0,0.003
899.0,0.0031
898.0,0.0031
897.0,0.0032
896.0,0.0032
895.0,0.0032
894.0,0.0032
893.0,0.003
892.0,0.0029
891.0,0.0029
890.0,0.0029
889.0,0.0029
888.0,0.003
887.0,0.0031
886.0,0.0032
885.0,0.0033
884.0,0.0034
883.0,0.0034
882.0,0.0034
881.0,0.0034
880.0,0.0034
879.0,0.0035
878.0,0.0036
877.0,0.0037
876.0,0.0038
875.0,0.004
874.0,0.004
873.0,0.0041
872.0,0.0041
871.0,0.0042
870.0,0.0043
869.0,0.0044
868.0,0.0044
867.0,0.0044
866.0,0.0045
865.0,0.0045
864.0,0.0046
863.0,0.0045
862.0,0.0045
861.0,0.0045
860.0,0.0045
859.0,0.0045
858.0,0.0046
857.0,0.0046
856.0,0.0046
855.0,0.0046
854.0,0.0045
853.0,0.0045
852.0,0.0047
851.0,0.0048
850.0,0.005
849.0,0.0051
848.0,0.0051
847.0,0.0051
846.0,0.005
845.0,0.0049
844.0,0.005
843.0,0.0051
842.0,0.0053
841.0,0.0054
840.0,0.0054
839.0,0.0054
838.0,0.0055
837.0,0.0055
836.0,0.0056
835.0,0.0056
834.0,0.0056
833.0,0.0056
832.0,0.0057
831.0,0.0058
830.0,0.0058
829.0,0.0059
828.0,0.0059
827.0,0.0058
826.0,0.0058
825.0,0.0057
824.0,0.0058
823.0,0.006
822.0,0.0061
821.0,0.0062
820.0,0.0063
819.0,0.0065
818.0,0.0067
817.0,0.0067
816.0,0.0067
815.0,0.0066
814.0,0.0066
813.0,0.0067
812.0,0.0068
811.0,0.0068
810.0,0.0069
809.0,0.007
808.0,0.0071
807.0,0.0071
806.0,0.0072
805.0,0.0072
804.0,0.0072
803.0,0.0072
802.0,0.0071
801.0,0.0072
800.0,0.0072
799.0,0.0074
798.0,0.0076
797.0,0.0078
796.0,0.0079
795.0,0.008
794.0,0.0081
793.0,0.0081
792.0,0.0082
791.0,0.0083
790.0,0.0084
789.0,0.0084
788.0,0.0085
787.0,0.0086
786.0,0.0087
785.0,0.0088
784.0,0.009
783.0,0.0091
782.0,0.0092
781.0,0.0092
780.0,0.0093
779.0,0.0094
778.0,0.0095
777.0,0.0095
776.0,0.0095
775.0,0.0094
774.0,0.0094
773.0,0.0094
772.0,0.0096
771.0,0.0098
770.0,0.0099
769.0,0.01
768.0,0.0101
767.0,0.0101
766.0,0.0099
765.0,0.0098
764.0,0.01
763.0,0.0102
762.0,0.0105
761.0,0.0106
760.0,0.0107
759.0,0.0108
758.0,0.011
757.0,0.0111
756.0,0.0111
755.0,0.0111
754.0,0.0111
753.0,0.011
752.0,0.0109
751.0,0.0108
750.0,0.0107
749.0,0.0107
748.0,0.0109
747.0,0.011
746.0,0.011
745.0,0.0108
744.0,0.0105
743.0,0.0102
742.0,0.0102
741.0,0.0103
740.0,0.0104
739.0,0.0105
738.0,0.0105
737.0,0.0106
736.0,0.0109
735.0,0.0113
734.0,0.0118
733.0,0.012
732.0,0.0121
731.0,0.012
730.0,0.0121
729.0,0.0124
728.0,0.0128
727.0,0.0131
726.0,0.0132
725.0,0.0133
724.0,0.0135
723.0,0.0136
722.0,0.0138
721.0,0.014
720.0,0.0141
719.0,0.0143
718.0,0.0143
717.0,0.0141
716.0,0.0139
715.0,0.0137
714.0,0.0137
713.0,0.0139
712.0,0.0141
711.0,0.0143
710.0,0.0143
709.0,0.0141
708.0,0.0139
707.0,0.0138
706.0,0.0138
705.0,0.0138
704.0,0.0137
703.0,0.0137
702.0,0.0138
701.0,0.0139
700.0,0.014
699.0,0.014
698.0,0.014
697.0,0.0142
696.0,0.0144
695.0,0.0144
694.0,0.0144
693.0,0.0144
692.0,0.0146
691.0,0.0149
690.0,0.0151
689.0,0.0152
688.0,0.015
687.0,0.0149
686.0,0.0149
685.0,0.0149
684.0,0.0146
683.0,0.014
682.0,0.0136
681.0,0.0134
680.0,0.0137
679.0,0.0142
678.0,0.0146
677.0,0.0148
676.0,0.0148
675.0,0.0146
674.0,0.0144
673.0,0.0141
672.0,0.0138
671.0,0.0133
670.0,0.0128
669.0,0.0121
668.0,0.0103
667.0,0.0091
666.0,0.0097
665.0,0.0109
664.0,0.012
663.0,0.0127
662.0,0.0133
661.0,0.0139
660.0,0.0146
659.0,0.0152
658.0,0.0157
657.0,0.0158
656.0,0.0155
655.0,0.0149
654.0,0.0142
653.0,0.0137
652.0,0.0132
651.0,0.0129
650.0,0.013
649.0,0.0133
648.0,0.0136
647.0,0.0136
646.0,0.0134
645.0,0.0135
644.0,0.0139
643.0,0.0144
642.0,0.0146
641.0,0.0145
640.0,0.0143
639.0,0.0144
638.0,0.0148
637.0,0.0152
636.0,0.0151
635.0,0.0143
634.0,0.013
633.0,0.012
632.0,0.0117
631.0,0.0119
630.0,0.0122
629.0,0.0126
628.0,0.0131
627.0,0.0133
626.0,0.0133
625.0,0.0132
624.0,0.0136
623.0,0.0145
622.0,0.0157
621.0,0.0167
620.0,0.0176
619.0,0.0186
618.0,0.0196
617.0,0.0199
616.0,0.0191
615.0,0.0174
614.0,0.0155
613.0,0.0143
612.0,0.0142
611.0,0.015
610.0,0.0161
609.0,0.0165
608.0,0.0161
607.0,0.0154
606.0,0.0152
605.0,0.0159
604.0,0.017
603.0,0.0179
602.0,0.0183
601.0,0.0183
600.0,0.0184
