nm,Intensity
791.588,5058.98
791.862,5045.7
792.136,5055.64
792.411,5049.86
792.685,5034.42
792.959,5038.14
793.233,5054.14
793.507,5114.0
793.781,5139.68
794.056,5120.7
794.33,5103.12
794.604,5082.8
794.878,5064.14
795.152,5021.42
795.426,5027.4
795.701,5039.4
795.975,5030.08
796.249,5049.14
796.523,5035.96
796.797,5041.98
797.071,5077.42
797.345,5093.34
797.619,5096.84
797.894,5117.08
798.168,5116.86
798.442,5119.78
798.716,5134.94
798.99,5132.84
799.264,5154.44
799.538,5152.52
799.812,5141.44
800.086,5134.58
800.36,5143.94
800.634,5128.86
800.908,5114.5
801.182,5088.14
801.456,5101.48
801.73,5090.9
802.004,5079.22
802.278,5052.38
802.552,5027.02
802.826,5054.62
803.1,5060.58
803.374,5037.04
803.648,5001.7
803.922,4999.46
804.196,4988.62
804.47,4997.8
804.744,5013.28
805.018,5010.28
805.292,5012.34
805.566,5008.68
805.84,5015.74
806.114,5013.88
806.388,5004.14
806.662,5009.36
806.936,5012.3
807.209,5021.54
807.483,5016.2
807.757,5013.92
808.031,5011.78
808.305,5009.62
808.579,5013.9
808.853,5009.24
809.127,4998.48
809.4,5003.68
809.674,5010.7
809.948,5019.92
810.222,5040.34
810.496,5032.78
810.77,5038.24
811.043,5032.32
811.317,5080.2
811.591,5093.48
811.865,5139.64
812.139,5185.84
812.412,5225.46
812.686,5271.64
812.96,5352.1
813.234,5381.92
813.507,5403.6
813.781,5393.52
814.055,5340.54
814.329,5266.16
814.602,5179.66
814.876,5077.78
815.15,5010.96
815.424,4965.2
815.697,4926.12
815.971,4898.52
816.245,4883.1
816.518,4880.04
816.792,4850.6
817.066,4849.68
817.34,4833.78
817.613,4831.9
817.887,4839.52
818.161,4843.78
818.434,4848.02
818.708,4842.74
818.981,4831.34
819.255,4821.82
819.529,4811.0
819.802,4817.78
820.076,4850.22
820.35,4844.12
820.623,4853.0
820.897,4849.7
821.17,4848.36
821.444,4852.72
821.718,4879.96
821.991,4900.2
822.265,4924.94
822.538,4916.88
822.812,4935.52
823.085,4957.04
823.359,4985.2
823.632,5073.26
823.906,5125.24
824.18,5157.04
824.453,5147.32
824.727,5140.44
825.0,5085.78
825.274,5048.74
825.547,4999.62
825.821,4932.7
826.094,4880.62
826.367,4857.68
826.641,4832.78
826.914,4807.06
827.188,4787.4
827.461,4760.72
827.735,4730.92
828.008,4716.58
828.282,4712.7
828.555,4725.4
828.828,4727.72
829.102,4720.38
829.375,4691.62
829.649,4691.18
829.922,4687.7
830.195,4682.28
830.469,4665.46
830.742,4667.78
831.016,4662.18
831.289,4657.9
831.562,4649.68
831.836,4643.62
832.109,4644.36
832.382,4637.5
832.656,4635.62
832.929,4627.22
833.202,4600.86
833.476,4599.5
833.749,4608.66
834.022,4613.06
834.295,4597.72
834.569,4594.76
834.842,4601.62
835.115,4590.54
835.388,4576.62
835.662,4578.36
835.935,4563.5
836.208,4564.12
836.481,4579.88
836.755,4567.2
837.028,4584.6
837.301,4576.44
837.574,4571.46
837.848,4584.4
838.121,4577.18
838.394,4581.22
838.667,4565.12
838.94,4540.72
839.213,4551.56
839.487,4545.34
839.76,4561.66
840.033,4554.52
840.306,4541.28
840.579,4542.92
840.852,4542.78
841.125,4528.28
841.399,4529.14
841.672,4535.62
841.945,4532.62
842.218,4517.58
842.491,4526.4
842.764,4510.68
843.037,4499.66
843.31,4500.34
843.583,4518.54
843.856,4507.18
844.129,4493.14
844.402,4485.92
844.675,4492.02
844.948,4494.5
845.221,4470.6
845.495,4482.6
845.768,4482.34
846.041,4473.66
846.314,4463.96
846.586,4476.8
846.859,4473.9
847.132,4476.1
847.405,4461.38
847.678,4465.2
847.951,4467.92
848.224,4455.26
848.497,4438.24
848.77,4433.8
849.043,4458.96
849.316,4453.74
849.589,4442.18
849.862,4441.58
850.135,4448.2
850.408,4432.28
850.681,4422.94
850.953,4414.22
851.226,4420.52
851.499,4428.56
851.772,4427.22
852.045,4416.6
852.318,4420.9
852.591,4427.22
852.863,4412.0
853.136,4395.04
853.409,4388.34
853.682,4391.98
853.955,4387.72
854.227,4385.36
854.5,4388.72
854.773,4389.58
855.046,4384.88
855.318,4383.82
855.591,4380.5
855.864,4380.04
856.137,4377.66
856.409,4385.18
856.682,4386.46
856.955,4383.42
857.228,4368.3
857.5,4363.66
857.773,4377.44
858.046,4366.1
858.318,4359.96
858.591,4367.94
858.864,4361.28
859.137,4364.22
859.409,4354.52
859.682,4362.2
859.954,4353.72
860.227,4355.66
860.5,4346.62
860.772,4355.16
861.045,4342.06
861.318,4339.6
861.59,4346.48
861.863,4342.08
862.135,4342.42
862.408,4334.68
862.681,4338.62
862.953,4332.98
863.226,4339.8
863.498,4347.06
863.771,4328.92
864.043,4321.1
864.316,4327.56
864.588,4319.86
864.861,4323.8
865.133,4323.16
865.406,4310.92
865.678,4302.56
865.951,4302.26
866.223,4297.74
866.496,4297.22
866.768,4300.28
867.041,4297.84
867.313,4309.16
867.586,4293.28
867.858,4284.54
868.131,4280.48
868.403,4285.08
868.675,4286.32
868.948,4298.52
869.22,4292.28
869.493,4280.22
869.765,4287.14
870.037,4293.04
870.31,4276.14
870.582,4274.48
870.854,4270.22
871.127,4273.16
871.399,4273.46
871.672,4271.14
871.944,4263.04
872.216,4264.82
872.488,4262.2
872.761,4266.76
873.033,4261.66
873.305,4265.56
873.578,4253.58
873.85,4249.04
874.122,4254.28
874.394,4252.28
874.667,4252.6
874.939,4247.58
875.211,4256.6
875.483,4252.04
875.756,4241.1
876.028,4250.96
876.3,4252.78
876.572,4241.8
876.845,4237.8
877.117,4232.22
877.389,4234.94
877.661,4236.58
877.933,4232.6
878.205,4225.98
878.478,4222.32
878.75,4210.8
879.022,4215.3
879.294,4224.2
879.566,4217.18
879.838,4212.3
880.11,4209.84
880.382,4205.64
880.654,4196.98
880.927,4193.92
881.199,4199.9
881.471,4196.52
881.743,4192.82
882.015,4189.98
882.287,4193.48
882.559,4194.02
882.831,4188.84
883.103,4188.96
883.375,4189.54
883.647,4196.32
883.919,4192.92
884.191,4183.16
884.463,4186.84
884.735,4183.92
885.007,4187.9
885.279,4183.2
885.551,4185.18
885.823,4182.12
886.095,4178.78
886.367,4173.7
886.639,4167.74
886.91,4164.96
887.182,4161.88
887.454,4158.68
887.726,4155.74
887.998,4149.76
888.27,4143.6
888.542,4148.98
888.814,4147.86
889.085,4137.76
889.357,4136.28
889.629,4135.48
889.901,4139.62
890.173,4125.32
890.445,4121.16
890.716,4123.52
890.988,4117.4
891.26,4114.5
891.532,4116.18
891.804,4118.2
892.075,4119.56
892.347,4112.72
892.619,4114.08
892.891,4105.1
893.162,4102.92
893.434,4102.44
893.706,4094.34
893.978,4100.34
894.249,4095.92
894.521,4084.82
894.793,4082.22
895.064,4081.9
895.336,4071.74
895.608,4081.04
895.879,4076.4
896.151,4075.08
896.423,4066.38
896.694,4068.64
896.966,4063.14
897.237,4069.82
897.509,4062.54
897.781,4055.3
898.052,4051.62
898.324,4053.38
898.595,4058.92
898.867,4055.76
899.139,4045.54
899.41,4048.2
899.682,4049.8
899.953,4041.0
900.225,4041.86
900.496,4040.16
900.768,4037.0
901.039,4037.92
901.311,4036.96
901.582,4035.48
901.854,4038.16
902.125,4031.98
902.397,4031.46
902.668,4033.38
902.94,4036.82
903.211,4032.9
903.482,4026.68
903.754,4024.4
904.025,4028.4
904.297,4027.84
904.568,4024.48
904.839,4026.4
905.111,4025.76
905.382,4021.74
905.654,4014.38
905.925,4013.58
906.196,4009.5
906.468,4002.52
906.739,3998.96
907.01,4003.76
907.282,4005.0
907.553,4000.12
907.824,3998.46
908.096,3996.34
908.367,3990.24
908.638,3989.3
908.909,3986.98
909.181,3980.74
909.452,3984.22
909.723,3987.72
909.994,3984.1
910.266,3990.54
910.537,3983.58
910.808,3977.02
911.079,3980.78
911.35,3979.52
911.622,3973.92
911.893,3972.98
912.164,3972.58
912.435,3969.06
912.706,3965.78
912.977,3964.78
913.249,3958.82
913.52,3961.46
913.791,3961.02
914.062,3958.3
914.333,3953.38
914.604,3950.6
914.875,3950.66
915.146,3952.36
915.417,3951.8
915.688,3949.88
915.959,3952.9
916.231,3949.26
916.502,3947.66
916.773,3945.94
917.044,3943.88
917.315,3941.78
917.586,3941.48
917.857,3942.24
918.128,3941.22
918.399,3940.36
918.67,3939.56
918.941,3935.64
919.211,3936.76
919.482,3937.32
919.753,3933.2
920.024,3934.44
920.295,3935.56
920.566,3937.64
920.837,3933.46
921.108,3928.9
921.379,3925.58
921.65,3924.88
921.921,3923.48
922.191,3926.5
922.462,3923.0
922.733,3916.44
923.004,3913.0
923.275,3914.66
923.546,3916.42
923.816,3918.04
924.087,3915.28
924.358,3909.7
924.629,3904.34
924.9,3903.1
925.17,3901.8
925.441,3902.82
925.712,3905.52
925.983,3904.7
926.253,3904.14
926.524,3898.36
926.795,3894.42
927.065,3896.1
927.336,3891.94
927.607,3890.5
927.877,3892.82
928.148,3891.2
928.419,3889.98
928.689,3886.92
928.96,3882.76
929.231,3882.16
929.501,3875.56
929.772,3875.52
930.043,3875.16
930.313,3875.26
930.584,3869.84
930.854,3869.64
931.125,3866.48
931.396,3863.58
931.666,3863.82
931.937,3864.36
932.207,3861.58
932.478,3860.5
932.748,3861.14
933.019,3857.7
933.289,3856.84
933.56,3855.88
933.83,3861.02
934.101,3858.64
934.371,3852.56
934.642,3854.3
934.912,3849.76
935.183,3850.0
935.453,3847.76
935.723,3848.58
935.994,3846.48
936.264,3844.0
936.535,3845.46
936.805,3845.14
937.075,3842.16
937.346,3841.8
937.616,3839.6
937.886,3841.8
938.157,3842.96
938.427,3841.66
938.697,3839.62
938.968,3836.1
939.238,3835.56
939.508,3835.7
939.779,3837.14
940.049,3839.28
940.319,3837.94
940.59,3836.92
940.86,3832.86
941.13,3831.94
941.4,3831.54
941.671,3829.2
941.941,3829.8
942.211,3827.04
942.481,3828.24
942.751,3825.8
943.022,3822.72
943.292,3826.3
943.562,3824.48
943.832,3824.52
944.102,3821.46
944.372,3819.04
944.642,3817.06
944.913,3816.78
945.183,3818.24
945.453,3818.62
945.723,3815.66
945.993,3815.98
946.263,3817.4
946.533,3816.12
946.803,3814.1
947.073,3813.46
947.343,3809.76
947.613,3813.06
947.883,3812.26
948.153,3811.58
948.423,3809.76
948.693,3811.68
948.963,3809.06
949.233,3810.42
949.503,3806.66
949.773,3806.36
950.043,3806.82
950.313,3806.7
950.583,3805.5
950.853,3805.24
951.123,3803.22
951.393,3804.14
951.663,3803.92
951.933,3799.5
952.202,3799.7
952.472,3801.3
952.742,3800.18
953.012,3798.08
953.282,3797.56
953.552,3794.88
953.822,3797.04
954.091,3797.16
954.361,3797.96
954.631,3795.08
954.901,3793.56
955.17,3794.64
955.44,3793.5
955.71,3793.1
955.98,3792.92
956.25,3793.0
956.519,3791.2
956.789,3794.14
957.059,3789.38
957.328,3788.96
957.598,3788.96
957.868,3788.88
958.137,3788.66
958.407,3786.9
958.677,3786.52
958.946,3786.14
959.216,3787.74
959.486,3787.78
959.755,3786.46
960.025,3783.68
960.294,3783.8
960.564,3785.2
960.834,3782.64
961.103,3781.9
961.373,3781.42
961.642,3781.32
961.912,3782.72
962.181,3781.9
962.451,3778.72
962.72,3780.04
962.99,3780.62
963.259,3779.58
963.529,3780.66
963.798,3777.32
964.068,3776.82
964.337,3778.92
964.607,3776.86
964.876,3777.66
965.146,3776.0
965.415,3776.58
965.684,3775.26
965.954,3776.94
966.223,3775.72
966.493,3777.42
966.762,3776.3
967.031,3775.26
967.301,3774.2
967.57,3774.4
967.839,3774.48
968.109,3774.14
968.378,3774.7
968.647,3775.18
968.917,3772.34
969.186,3772.1
969.455,3773.24
969.724,3770.16
969.994,3770.82
970.263,3771.8
970.532,3772.54
970.801,3770.56
971.071,3769.82
971.34,3769.34
971.609,3771.08
971.878,3770.3
972.147,3769.26
972.417,3769.6
972.686,3766.92
972.955,3765.22
973.224,3767.26
973.493,3765.52
973.762,3766.98
974.031,3764.82
974.3,3765.92
974.57,3764.96
974.839,3762.98
975.108,3763.32
975.377,3763.74
975.646,3763.88
975.915,3763.46
976.184,3764.04
976.453,3762.06
976.722,3761.26
976.991,3760.52
977.26,3762.42
977.529,3762.66
977.798,3759.76
978.067,3760.52
978.336,3760.74
978.605,3759.86
978.874,3758.62
979.143,3759.56
979.412,3758.96
979.68,3757.96
979.949,3757.42
980.218,3758.4
980.487,3757.98
980.756,3759.8
981.025,3758.26
981.294,3758.74
981.563,3757.86
981.831,3758.56
982.1,3756.92
982.369,3757.1
982.638,3757.52
982.907,3756.82
983.175,3757.46
983.444,3756.78
983.713,3756.0
983.982,3756.2
984.25,3755.7
984.519,3755.42
984.788,3754.38
985.057,3754.54
985.325,3755.26
985.594,3756.54
985.863,3754.14
986.131,3754.2
986.4,3753.78
986.669,3753.46
986.937,3755.82
987.206,3753.14
987.475,3753.5
987.743,3752.3
988.012,3752.48
988.28,3750.96
988.549,3753.18
988.817,3752.42
989.086,3752.32
989.355,3752.18
989.623,3751.1
989.892,3750.72
990.16,3750.82
990.429,3750.58
990.697,3750.24
990.966,3750.42
991.234,3751.2
991.503,3750.34
991.771,3749.76
992.04,3750.6
992.308,3749.76
992.576,3748.18
992.845,3749.7
993.113,3748.64
993.382,3747.64
993.65,3747.2
993.918,3747.8
994.187,3746.94
994.455,3748.56
994.723,3748.04
994.992,3746.88
995.26,3747.0
995.528,3746.5
995.797,3746.1
996.065,3746.52
996.333,3746.12
996.602,3746.16
996.87,3745.7
997.138,3745.72
997.406,3744.92
997.675,3746.5
997.943,3746.04
998.211,3745.16
998.479,3744.6
998.747,3744.08
999.016,3745.26
999.284,3744.16
999.552,3742.94
999.82,3743.92
1000.09,3744.88
1000.36,3742.4
1000.62,3741.34
1000.89,3741.66
1001.16,3741.96
1001.43,3743.12
1001.7,3741.54
1001.97,3740.88
1002.23,3740.42
1002.5,3740.6
1002.77,3740.78
1003.04,3740.72
1003.31,3740.62
1003.57,3740.5
1003.84,3739.7
1004.11,3739.28
1004.38,3739.78
1004.65,3740.54
1004.91,3739.76
1005.18,3741.02
1005.45,3738.6
1005.72,3739.62
1005.98,3739.28
1006.25,3738.64
1006.52,3738.28
1006.79,3737.74
1007.06,3738.28
1007.32,3737.88
1007.59,3737.22
1007.86,3738.54
1008.13,3737.02
1008.4,3737.94
1008.66,3737.26
1008.93,3736.94
1009.2,3737.82
1009.47,3737.26
1009.73,3737.68
1010.0,3737.18
1010.27,3737.56
1010.54,3738.24
1010.81,3737.7
1011.07,3737.56
1011.34,3737.1
1011.61,3736.94
1011.88,3737.08
1012.14,3737.3
1012.41,3737.1
1012.68,3737.08
1012.95,3739.06
1013.21,3739.18
1013.48,3738.0
1013.75,3737.72
1014.02,3738.46
1014.29,3737.54
1014.55,3736.14
1014.82,3738.72
1015.09,3737.72
1015.36,3738.42
1015.62,3737.56
1015.89,3737.16
1016.16,3736.94
1016.43,3736.78
1016.69,3737.24
1016.96,3737.8
1017.23,3735.34
1017.5,3736.76
1017.76,3736.3
1018.03,3735.2
1018.3,3735.2
1018.57,3736.02
1018.83,3736.0
1019.1,3735.02
1019.37,3734.24
1019.63,3734.44
1019.9,3734.06
1020.17,3734.4
1020.44,3734.74
1020.7,3733.38
1020.97,3733.48
1021.24,3734.06
1021.51,3732.16
1021.77,3732.4
1022.04,3733.72
1022.31,3733.36
1022.58,3731.56
1022.84,3732.78
1023.11,3732.22
1023.38,3731.38
1023.64,3731.3
1023.91,3731.68
1024.18,3730.7
1024.45,3732.22
1024.71,3730.2
1024.98,3729.8
1025.25,3731.38
1025.51,3730.44
1025.78,3730.78
1026.05,3729.28
1026.32,3729.6
1026.58,3729.44
1026.85,3729.66
1027.12,3728.76
1027.38,3729.72
1027.65,3730.16
1027.92,3728.76
1028.19,3729.04
1028.45,3728.62
1028.72,3729.24
1028.99,3727.38
1029.25,3728.24
1029.52,3726.98
1029.79,3729.1
1030.05,3727.98
1030.32,3728.2
1030.59,3727.18
1030.85,3727.9
1031.12,3727.4
1031.39,3727.66
1031.66,3728.22
1031.92,3726.94
1032.19,3727.06
1032.46,3728.6
1032.72,3727.26
1032.99,3727.14
1033.26,3726.44
1033.52,3728.48
1033.79,3728.2
1034.06,3726.6
1034.32,3726.34
1034.59,3727.2
1034.86,3727.8
1035.12,3727.2
1035.39,3726.34
1035.66,3726.54
1035.92,3727.6
1036.19,3727.9
1036.46,3726.78
1036.72,3727.26
1036.99,3726.6
1037.26,3726.7
1037.52,3726.14
1037.79,3726.06
1038.06,3727.02
1038.32,3726.74
1038.59,3725.4
1038.86,3726.28
1039.12,3726.24
1039.39,3727.2
1039.66,3726.6
1039.92,3726.88
1040.19,3726.52
1040.46,3724.96
1040.72,3725.76
1040.99,3725.52
1041.26,3725.6
1041.52,3725.38
1041.79,3724.6
1042.06,3726.38
1042.32,3725.9
1042.59,3725.18
1042.86,3725.04
1043.12,3725.24
1043.39,3725.4
1043.65,3725.64
1043.92,3726.24
1044.19,3725.14
1044.45,3724.98
1044.72,3725.14
1044.99,3725.38
1045.25,3726.36
1045.52,3724.3
1045.79,3723.94
1046.05,3724.6
1046.32,3724.94
1046.58,3723.58
1046.85,3724.98
1047.12,3725.64
1047.38,3725.46
1047.65,3724.54
1047.92,3725.24
1048.18,3724.94
1048.45,3725.0
1048.71,3724.92
1048.98,3724.5
1049.25,3724.12
1049.51,3724.84
1049.78,3724.78
1050.04,3724.42
1050.31,3724.56
1050.58,3724.5
1050.84,3724.4
1051.11,3724.76
1051.37,3724.66
1051.64,3725.1
1051.91,3724.14
1052.17,3725.08
1052.44,3724.32
1052.7,3724.4
1052.97,3723.98
1053.24,3723.14
1053.5,3724.32
1053.77,3725.0
1054.03,3724.02
1054.3,3724.54
1054.57,3724.08
1054.83,3724.16
1055.1,3723.52
1055.36,3724.68
1055.63,3724.26
1055.9,3724.8
1056.16,3725.12
1056.43,3724.3
1056.69,3724.0
1056.96,3723.9
1057.23,3723.74
1057.49,3723.56
1057.76,3723.38
1058.02,3724.14
1058.29,3723.98
1058.55,3724.5
1058.82,3723.6
1059.09,3723.48
1059.35,3723.9
1059.62,3724.12
1059.88,3723.66
1060.15,3723.66
1060.41,3723.9
1060.68,3723.64
1060.95,3722.2
1061.21,3724.56
1061.48,3722.82
1061.74,3722.94
1062.01,3723.94
1062.27,3723.08
1062.54,3722.9
1062.8,3723.94
1063.07,3724.2
1063.34,3723.06
1063.6,3724.2
1063.87,3723.6
1064.13,3723.46
1064.4,3723.12
1064.66,3723.16
1064.93,3723.06
1065.19,3722.58
1065.46,3723.5
1065.73,3723.78
1065.99,3722.64
1066.26,3723.64
1066.52,3722.02
1066.79,3723.22
1067.05,3723.26
1067.32,3722.22
1067.58,3722.08
1067.85,3722.38
1068.11,3721.8
