nm,Intensity
528.635,1837.7
528.719,1836.3
528.803,1838.0
528.887,1837.5
528.972,1835.3
529.056,1835.7
529.14,1836.2
529.224,1837.5
529.308,1837.3
529.393,1836.9
529.477,1834.6
529.561,1836.7
529.645,1838.0
529.73,1838.1
529.814,1837.2
529.898,1837.7
529.982,1838.3
530.066,1838.7
530.151,1837.3
530.235,1837.6
530.319,1835.9
530.403,1838.0
530.487,1839.0
530.572,1838.2
530.656,1838.2
530.74,1838.8
530.824,1837.0
530.908,1839.5
530.993,1839.7
531.077,1838.8
531.161,1839.9
531.245,1842.0
531.329,1843.5
531.414,1844.5
531.498,1843.9
531.582,1850.2
531.666,1878.1
531.75,1990.6
531.835,2485.6
531.919,3805.3
532.003,4735.7
532.087,5596.2
532.171,4593.4
532.255,2809.1
532.34,2001.1
532.424,1853.1
532.508,1840.6
532.592,1842.1
532.676,1839.5
532.76,1839.2
532.845,1837.0
532.929,1837.6
533.013,1839.1
533.097,1838.5
533.181,1837.7
533.265,1840.3
533.35,1841.0
533.434,1846.8
533.518,1861.3
533.602,1902.1
533.686,1984.7
533.77,2093.4
533.854,2203.2
533.939,2291.3
534.023,2332.7
534.107,2347.1
534.191,2345.9
534.275,2343.5
534.359,2345.5
534.443,2343.7
534.528,2347.5
534.612,2341.4
534.696,2352.1
534.78,2356.5
534.864,2375.6
534.948,2387.0
535.032,2366.3
535.117,2342.0
535.201,2314.6
535.285,2270.4
535.369,2231.2
535.453,2190.7
535.537,2167.1
535.621,2150.9
535.705,2133.9
535.79,2108.8
535.874,2103.0
535.958,2076.5
536.042,2089.0
536.126,2087.4
536.21,2069.7
536.294,2072.0
536.378,2069.4
536.462,2061.5
536.546,2064.0
536.631,2057.6
536.715,2041.3
536.799,2038.0
536.883,2045.7
536.967,2041.8
537.051,2040.2
537.135,2046.5
537.219,2046.9
537.303,2045.1
537.387,2040.7
537.472,2053.1
537.556,2055.9
537.64,2063.2
537.724,2043.8
537.808,2051.9
537.892,2040.9
537.976,2046.2
538.06,2023.8
538.144,2029.0
538.228,2027.8
538.312,2020.9
538.396,2006.0
538.48,2018.4
538.565,2021.1
538.649,2008.5
538.733,2006.4
538.817,2007.1
538.901,2004.4
538.985,1998.6
539.069,1990.1
539.153,2001.2
539.237,1987.0
539.321,1999.1
539.405,1987.7
539.489,1977.8
539.573,1984.0
539.657,1980.2
539.741,1973.8
539.825,1986.3
539.909,1983.7
539.993,1975.9
540.077,1971.0
540.161,1973.0
540.246,1973.1
540.33,1981.1
540.414,1966.0
540.498,1973.8
540.582,1971.6
540.666,1967.7
540.75,1967.9
540.834,1969.5
540.918,1969.7
541.002,1970.8
541.086,1969.5
541.17,1962.0
541.254,1964.1
541.338,1959.1
541.422,1966.9
541.506,1966.4
541.59,1964.4
541.674,1968.1
541.758,1974.0
541.842,1955.3
541.926,1973.0
542.01,1977.1
542.094,1964.5
542.178,1968.5
542.262,1960.0
542.346,1968.6
542.43,1956.7
542.514,1963.1
542.598,1961.6
542.682,1966.2
542.766,1959.8
542.85,1962.4
542.934,1960.8
543.018,1962.0
543.102,1957.3
543.186,1959.7
543.27,1962.7
543.354,1955.0
543.438,1966.3
543.522,1955.8
543.606,1967.3
543.69,1952.3
543.774,1957.7
543.858,1957.8
543.942,1962.7
544.026,1961.1
544.11,1958.4
544.194,1949.8
544.278,1949.3
544.362,1952.8
544.445,1954.5
544.529,1951.7
544.613,1959.2
544.697,1956.7
544.781,1962.7
544.865,1955.6
544.949,1961.5
545.033,1958.8
545.117,1955.3
545.201,1956.4
545.285,1957.2
545.369,1952.8
545.453,1947.0
545.537,1952.4
545.621,1942.0
545.705,1951.8
545.789,1954.0
545.873,1962.3
545.957,1958.5
546.04,1947.1
546.124,1954.0
546.208,1951.6
546.292,1948.8
546.376,1953.0
546.46,1952.5
546.544,1950.6
546.628,1945.3
546.712,1959.5
546.796,1951.8
546.88,1954.2
546.964,1952.1
547.048,1961.7
547.131,1954.0
547.215,1952.8
547.299,1949.6
547.383,1956.3
547.467,1954.3
547.551,1966.1
547.635,1958.8
547.719,1955.5
547.803,1957.6
547.887,1964.2
547.97,1954.9
548.054,1949.7
548.138,1955.9
548.222,1944.1
548.306,1947.6
548.39,1948.4
548.474,1951.4
548.558,1959.0
548.642,1957.6
548.725,1951.8
548.809,1946.4
548.893,1949.5
548.977,1945.2
549.061,1948.9
549.145,1949.0
549.229,1955.1
549.313,1946.0
549.396,1952.7
549.48,1947.2
549.564,1950.5
549.648,1948.1
549.732,1943.6
549.816,1948.6
549.9,1947.5
549.983,1952.9
550.067,1948.3
550.151,1945.2
550.235,1954.0
550.319,1951.6
550.403,1943.5
550.487,1948.3
550.57,1947.9
550.654,1947.5
550.738,1953.2
550.822,1941.7
550.906,1948.3
550.99,1946.3
551.074,1950.9
551.157,1947.1
551.241,1950.6
551.325,1952.0
551.409,1953.4
551.493,1959.4
551.576,1946.0
551.66,1954.4
551.744,1941.5
551.828,1952.4
551.912,1949.9
551.996,1949.8
552.079,1954.4
552.163,1956.6
552.247,1945.6
552.331,1946.9
552.415,1946.1
552.499,1950.3
552.582,1951.8
552.666,1952.6
552.75,1946.2
552.834,1957.0
552.918,1957.0
553.001,1963.5
553.085,1957.6
553.169,1971.0
553.253,1975.3
553.337,1981.8
553.42,1971.9
553.504,1971.7
553.588,1977.4
553.672,1973.6
553.755,1977.6
553.839,1975.1
553.923,1974.2
554.007,1976.3
554.091,1981.2
554.174,1977.0
554.258,1975.4
554.342,1984.6
554.426,1984.4
554.509,1980.0
554.593,1979.2
554.677,1983.7
554.761,1975.2
554.845,1980.0
554.928,1985.9
555.012,1978.5
555.096,1979.5
555.18,1984.0
555.263,1983.6
555.347,1982.9
555.431,1990.4
555.515,1986.6
555.598,1994.1
555.682,1995.5
555.766,1987.2
555.85,1994.2
555.933,2005.1
556.017,1996.1
556.101,1997.0
556.185,2007.9
556.268,2002.2
556.352,2001.9
556.436,1999.2
556.52,2015.3
556.603,2006.5
556.687,2002.5
556.771,2013.2
556.854,2014.1
556.938,2023.8
557.022,2008.2
557.106,2018.9
557.189,2021.1
557.273,2024.8
557.357,2032.6
557.44,2036.8
557.524,2029.1
557.608,2037.6
557.692,2035.0
557.775,2043.0
557.859,2042.4
557.943,2052.9
558.026,2064.5
558.11,2062.2
558.194,2054.1
558.278,2061.2
558.361,2056.6
558.445,2055.5
558.529,2053.8
558.612,2066.8
558.696,2063.1
558.78,2048.2
558.863,2037.5
558.947,2042.4
559.031,2036.0
559.114,2044.1
559.198,2047.0
559.282,2046.3
559.365,2031.2
559.449,2035.4
559.533,2038.2
559.616,2033.7
559.7,2022.7
559.784,2025.8
559.867,2030.2
559.951,2036.1
560.035,2033.1
560.118,2027.7
560.202,2025.1
560.286,2019.4
560.369,2020.9
560.453,2017.2
560.537,2022.0
560.62,2032.6
560.704,2027.5
560.788,2024.9
560.871,2024.0
560.955,2019.8
561.039,2027.4
561.122,2016.3
561.206,2021.6
561.29,2035.0
561.373,2029.9
561.457,2026.8
561.54,2033.8
561.624,2037.7
561.708,2029.5
561.791,2036.9
561.875,2036.4
561.959,2036.1
562.042,2037.8
562.126,2048.9
562.209,2059.6
562.293,2056.6
562.377,2056.6
562.46,2064.8
562.544,2067.0
562.628,2067.3
562.711,2068.3
562.795,2085.1
562.878,2077.4
562.962,2072.7
563.046,2068.4
563.129,2087.0
563.213,2094.8
563.296,2095.3
563.38,2106.6
563.464,2120.9
563.547,2178.2
563.631,2271.0
563.714,2443.4
563.798,2693.1
563.881,3017.4
563.965,3288.8
564.049,3362.7
564.132,3099.1
564.216,2772.5
564.299,2445.4
564.383,2306.8
564.467,2290.8
564.55,2288.5
564.634,2272.6
564.717,2257.6
564.801,2242.0
564.884,2229.7
564.968,2218.4
565.052,2190.1
565.135,2184.6
565.219,2162.3
565.302,2161.3
565.386,2169.4
565.469,2181.9
565.553,2190.1
565.636,2233.3
565.72,2279.8
565.803,2421.3
565.887,2630.1
565.971,2976.0
566.054,3409.9
566.138,3621.7
566.221,3556.2
566.305,3193.0
566.388,2707.4
566.472,2384.9
566.555,2235.7
566.639,2181.6
566.722,2143.7
566.806,2126.0
566.889,2123.4
566.973,2127.9
567.056,2133.5
567.14,2164.1
567.224,2198.4
567.307,2239.0
567.391,2282.6
567.474,2297.0
567.558,2249.0
567.641,2190.6
567.725,2130.2
567.808,2097.8
567.892,2085.0
567.975,2082.4
568.059,2075.9
568.142,2072.2
568.226,2072.6
568.309,2073.6
568.393,2082.0
568.476,2080.9
568.56,2079.1
568.643,2085.4
568.727,2070.9
568.81,2078.8
568.893,2086.2
568.977,2079.4
569.06,2073.3
569.144,2080.9
569.227,2083.4
569.311,2075.6
569.394,2081.5
569.478,2084.0
569.561,2085.4
569.645,2073.5
569.728,2064.3
569.812,2087.2
569.895,2086.2
569.979,2095.5
570.062,2090.3
570.145,2097.2
570.229,2093.3
570.312,2115.2
570.396,2123.5
570.479,2146.0
570.563,2154.5
570.646,2166.7
570.73,2183.6
570.813,2182.4
570.897,2181.6
570.98,2202.0
571.063,2244.9
571.147,2330.4
571.23,2589.4
571.314,3021.6
571.397,3543.8
571.481,3990.1
571.564,4198.9
571.647,3767.8
571.731,3163.6
571.814,2670.6
571.898,2439.9
571.981,2335.0
572.064,2264.9
572.148,2242.3
572.231,2209.0
572.315,2188.4
572.398,2160.4
572.482,2144.5
572.565,2121.5
572.648,2123.0
572.732,2099.5
572.815,2088.2
572.899,2089.5
572.982,2082.5
573.065,2071.2
573.149,2066.1
573.232,2068.1
573.315,2082.1
573.399,2076.6
573.482,2077.7
573.566,2088.5
573.649,2109.8
573.732,2123.7
573.816,2159.1
573.899,2184.1
573.983,2202.6
574.066,2174.3
574.149,2124.8
574.233,2094.9
574.316,2073.2
574.399,2068.1
574.483,2065.9
574.566,2060.7
574.649,2060.7
574.733,2066.2
574.816,2057.1
574.9,2071.8
574.983,2079.3
575.066,2116.0
575.15,2186.6
575.233,2330.5
575.316,2504.5
575.4,2789.5
575.483,3041.3
575.566,3128.5
575.65,2993.7
575.733,2735.3
575.816,2626.5
575.9,2650.2
575.983,2794.9
576.066,3057.3
576.15,3317.5
576.233,3525.9
576.316,3567.3
576.4,3401.5
576.483,3187.7
576.566,3034.7
576.65,2952.8
576.733,2954.8
576.816,2961.1
576.899,2946.8
576.983,2955.5
577.066,2931.7
577.149,2814.5
577.233,2725.4
577.316,2598.4
577.399,2481.8
577.483,2381.1
577.566,2278.0
577.649,2239.8
577.732,2205.0
577.816,2172.9
577.899,2122.4
577.982,2112.1
578.066,2116.7
578.149,2106.7
578.232,2104.8
578.315,2090.7
578.399,2086.0
578.482,2074.1
578.565,2076.4
578.649,2061.2
578.732,2058.0
578.815,2074.2
578.898,2070.0
578.982,2065.1
579.065,2074.7
579.148,2065.5
579.231,2056.3
579.315,2051.9
579.398,2061.8
579.481,2051.6
579.564,2048.1
579.648,2049.8
579.731,2041.6
579.814,2042.4
579.897,2049.8
579.981,2049.6
580.064,2042.3
580.147,2040.7
580.23,2052.8
580.314,2047.3
580.397,2051.5
580.48,2051.7
580.563,2042.3
580.647,2052.2
580.73,2030.7
580.813,2046.2
580.896,2034.2
580.979,2034.2
581.063,2035.8
581.146,2044.0
581.229,2041.5
581.312,2032.7
581.396,2039.2
581.479,2030.2
581.562,2033.8
581.645,2035.3
581.728,2043.2
581.812,2030.3
581.895,2037.1
581.978,2035.3
582.061,2030.0
582.144,2039.0
582.228,2030.8
582.311,2027.0
582.394,2024.2
582.477,2028.7
582.56,2026.8
582.643,2037.9
582.727,2038.9
582.81,2026.8
582.893,2021.6
582.976,2024.6
583.059,2023.4
583.143,2020.6
583.226,2027.0
583.309,2030.8
583.392,2018.8
583.475,2025.6
583.558,2032.8
583.642,2021.5
583.725,2014.2
583.808,2017.3
583.891,2015.3
583.974,2026.6
584.057,2023.0
584.14,2014.4
584.224,2015.4
584.307,2021.7
584.39,2016.7
584.473,2024.7
584.556,2024.7
584.639,2026.4
584.722,2022.3
584.806,2012.2
584.889,2009.8
584.972,2015.5
585.055,2020.2
585.138,2024.9
585.221,2016.0
585.304,2021.9
585.387,2024.5
585.471,2011.7
585.554,2016.1
585.637,2019.1
585.72,2012.0
585.803,2027.2
585.886,2017.7
585.969,2018.3
586.052,2019.4
586.135,2015.9
586.219,2010.9
586.302,2012.2
586.385,2017.6
586.468,2013.3
586.551,2028.0
586.634,2019.4
586.717,2023.2
586.8,2021.9
586.883,2029.5
586.966,2014.3
587.049,2015.2
587.133,2013.2
587.216,2025.6
587.299,2023.1
587.382,2023.1
587.465,2030.3
587.548,2016.3
587.631,2013.9
587.714,2016.8
587.797,2017.7
587.88,2024.9
587.963,2019.2
588.046,2025.6
588.129,2016.3
588.212,2020.3
588.295,2023.2
588.379,2024.6
588.462,2019.2
588.545,2023.3
588.628,2018.3
588.711,2014.3
588.794,2021.5
588.877,2023.5
588.96,2016.2
589.043,2029.4
589.126,2026.6
589.209,2022.2
589.292,2016.6
589.375,2024.7
589.458,2030.0
589.541,2025.2
589.624,2013.8
589.707,2012.1
589.79,2021.8
589.873,2018.7
589.956,2017.0
590.039,2024.7
590.122,2023.0
590.205,2009.9
590.288,2018.5
590.371,2025.3
590.454,2014.9
590.537,2016.4
590.62,2021.4
590.703,2021.4
590.786,2022.3
590.869,2027.2
590.952,2019.6
591.035,2017.0
591.118,2016.7
591.201,2024.8
591.284,2017.7
591.367,2021.0
591.45,2024.7
591.533,2018.3
591.616,2019.5
591.699,2026.3
591.782,2022.4
591.865,2021.8
591.948,2020.2
592.031,2020.7
592.114,2038.1
592.197,2034.1
592.28,2021.0
592.363,2017.6
592.446,2033.3
592.529,2034.1
592.612,2033.9
592.695,2026.9
592.778,2019.5
592.86,2025.0
592.943,2033.4
593.026,2033.3
593.109,2030.1
593.192,2039.2
593.275,2035.3
593.358,2035.8
593.441,2028.7
593.524,2034.5
593.607,2017.8
593.69,2028.9
593.773,2043.5
593.856,2030.1
593.939,2026.0
594.022,2039.4
594.104,2035.3
594.187,2036.1
594.27,2037.2
594.353,2031.2
594.436,2034.3
594.519,2028.1
594.602,2032.7
594.685,2033.8
594.768,2045.5
594.851,2043.0
594.934,2032.6
595.016,2055.2
595.099,2036.2
595.182,2045.6
595.265,2047.3
595.348,2045.9
595.431,2045.3
595.514,2035.7
595.597,2051.3
595.679,2051.7
595.762,2055.7
595.845,2054.5
595.928,2047.7
596.011,2046.7
596.094,2050.7
596.177,2062.3
596.26,2049.8
596.342,2062.4
596.425,2060.8
596.508,2058.4
596.591,2060.7
596.674,2054.2
596.757,2059.0
596.84,2060.1
596.922,2056.4
597.005,2065.5
597.088,2070.9
597.171,2079.5
597.254,2070.1
597.337,2074.1
597.42,2062.3
597.502,2065.8
597.585,2053.1
597.668,2063.9
597.751,2075.0
597.834,2082.3
597.917,2080.2
597.999,2082.7
598.082,2078.2
598.165,2083.2
598.248,2068.3
598.331,2092.4
598.413,2089.7
598.496,2074.8
598.579,2085.3
598.662,2080.8
598.745,2097.1
598.827,2079.7
598.91,2085.1
598.993,2094.8
599.076,2105.7
599.159,2093.8
599.241,2109.1
599.324,2111.6
599.407,2110.0
599.49,2109.7
599.573,2109.1
599.655,2109.1
599.738,2112.4
599.821,2121.6
599.904,2115.1
599.987,2118.5
600.069,2098.6
600.152,2105.3
600.235,2111.0
600.318,2101.9
600.4,2105.5
600.483,2112.7
600.566,2105.4
600.649,2110.1
600.731,2100.7
600.814,2116.1
600.897,2114.9
600.98,2106.3
601.062,2107.6
601.145,2107.4
601.228,2108.4
601.311,2111.2
601.393,2118.7
601.476,2130.8
601.559,2121.3
601.642,2123.7
601.724,2130.7
601.807,2138.6
601.89,2150.6
601.973,2167.5
602.055,2155.9
602.138,2153.7
602.221,2152.1
602.303,2142.3
602.386,2124.8
602.469,2127.3
602.552,2122.3
602.634,2125.6
602.717,2122.1
602.8,2110.4
602.882,2118.5
602.965,2107.2
603.048,2111.9
603.13,2118.0
603.213,2118.5
603.296,2097.9
603.379,2107.3
603.461,2113.4
603.544,2105.0
603.627,2108.8
603.709,2107.4
603.792,2122.3
603.875,2113.4
603.957,2119.1
604.04,2112.5
604.123,2115.4
604.205,2105.5
604.288,2114.4
604.371,2119.5
604.453,2104.7
604.536,2102.8
604.619,2089.7
604.701,2101.9
604.784,2106.4
604.867,2096.9
604.949,2091.0
605.032,2093.3
605.115,2098.1
605.197,2095.3
605.28,2083.3
605.363,2082.2
605.445,2100.9
605.528,2093.5
605.61,2094.7
605.693,2083.4
605.776,2092.0
605.858,2076.7
605.941,2081.7
606.024,2086.6
606.106,2094.4
606.189,2081.3
606.272,2075.5
606.354,2076.0
606.437,2079.3
606.519,2072.3
606.602,2082.9
606.685,2072.9
606.767,2077.6
606.85,2080.0
606.932,2068.9
607.015,2070.3
607.098,2070.8
607.18,2071.2
607.263,2078.2
607.345,2068.4
607.428,2064.6
607.511,2066.3
607.593,2062.7
607.676,2065.3
607.758,2071.1
607.841,2066.9
607.923,2069.4
608.006,2067.5
608.089,2062.3
608.171,2063.5
608.254,2061.2
608.336,2074.4
608.419,2074.2
608.501,2064.4
608.584,2065.1
608.667,2073.6
608.749,2065.1
608.832,2074.7
608.914,2069.1
608.997,2059.1
609.079,2062.3
609.162,2056.4
609.244,2065.0
609.327,2060.1
609.41,2059.9
609.492,2058.6
609.575,2061.6
609.657,2065.2
609.74,2060.8
609.822,2054.9
609.905,2066.7
609.987,2067.6
610.07,2065.5
610.152,2063.0
610.235,2064.4
610.317,2057.9
610.4,2062.3
610.482,2063.0
610.565,2069.1
610.647,2066.9
610.73,2085.5
610.812,2084.2
610.895,2100.5
610.977,2086.9
611.06,2093.2
611.142,2103.9
611.225,2105.1
611.307,2085.5
611.39,2074.0
611.472,2073.2
611.555,2070.5
611.637,2067.5
611.72,2053.1
611.802,2059.9
611.885,2067.5
611.967,2057.5
612.05,2064.3
612.132,2058.1
612.215,2053.7
612.297,2047.9
612.38,2062.0
612.462,2055.4
612.545,2048.1
612.627,2065.2
612.709,2053.9
612.792,2052.4
612.874,2051.7
612.957,2052.9
613.039,2052.9
613.122,2057.7
613.204,2052.0
613.287,2048.5
613.369,2039.1
613.451,2054.7
613.534,2052.0
613.616,2059.8
613.699,2055.2
613.781,2039.0
613.864,2044.7
613.946,2050.7
614.028,2052.6
614.111,2038.0
614.193,2061.7
614.276,2057.7
614.358,2049.2
614.441,2063.2
614.523,2053.8
614.605,2057.3
614.688,2048.5
614.77,2061.7
614.853,2059.2
614.935,2058.9
615.017,2056.5
615.1,2059.0
615.182,2068.9
615.265,2064.6
615.347,2057.1
615.429,2062.4
615.512,2068.9
615.594,2070.4
615.676,2075.1
615.759,2065.8
615.841,2073.1
615.924,2065.8
616.006,2062.9
616.088,2076.2
616.171,2078.6
616.253,2088.5
616.335,2090.5
616.418,2094.4
616.5,2083.2
616.582,2105.1
616.665,2123.3
616.747,2121.4
616.829,2138.8
616.912,2146.3
616.994,2150.5
617.077,2148.1
617.159,2162.6
617.241,2149.9
617.324,2157.8
617.406,2158.9
617.488,2165.8
617.571,2165.4
617.653,2162.1
617.735,2159.2
617.818,2164.2
617.9,2165.9
617.982,2170.5
618.064,2157.1
618.147,2158.7
618.229,2172.2
618.311,2158.9
618.394,2155.1
618.476,2159.9
618.558,2139.3
618.641,2136.5
618.723,2149.2
618.805,2142.6
618.887,2143.2
618.97,2165.6
619.052,2179.4
619.134,2172.0
619.217,2191.6
619.299,2188.7
619.381,2195.2
619.463,2206.5
619.546,2217.5
619.628,2207.1
619.71,2199.6
619.793,2215.9
619.875,2211.7
619.957,2208.3
620.039,2198.7
620.122,2180.7
620.204,2180.8
620.286,2193.7
620.368,2199.3
620.451,2219.6
620.533,2227.0
620.615,2218.4
620.697,2228.4
620.78,2226.8
620.862,2246.4
620.944,2268.5
621.026,2286.4
621.109,2300.9
621.191,2300.5
621.273,2340.1
621.355,2380.8
621.438,2426.3
621.52,2468.1
621.602,2505.4
621.684,2516.3
621.766,2550.2
621.849,2634.8
621.931,2704.9
622.013,2751.3
622.095,2784.1
622.177,2803.4
622.26,2811.6
622.342,2778.8
622.424,2776.8
622.506,2710.2
622.588,2605.4
622.671,2542.1
622.753,2467.3
622.835,2414.9
622.917,2360.6
622.999,2351.5
623.082,2308.5
623.164,2280.2
623.246,2258.6
623.328,2253.0
623.41,2223.2
623.492,2215.4
623.575,2216.7
623.657,2216.1
623.739,2223.5
623.821,2206.4
623.903,2210.7
623.985,2215.0
624.068,2194.2
624.15,2210.1
624.232,2201.0
624.314,2212.3
624.396,2211.2
624.478,2208.5
624.56,2200.8
624.643,2223.1
624.725,2210.6
624.807,2208.9
624.889,2213.6
624.971,2236.4
625.053,2234.0
625.135,2230.5
625.218,2243.6
625.3,2248.4
625.382,2274.2
625.464,2285.3
625.546,2318.7
625.628,2330.0
625.71,2360.6
625.792,2366.0
625.874,2425.6
625.957,2440.0
626.039,2496.9
626.121,2569.6
626.203,2689.4
626.285,2844.5
626.367,3085.6
626.449,3383.7
626.531,3862.5
626.613,4598.3
626.695,5349.5
626.777,6319.2
626.86,7401.3
626.942,8724.3
627.024,9841.5
627.106,10702.2
627.188,11111.2
627.27,10893.3
627.352,10206.2
627.434,9477.9
627.516,8811.9
627.598,8203.4
627.68,7587.0
627.762,7373.8
627.844,7124.8
627.926,7183.4
628.008,7094.7
628.09,7254.2
628.172,7704.0
628.255,8929.3
628.337,10112.2
628.419,11003.1
628.501,11426.9
628.583,10876.9
628.665,9606.2
628.747,8373.0
628.829,7432.0
628.911,6974.0
628.993,6777.7
629.075,6662.6
629.157,6490.8
629.239,6300.9
629.321,6104.3
629.403,5911.1
629.485,5635.4
629.567,5441.8
629.649,5212.8
629.731,4943.1
629.813,4848.2
629.895,4748.5
629.977,4708.2
630.059,4636.3
630.141,4520.9
630.223,4491.4
630.305,4444.2
630.387,4419.1
630.469,4424.4
630.551,4311.7
630.633,4113.0
630.715,3830.3
630.797,3638.0
630.879,3468.3
630.961,3170.9
631.043,2976.3
631.124,2791.7
631.206,2673.9
631.288,2565.8
631.37,2463.7
631.452,2447.2
631.534,2397.1
631.616,2351.7
631.698,2334.4
631.78,2327.2
631.862,2286.2
631.944,2268.8
632.026,2253.8
632.108,2232.4
632.19,2224.8
632.272,2213.2
632.354,2219.9
632.436,2205.8
632.517,2196.5
632.599,2196.0
632.681,2179.2
632.763,2177.8
632.845,2167.3
632.927,2169.9
633.009,2171.0
633.091,2172.3
633.173,2154.7
633.255,2165.0
633.337,2164.5
633.418,2149.6
633.5,2140.3
633.582,2133.1
633.664,2126.6
633.746,2118.6
633.828,2105.9
633.91,2110.6
633.992,2103.2
634.074,2090.9
634.155,2088.8
634.237,2094.0
634.319,2098.6
634.401,2087.4
634.483,2081.2
634.565,2073.1
634.647,2073.0
634.728,2072.9
634.81,2073.7
634.892,2054.6
634.974,2070.6
635.056,2067.9
635.138,2063.4
635.22,2050.6
635.301,2053.5
635.383,2045.1
635.465,2049.4
635.547,2036.8
635.629,2033.0
635.711,2049.4
635.792,2046.3
635.874,2041.3
635.956,2041.2
636.038,2030.7
636.12,2037.5
636.202,2044.3
636.283,2043.6
636.365,2041.3
636.447,2050.2
636.529,2036.5
636.611,2035.8
636.692,2034.4
636.774,2021.0
636.856,2023.7
636.938,2016.3
637.02,2013.6
637.101,2002.8
637.183,2006.7
637.265,1999.9
637.347,1997.6
637.429,1991.2
637.51,1994.2
637.592,1980.8
637.674,1979.7
637.756,1991.5
637.837,1991.0
637.919,1995.8
638.001,1995.3
638.083,1991.7
638.164,1976.0
638.246,1980.7
638.328,1990.1
638.41,1982.9
638.491,1976.1
638.573,1973.4
638.655,1969.3
638.737,1971.4
638.818,1976.7
638.9,1976.1
638.982,1978.8
639.064,1966.7
639.145,1967.8
639.227,1969.6
639.309,1965.2
639.391,1974.1
639.472,1964.7
639.554,1963.8
639.636,1966.5
639.717,1965.5
639.799,1962.1
639.881,1973.9
639.963,1963.6
640.044,1961.7
640.126,1958.1
640.208,1967.7
640.289,1972.2
640.371,1966.3
640.453,1968.5
640.534,1960.4
640.616,1959.4
640.698,1953.6
640.78,1947.8
640.861,1960.8
640.943,1954.7
641.025,1959.7
641.106,1967.5
641.188,1963.9
641.27,1959.0
641.351,1954.7
641.433,1949.8
641.515,1957.0
641.596,1958.5
641.678,1960.7
641.76,1961.3
641.841,1960.9
641.923,1960.8
642.005,1949.5
642.086,1953.3
642.168,1954.9
642.249,1955.0
642.331,1950.9
642.413,1957.8
642.494,1947.6
642.576,1955.3
642.658,1958.5
642.739,1947.8
642.821,1960.3
642.903,1950.9
642.984,1954.4
643.066,1950.8
643.147,1947.7
643.229,1949.2
643.311,1950.9
643.392,1954.7
643.474,1956.6
643.555,1954.6
643.637,1948.7
643.719,1949.0
643.8,1953.7
643.882,1956.5
643.963,1946.2
644.045,1950.8
644.127,1952.9
644.208,1951.4
644.29,1959.1
644.371,1950.4
644.453,1951.6
644.534,1944.5
644.616,1952.8
644.698,1953.1
644.779,1948.1
644.861,1951.9
644.942,1958.7
645.024,1960.1
645.105,1955.3
645.187,1947.7
645.269,1951.7
645.35,1942.7
645.432,1942.4
645.513,1952.3
645.595,1951.1
645.676,1949.0
645.758,1948.1
645.839,1956.2
645.921,1959.0
646.002,1951.9
646.084,1954.2
646.165,1947.4
646.247,1949.2
646.329,1946.8
646.41,1947.0
646.492,1947.8
646.573,1954.0
646.655,1945.7
646.736,1944.6
646.818,1944.1
646.899,1950.9
646.981,1941.7
647.062,1948.0
647.144,1947.7
647.225,1946.2
647.307,1948.1
647.388,1945.6
647.47,1947.0
647.551,1949.9
647.633,1948.2
647.714,1946.4
647.796,1941.1
647.877,1944.7
647.958,1947.3
648.04,1947.1
648.121,1952.7
648.203,1948.1
648.284,1949.2
648.366,1944.4
648.447,1952.9
648.529,1948.7
648.61,1943.7
648.692,1947.6
648.773,1948.8
648.855,1938.9
648.936,1939.5
649.017,1948.2
649.099,1943.5
649.18,1943.0
649.262,1949.7
649.343,1943.2
649.425,1942.5
649.506,1940.1
649.587,1942.1
649.669,1948.4
649.75,1945.5
649.832,1949.9
649.913,1946.3
649.995,1945.0
650.076,1950.9
650.157,1951.4
650.239,1944.9
650.32,1953.5
650.402,1948.1
650.483,1943.4
650.564,1960.0
650.646,1951.5
650.727,1943.2
650.809,1940.0
650.89,1946.1
650.971,1943.6
651.053,1945.3
651.134,1944.2
651.215,1950.6
651.297,1953.9
651.378,1950.9
651.46,1940.6
651.541,1949.8
651.622,1953.3
651.704,1942.2
651.785,1942.8
651.866,1948.9
651.948,1944.7
652.029,1945.4
652.11,1946.6
652.192,1939.1
652.273,1945.5
652.354,1939.7
652.436,1939.3
652.517,1944.5
652.598,1944.7
652.68,1947.8
652.761,1947.7
652.842,1946.5
652.924,1946.3
653.005,1949.0
653.086,1944.4
653.168,1943.1
653.249,1944.1
653.33,1941.7
653.412,1940.5
653.493,1941.9
653.574,1946.1
653.656,1939.7
653.737,1939.7
653.818,1940.2
653.899,1941.0
653.981,1943.5
654.062,1942.0
654.143,1938.1
654.225,1936.0
654.306,1935.8
654.387,1940.2
654.468,1940.0
654.55,1945.9
654.631,1942.9
654.712,1935.7
654.794,1935.4
654.875,1944.4
654.956,1946.0
655.037,1939.8
655.119,1935.6
655.2,1945.2
655.281,1936.3
655.362,1932.7
655.444,1934.5
655.525,1945.5
655.606,1940.8
655.687,1940.1
655.769,1935.3
655.85,1941.5
655.931,1943.5
656.012,1939.2
656.093,1942.1
656.175,1940.2
656.256,1935.8
656.337,1932.3
656.418,1935.1
656.5,1940.8
656.581,1943.0
656.662,1935.3
656.743,1940.1
656.824,1940.0
656.906,1936.7
656.987,1938.0
657.068,1936.4
657.149,1930.6
657.23,1943.3
657.312,1937.0
657.393,1939.5
657.474,1944.5
657.555,1937.7
657.636,1933.1
657.718,1938.5
657.799,1931.3
657.88,1934.2
657.961,1929.8
658.042,1932.9
658.123,1934.4
658.205,1937.8
658.286,1938.6
658.367,1932.3
658.448,1929.3
658.529,1928.2
658.61,1933.3
658.691,1932.4
658.773,1937.1
658.854,1935.8
658.935,1932.6
659.016,1925.6
659.097,1936.2
659.178,1940.7
659.259,1930.8
659.341,1934.5
659.422,1932.6
659.503,1934.3
659.584,1937.6
659.665,1943.3
659.746,1937.1
659.827,1945.3
659.908,1943.7
659.989,1943.0
660.071,1949.3
660.152,1944.8
660.233,1946.7
660.314,1941.0
660.395,1939.6
660.476,1929.0
660.557,1935.8
660.638,1936.6
660.719,1938.2
660.8,1933.6
660.881,1935.9
660.963,1927.0
661.044,1932.6
