cm-1,Intensity
109.24,27171.0
113.61,27166.3
117.976,27498.4
122.339,27632.5
126.699,27690.1
131.056,27777.6
135.41,27561.9
139.761,27610.3
144.108,27426.4
148.453,27427.2
152.795,27490.9
157.133,27457.4
161.468,27334.4
165.8,27328.9
170.13,27596.1
174.456,27674.3
178.779,27492.9
183.099,27230.9
187.416,27302.0
191.729,27369.8
196.04,27951.6
200.348,27927.2
204.653,27400.0
208.954,27630.2
213.253,27570.7
217.548,27908.1
221.841,27615.5
226.13,27540.3
230.417,27643.7
234.7,27603.7
238.98,27656.4
243.258,27720.1
247.532,28102.3
251.803,27939.7
256.072,27819.4
260.337,27868.3
264.599,27981.6
268.859,27943.8
273.115,27366.9
277.368,27429.8
281.618,27479.0
285.866,27931.3
290.11,28379.9
294.351,28088.0
298.59,27782.1
302.825,27870.6
307.057,27726.3
311.287,28087.7
315.513,28078.4
319.737,27843.1
323.957,27994.0
328.175,28123.7
332.389,27707.7
336.601,27830.3
340.809,28162.3
345.015,28099.4
349.218,27749.7
353.418,27864.3
357.615,28312.6
361.808,28125.5
365.999,27933.0
370.188,27988.1
374.373,27814.1
378.555,28020.4
382.734,27734.7
386.911,27743.1
391.084,28497.3
395.255,27807.9
399.422,27856.6
403.587,28045.3
407.749,27764.1
411.908,27823.1
416.064,27868.8
420.217,27621.2
424.367,27690.5
428.514,28072.1
432.659,27889.7
436.8,27859.8
440.939,27730.6
445.075,27649.4
449.208,27857.5
453.338,28017.5
457.465,27946.8
461.589,27564.3
465.711,27781.4
469.829,27598.4
473.945,27834.6
478.058,27592.8
482.168,27325.4
486.275,27529.3
490.379,27624.3
494.481,27985.2
498.579,27690.8
502.675,27786.2
506.768,27949.3
510.858,27668.8
514.946,27796.1
519.03,27246.3
523.112,27426.1
527.191,27405.6
531.267,27695.7
535.34,27934.7
539.41,27711.3
543.478,27021.7
547.542,27449.9
551.604,27176.3
555.664,27298.6
559.72,27681.1
563.773,27322.4
567.824,26995.0
571.872,27215.4
575.917,27301.8
579.96,27508.8
583.999,27934.4
588.036,27612.3
592.07,27099.4
596.102,26934.2
600.13,26616.1
604.156,27080.6
608.179,27409.7
612.199,27661.0
616.216,27545.6
620.231,27331.6
624.243,27170.0
628.252,27085.3
632.259,26929.6
636.262,27036.8
640.263,27476.4
644.261,27464.9
648.257,27193.3
652.25,27304.4
656.24,27054.3
660.227,27099.8
664.211,27196.4
668.193,27334.4
672.172,27400.8
676.149,26962.3
680.122,27080.6
684.093,26728.9
688.062,27085.9
692.027,27002.3
695.99,26785.4
699.95,26544.1
703.907,26950.1
707.862,27294.0
711.814,27080.6
715.763,26911.1
719.71,27047.6
723.654,26726.0
727.595,27189.8
731.534,26640.8
735.47,26568.7
739.403,27109.4
743.334,27275.2
747.261,26959.8
751.187,27060.3
755.109,26267.3
759.029,25976.4
762.946,26655.7
766.861,26969.1
770.773,26937.5
774.682,26746.2
778.589,26576.5
782.493,26862.6
786.394,26627.3
790.293,26761.4
794.189,26529.1
798.082,27039.0
801.973,27092.6
805.861,26529.8
809.746,26563.1
813.629,26579.3
817.509,26914.4
821.387,26856.5
825.262,26464.8
829.134,26114.2
833.004,25965.2
836.871,26402.4
840.736,26354.1
844.598,26432.1
848.457,26336.7
852.314,26447.5
856.168,26454.5
860.019,26200.8
863.868,26180.9
867.715,26048.9
871.558,26503.9
875.4,26750.1
879.238,26382.3
883.074,26325.4
886.908,26290.7
890.738,26488.9
894.567,26241.7
898.392,25890.4
902.216,26284.0
906.036,26313.4
909.854,26532.4
913.669,26345.9
917.482,25679.2
921.293,25451.8
925.1,26104.7
928.906,26360.1
932.708,26178.9
936.508,26251.2
940.306,26367.4
944.101,26009.1
947.894,25861.7
951.684,25876.2
955.471,26047.1
959.256,25719.9
963.038,25314.7
966.818,25717.7
970.595,25525.9
974.37,25514.6
978.142,25996.4
981.912,26115.7
985.679,26037.8
989.444,25281.3
993.206,25565.7
996.966,25801.7
1000.72,25621.9
1004.48,25621.1
1008.23,25750.8
1011.98,25773.4
1015.73,25377.3
1019.47,25489.8
1023.21,25632.1
1026.95,25523.0
1030.69,25490.5
1034.43,25564.7
1038.16,25602.6
1041.89,25155.1
1045.61,25076.1
1049.34,25230.0
1053.06,25190.7
1056.78,25157.4
1060.5,25205.7
1064.21,24970.2
1067.93,25333.8
1071.64,25369.1
1075.34,25349.7
1079.05,25146.6
1082.75,25520.9
1086.45,25537.8
1090.15,25014.9
1093.85,24977.7
1097.54,24914.0
1101.23,24942.7
1104.92,24919.6
1108.6,25395.1
1112.29,25327.7
1115.97,25098.9
1119.64,24855.6
1123.32,24712.8
1126.99,24712.4
1130.67,24871.2
1134.33,24825.3
1138.0,25031.1
1141.66,24978.7
1145.33,24743.4
1148.98,24964.3
1152.64,24783.3
1156.29,24484.6
1159.95,24536.3
1163.6,24467.5
1167.24,25220.5
1170.89,25223.0
1174.53,24715.3
1178.17,24448.3
1181.81,24426.2
1185.44,24564.2
1189.07,24999.7
1192.7,24387.7
1196.33,23967.8
1199.96,23801.8
1203.58,24210.3
1207.2,24602.1
1210.82,24640.8
1214.44,24495.3
1218.05,24591.3
1221.66,24389.3
1225.27,24169.8
1228.88,24739.7
1232.48,24663.8
1236.08,24585.4
1239.68,24420.3
1243.28,24340.6
1246.87,24318.0
1250.46,24141.7
1254.05,24197.0
1257.64,24361.9
1261.23,24589.6
1264.81,24358.0
1268.39,24012.4
1271.97,23971.1
1275.55,24016.5
1279.12,24026.8
1282.69,23826.4
1286.26,23673.1
1289.83,23535.1
1293.39,24116.3
1296.95,24190.1
1300.51,23925.8
1304.07,24229.6
1307.62,24200.9
1311.18,23790.8
1314.73,23391.2
1318.28,23400.7
1321.82,23481.4
1325.37,23807.4
1328.91,24099.1
1332.45,24090.4
1335.98,23907.1
1339.52,23629.6
1343.05,23499.3
1346.58,23515.6
1350.11,23995.9
1353.63,23905.8
1357.15,23686.1
1360.67,23384.9
1364.19,23204.9
1367.71,23211.8
1371.22,23103.8
1374.73,22850.5
1378.24,23057.6
1381.75,23421.4
1385.26,23115.8
1388.76,22918.1
1392.26,23287.4
1395.76,23503.3
1399.25,23558.7
1402.74,23485.1
1406.24,23324.5
1409.72,23467.6
1413.21,23597.4
1416.7,23284.1
1420.18,22940.3
1423.66,22791.8
1427.14,22766.6
1430.61,22757.3
1434.08,22779.4
1437.56,22784.5
1441.02,22827.3
1444.49,22823.4
1447.96,22936.8
1451.42,23018.6
1454.88,22618.6
1458.33,22233.8
1461.79,21831.8
1465.24,22269.3
1468.69,22649.4
1472.14,22463.0
1475.59,22293.7
1479.03,22853.5
1482.48,22451.3
1485.92,21842.4
1489.35,21754.7
1492.79,22046.6
1496.22,22144.2
1499.65,22071.7
1503.08,21705.8
1506.51,21770.0
1509.93,21837.3
1513.36,22031.2
1516.78,22075.3
1520.19,22335.9
1523.61,22336.6
1527.02,21938.3
1530.44,21951.5
1533.84,21926.7
1537.25,22044.3
1540.66,21857.3
1544.06,21730.3
1547.46,21617.8
1550.86,21331.1
1554.25,21273.0
1557.65,21413.8
1561.04,21684.2
1564.43,21603.3
1567.82,21374.9
1571.2,21257.9
1574.59,21160.9
1577.97,21265.0
1581.35,21027.2
1584.72,20672.6
1588.1,21161.3
1591.47,21674.8
1594.84,21660.5
1598.21,21190.6
1601.58,20647.2
1604.94,20514.4
1608.3,20225.8
1611.66,20538.6
1615.02,21214.1
1618.37,20831.1
1621.73,20317.3
1625.08,20427.3
1628.43,20996.9
1631.77,21047.0
1635.12,20688.6
1638.46,20572.2
1641.8,20520.1
1645.14,20470.0
1648.48,20493.6
1651.81,20615.1
1655.14,20545.9
1658.47,20309.3
1661.8,20321.5
1665.13,20122.8
1668.45,20044.8
1671.77,19704.5
1675.09,19869.5
1678.41,19958.6
1681.73,20328.6
1685.04,20491.3
1688.35,20407.0
1691.66,20200.6
1694.97,19939.9
1698.27,19498.5
1701.57,19157.3
1704.88,19470.9
1708.17,19727.6
1711.47,19763.7
1714.77,19701.8
1718.06,19430.3
1721.35,19253.3
1724.64,19530.2
1727.92,19941.0
1731.21,19785.1
1734.49,19594.7
1737.77,19504.8
1741.05,19626.3
1744.32,19745.6
1747.6,19396.4
1750.87,19673.8
1754.14,19673.4
1757.41,19349.4
1760.67,19105.8
1763.94,19073.9
1767.2,18838.9
1770.46,18666.0
1773.72,19018.2
1776.97,19024.1
1780.23,18959.7
1783.48,18753.7
1786.73,18442.3
1789.97,18587.3
1793.22,18944.1
1796.46,19047.2
1799.7,19041.5
1802.94,18799.4
1806.18,18711.4
1809.42,18438.0
1812.65,18268.8
1815.88,18402.4
1819.11,18484.0
1822.34,18422.2
1825.56,18618.3
1828.78,18462.4
1832.01,18178.6
1835.23,18170.8
1838.44,18410.7
1841.66,18385.6
1844.87,17916.4
1848.08,17843.6
1851.29,17802.8
1854.5,18056.0
1857.7,17652.1
1860.91,17186.1
1864.11,17376.2
1867.31,17586.7
1870.5,17803.7
1873.7,17513.8
1876.89,17672.6
1880.08,17559.2
1883.27,17398.3
1886.46,17452.3
1889.65,17404.7
1892.83,17216.1
1896.01,17027.2
1899.19,16816.6
1902.37,16872.4
1905.54,16698.8
1908.72,17003.1
1911.89,17364.9
1915.06,17135.5
1918.23,16835.2
1921.39,16733.7
1924.56,16972.4
1927.72,16968.8
1930.88,16924.3
1934.04,16273.8
1937.19,15874.8
1940.35,15837.0
1943.5,16010.8
1946.65,16396.9
1949.8,16149.1
1952.94,15890.8
1956.09,15997.4
1959.23,16105.4
1962.37,16343.9
1965.51,16197.7
1968.64,15886.8
1971.78,15662.8
1974.91,15950.5
1978.04,15898.0
1981.17,15881.5
1984.3,15658.3
1987.42,15762.0
1990.55,15357.3
1993.67,14940.0
1996.79,14766.2
1999.9,14586.0
2003.02,14836.2
2006.13,15055.4
2009.25,15286.4
2012.36,15018.9
2015.46,14986.3
2018.57,14880.1
2021.67,14889.2
2024.78,14978.5
2027.88,15053.2
2030.97,14862.3
2034.07,14671.2
2037.16,14716.8
2040.26,14758.9
2043.35,14371.3
2046.44,14335.3
2049.52,14421.0
2052.61,14194.0
2055.69,13915.0
2058.77,13799.2
2061.85,13887.8
2064.93,14070.5
2068.01,14198.5
2071.08,13819.8
2074.15,13466.5
2077.22,13324.0
2080.29,13542.3
2083.36,13890.5
2086.42,14014.5
2089.48,14040.3
2092.54,13588.9
2095.6,13739.5
2098.66,13993.3
2101.72,14015.8
2104.77,13826.5
2107.82,13498.0
2110.87,13231.5
2113.92,13142.8
2116.96,13107.5
2120.01,13123.9
2123.05,12872.3
2126.09,12508.3
2129.13,12517.1
2132.16,12989.5
2135.2,13303.0
2138.23,13288.4
2141.26,13071.8
2144.29,12829.3
2147.32,12833.6
2150.35,12872.5
2153.37,12697.0
2156.39,12745.6
2159.41,12527.7
2162.43,12226.5
2165.45,12127.2
2168.46,11954.8
2171.47,11965.3
2174.48,12184.7
2177.49,12331.0
2180.5,12465.0
2183.51,12127.0
2186.51,11963.8
2189.51,12138.5
2192.51,12320.1
2195.51,12305.8
2198.51,12122.4
2201.5,11944.2
2204.49,11764.7
2207.49,11850.1
2210.47,11802.5
2213.46,11872.2
2216.45,11725.2
2219.43,11764.6
2222.41,11568.5
2225.39,11648.8
2228.37,11488.1
2231.35,11371.5
2234.32,11343.3
2237.3,11389.0
2240.27,11447.5
2243.24,11396.4
2246.21,11334.3
2249.17,11239.4
2252.14,11196.6
2255.1,11353.7
2258.06,11336.5
2261.02,11156.6
2263.97,11134.8
2266.93,11077.6
2269.88,10944.8
2272.84,10869.3
2275.79,10764.8
2278.73,10817.5
2281.68,10698.8
2284.62,10471.2
2287.57,10310.0
2290.51,10161.0
2293.45,10373.5
2296.39,10648.8
2299.32,10558.8
2302.26,10429.6
2305.19,10517.9
2308.12,10509.0
2311.05,10465.5
2313.97,10373.9
2316.9,10433.5
2319.82,10468.3
2322.75,10261.5
2325.67,10363.0
2328.58,10497.5
2331.5,10310.5
2334.42,10123.3
2337.33,10091.3
2340.24,10044.6
2343.15,10119.3
2346.06,9927.3
2348.96,9727.0
2351.87,9911.2
2354.77,9823.9
2357.67,9588.2
2360.57,9486.6
2363.47,9502.85
2366.37,9760.65
2369.26,9946.3
2372.15,9849.4
2375.04,9764.15
2377.93,9588.05
2380.82,9487.9
2383.7,9244.55
2386.59,9328.25
2389.47,9553.1
2392.35,9455.85
2395.23,9234.6
2398.11,9247.35
2400.98,9409.8
2403.86,9387.1
2406.73,9241.1
2409.6,9320.9
2412.47,9343.5
2415.33,9262.9
2418.2,9234.35
2421.06,9088.8
2423.92,8968.4
2426.78,8881.35
2429.64,8884.45
2432.5,8844.1
2435.35,8798.05
2438.21,8832.15
2441.06,8763.7
2443.91,8738.6
2446.76,8777.95
2449.6,8776.75
2452.45,8743.6
2455.29,8792.8
2458.13,8728.25
2460.97,8658.8
2463.81,8591.15
2466.65,8605.55
2469.48,8511.5
2472.32,8554.1
2475.15,8499.2
2477.98,8506.35
2480.81,8322.3
2483.63,8219.15
2486.46,8383.7
2489.28,8536.45
2492.1,8426.85
2494.92,8242.3
2497.74,8242.1
2500.56,8167.05
2503.37,8244.5
2506.18,8397.1
2509.0,8271.5
2511.81,8145.85
2514.61,8042.5
2517.42,7976.55
2520.23,7876.8
2523.03,7876.25
2525.83,7868.65
2528.63,7892.05
2531.43,7956.8
2534.23,7923.3
2537.02,7794.95
2539.81,7730.9
2542.61,7731.2
2545.4,7727.9
2548.19,7777.2
2550.97,7763.9
2553.76,7725.75
2556.54,7676.0
2559.32,7766.8
2562.1,7800.75
2564.88,7780.3
2567.66,7663.65
2570.44,7482.5
2573.21,7432.25
2575.98,7430.4
2578.75,7436.15
2581.52,7450.9
2584.29,7534.65
2587.06,7355.45
2589.82,7264.7
2592.58,7332.85
2595.34,7457.0
2598.1,7374.2
2600.86,7209.7
2603.62,7218.5
2606.37,7155.2
2609.13,7170.85
2611.88,7180.65
2614.63,7137.45
2617.38,7069.75
2620.12,7055.95
2622.87,7063.05
2625.61,7100.5
2628.35,7051.25
2631.09,7066.0
2633.83,7100.65
2636.57,7025.9
2639.3,6819.0
2642.04,6773.15
2644.77,6728.15
2647.5,6771.5
2650.23,6944.15
2652.96,6897.25
2655.68,6753.6
2658.41,6816.8
2661.13,6896.65
2663.85,6725.7
2666.57,6689.8
2669.29,6714.3
2672.01,6765.6
2674.72,6753.2
2677.44,6684.05
2680.15,6690.25
2682.86,6661.45
2685.57,6645.5
2688.27,6631.0
2690.98,6536.85
2693.68,6445.75
2696.39,6455.5
2699.09,6467.65
2701.79,6441.7
2704.48,6309.5
2707.18,6292.95
2709.87,6243.35
2712.57,6313.8
2715.26,6390.9
2717.95,6347.4
2720.64,6339.25
2723.33,6384.85
2726.01,6352.6
2728.69,6304.4
2731.38,6230.95
2734.06,6155.55
2736.74,6208.3
2739.41,6196.85
2742.09,6115.1
2744.77,6072.65
2747.44,6037.1
2750.11,6047.4
2752.78,6074.4
2755.45,6126.15
2758.12,6096.15
2760.78,5993.55
2763.44,5967.5
2766.11,5960.6
2768.77,5964.25
2771.43,5963.75
2774.08,5963.2
2776.74,5955.8
2779.4,5938.15
2782.05,5913.1
2784.7,5954.85
2787.35,5959.7
2790.0,5965.5
2792.65,5913.3
2795.29,5868.2
2797.94,5819.6
2800.58,5828.15
2803.22,5739.8
2805.86,5679.25
2808.5,5643.05
2811.13,5595.45
2813.77,5654.4
2816.4,5646.4
2819.04,5673.3
2821.67,5632.25
2824.3,5668.25
2826.92,5696.65
2829.55,5677.65
2832.17,5600.1
2834.8,5529.6
2837.42,5488.35
2840.04,5510.2
2842.66,5518.45
2845.27,5557.8
2847.89,5537.35
2850.5,5484.15
2853.12,5406.15
2855.73,5414.85
2858.34,5445.9
2860.95,5416.75
2863.55,5384.15
2866.16,5319.6
2868.76,5286.4
2871.36,5248.4
2873.96,5236.75
2876.56,5257.45
2879.16,5325.75
2881.76,5351.9
2884.35,5383.0
2886.95,5386.9
2889.54,5309.25
2892.13,5235.7
2894.72,5207.25
2897.3,5205.15
2899.89,5257.9
2902.48,5240.95
2905.06,5203.75
2907.64,5114.85
2910.22,5029.1
2912.8,5049.1
2915.38,5065.35
2917.95,5012.9
2920.53,5029.45
2923.1,5048.35
2925.67,5029.95
2928.24,5003.35
2930.81,4957.3
2933.38,4972.1
2935.94,5005.35
2938.51,5037.0
2941.07,5003.75
2943.63,4974.9
2946.19,4915.5
2948.75,4902.85
2951.31,4944.5
2953.86,4918.65
2956.42,4900.45
2958.97,4863.1
2961.52,4856.55
2964.07,4872.85
2966.62,4900.7
2969.17,4886.85
2971.71,4869.7
2974.26,4867.45
2976.8,4893.2
2979.34,4858.25
2981.88,4815.5
2984.42,4768.0
2986.95,4746.95
2989.49,4783.5
2992.02,4748.45
2994.56,4712.7
2997.09,4688.75
2999.62,4676.7
3002.15,4656.15
3004.67,4646.8
3007.2,4639.05
3009.72,4634.1
3012.25,4622.8
3014.77,4597.8
3017.29,4598.7
3019.81,4621.95
3022.32,4628.7
3024.84,4616.55
3027.35,4577.95
3029.87,4575.55
3032.38,4565.2
3034.89,4554.5
3037.4,4540.2
3039.9,4510.65
3042.41,4510.75
3044.91,4499.2
3047.42,4483.8
3049.92,4534.4
3052.42,4524.55
3054.92,4529.8
3057.41,4498.25
3059.91,4478.0
3062.41,4467.5
3064.9,4465.35
3067.39,4453.9
3069.88,4459.5
3072.37,4426.4
3074.86,4415.75
3077.34,4391.55
3079.83,4373.35
3082.31,4380.95
3084.8,4409.9
3087.28,4402.9
3089.76,4395.0
3092.23,4374.7
3094.71,4354.85
3097.19,4357.3
3099.66,4346.95
3102.13,4341.3
3104.6,4332.95
3107.07,4345.55
3109.54,4324.85
3112.01,4300.55
3114.47,4298.5
3116.94,4308.7
3119.4,4294.6
3121.86,4290.35
3124.32,4291.15
3126.78,4288.35
3129.24,4277.85
3131.7,4277.5
3134.15,4281.65
3136.6,4280.85
3139.06,4282.1
3141.51,4266.15
3143.96,4242.5
3146.4,4236.15
3148.85,4224.85
3151.3,4209.75
3153.74,4202.4
3156.18,4205.55
3158.62,4207.75
3161.06,4199.0
3163.5,4200.5
3165.94,4205.95
3168.38,4214.1
3170.81,4185.25
3173.24,4172.95
3175.68,4165.15
3178.11,4157.15
3180.53,4149.3
3182.96,4144.0
3185.39,4143.15
3187.81,4146.95
3190.24,4161.95
3192.66,4137.2
3195.08,4114.9
3197.5,4115.0
3199.92,4101.65
3202.34,4109.5
3204.75,4107.5
3207.17,4092.2
3209.58,4090.4
3211.99,4093.55
3214.4,4111.55
3216.81,4120.05
3219.22,4114.4
3221.63,4108.45
3224.03,4105.05
3226.44,4092.6
3228.84,4084.0
3231.24,4077.25
3233.64,4066.1
3236.04,4061.2
3238.43,4057.7
3240.83,4064.2
3243.23,4081.35
3245.62,4084.4
3248.01,4082.95
3250.4,4078.45
3252.79,4056.25
3255.18,4046.45
3257.57,4052.6
3259.95,4040.2
3262.34,4035.05
3264.72,4042.35
3267.1,4044.15
3269.48,4035.35
3271.86,4028.5
3274.24,4029.25
3276.61,4019.8
3278.99,4023.5
3281.36,4027.85
3283.73,4023.4
3286.11,4024.75
3288.48,4010.0
3290.84,4005.35
3293.21,3998.6
3295.58,3996.75
3297.94,3997.2
3300.31,3999.8
3302.67,4002.85
3305.03,4000.3
3307.39,3997.95
3309.75,3998.35
3312.1,3991.1
3314.46,3988.7
3316.81,3993.65
3319.17,3991.05
3321.52,3974.3
3323.87,3959.85
3326.22,3966.05
3328.57,3971.15
3330.91,3970.65
3333.26,3963.8
3335.6,3968.55
3337.95,3973.15
3340.29,3955.05
3342.63,3949.65
3344.97,3947.85
3347.3,3961.15
3349.64,3959.65
3351.98,3957.4
3354.31,3958.65
3356.64,3954.1
3358.97,3953.5
3361.3,3946.95
3363.63,3950.9
3365.96,3944.6
3368.29,3939.3
3370.61,3937.3
3372.94,3922.25
3375.26,3918.85
