nm,Intensity
526.532,829.833
526.669,830.733
526.805,830.667
526.942,830.767
527.079,830.167
527.216,829.833
527.352,830.067
527.489,831.133
527.625,830.767
527.762,830.367
527.899,830.5
528.035,831.2
528.172,829.733
528.309,830.167
528.445,831.1
528.582,831.067
528.718,830.8
528.855,830.6
528.992,829.733
529.128,830.867
529.265,830.433
529.401,830.433
529.538,830.133
529.674,829.9
529.811,830.333
529.947,829.833
530.084,831.2
530.22,830.867
530.357,830.367
530.493,830.267
530.63,829.533
530.766,831.267
530.903,830.0
531.039,829.967
531.176,830.767
531.312,830.267
531.449,830.467
531.585,830.667
531.721,830.067
531.858,830.233
531.994,834.7
532.131,850.7
532.267,847.267
532.403,832.133
532.54,830.233
532.676,829.667
532.812,829.567
532.949,830.5
533.085,830.467
533.221,830.4
533.358,830.267
533.494,831.5
533.63,831.4
533.767,839.167
533.903,864.567
534.039,888.567
534.176,893.6
534.312,890.433
534.448,888.133
534.584,889.867
534.721,891.5
534.857,901.933
534.993,907.033
535.129,915.667
535.266,912.167
535.402,896.367
535.538,882.867
535.674,870.867
535.81,864.367
535.947,859.8
536.083,857.633
536.219,855.633
536.355,858.0
536.491,857.633
536.627,858.367
536.764,864.067
536.9,873.467
537.036,880.8
537.172,884.367
537.308,880.167
537.444,869.267
537.58,861.9
537.716,856.733
537.852,855.067
537.988,855.767
538.125,856.467
538.261,854.933
538.397,855.7
538.533,855.067
538.669,853.667
538.805,854.067
538.941,855.933
539.077,859.333
539.213,865.1
539.349,868.3
539.485,866.967
539.621,863.6
539.757,856.9
539.893,852.9
540.029,851.0
540.165,849.167
540.301,847.9
540.437,846.033
540.572,847.367
540.708,846.733
540.844,847.633
540.98,848.733
541.116,849.833
541.252,855.333
541.388,857.9
541.524,857.867
541.66,853.433
541.795,849.7
541.931,848.8
542.067,847.667
542.203,846.233
542.339,845.233
542.475,845.233
542.611,845.9
542.746,845.5
542.882,847.233
543.018,847.833
543.154,849.1
543.289,854.333
543.425,864.6
543.561,898.867
543.697,936.033
543.833,917.367
543.968,881.433
544.104,865.767
544.24,856.667
544.375,853.767
544.511,852.233
544.647,850.2
544.783,850.3
544.918,851.967
545.054,856.0
545.19,866.033
545.325,877.367
545.461,876.633
545.597,866.933
545.732,857.933
545.868,851.3
546.004,848.767
546.139,847.633
546.275,845.767
546.41,846.1
546.546,846.1
546.682,846.4
546.817,846.233
546.953,848.4
547.088,848.9
547.224,851.433
547.36,858.767
547.495,864.0
547.631,866.133
547.766,861.367
547.902,853.2
548.037,849.6
548.173,847.567
548.308,846.8
548.444,845.5
548.579,844.867
548.715,843.367
548.85,844.067
548.986,844.033
549.121,842.933
549.257,842.933
549.392,841.767
549.528,841.8
549.663,841.967
549.798,842.167
549.934,841.8
550.069,842.233
550.205,842.767
550.34,842.633
550.475,842.167
550.611,842.6
550.746,841.433
550.882,842.333
551.017,841.367
551.152,841.6
551.288,840.667
551.423,841.567
551.558,841.7
551.694,842.6
551.829,842.067
551.964,841.567
552.1,842.367
552.235,841.4
552.37,841.4
552.505,842.767
552.641,842.233
552.776,841.267
552.911,842.633
553.047,840.933
553.182,842.2
553.317,842.8
553.452,842.6
553.588,842.5
553.723,842.633
553.858,840.867
553.993,843.033
554.128,844.4
554.264,843.633
554.399,842.9
554.534,844.167
554.669,845.867
554.804,846.933
554.939,847.767
555.075,848.167
555.21,848.533
555.345,850.367
555.48,854.367
555.615,857.6
555.75,868.933
555.885,897.467
556.02,989.0
556.155,1053.47
556.291,955.767
556.426,892.733
556.561,878.833
556.696,881.967
556.831,894.667
556.966,911.767
557.101,944.267
557.236,928.767
557.371,885.0
557.506,871.367
557.641,862.533
557.776,858.7
557.911,855.1
558.046,853.633
558.181,851.933
558.316,851.8
558.451,849.833
558.586,850.333
558.721,853.167
558.856,859.267
558.991,862.833
559.126,855.867
559.261,850.1
559.396,849.5
559.531,848.967
559.665,849.233
559.8,850.3
559.935,854.133
560.07,862.5
560.205,873.467
560.34,871.633
560.475,860.333
560.61,857.667
560.745,857.733
560.879,862.033
561.014,877.333
561.149,923.8
561.284,955.4
561.419,911.533
561.553,868.6
561.688,858.233
561.823,863.5
561.958,873.933
562.093,879.067
562.227,867.2
562.362,859.367
562.497,856.6
562.632,856.5
562.767,857.133
562.901,859.667
563.036,865.533
563.171,878.367
563.305,885.067
563.44,879.867
563.575,872.833
563.71,862.667
563.844,857.4
563.979,852.9
564.114,852.333
564.248,850.567
564.383,850.2
564.518,852.067
564.652,851.367
564.787,851.133
564.922,851.833
565.056,852.833
565.191,855.4
565.325,860.267
565.46,859.867
565.595,856.667
565.729,854.767
565.864,851.933
565.999,851.5
566.133,852.667
566.268,855.167
566.402,855.867
566.537,861.6
566.671,875.7
566.806,905.6
566.94,939.633
567.075,935.8
567.21,930.533
567.344,951.967
567.479,973.733
567.613,934.033
567.748,884.9
567.882,865.0
568.017,857.767
568.151,856.9
568.285,856.3
568.42,858.133
568.554,858.2
568.689,861.767
568.823,868.367
568.958,879.5
569.092,895.867
569.227,890.933
569.361,873.733
569.495,862.6
569.63,859.133
569.764,857.233
569.899,858.867
570.033,860.567
570.167,873.6
570.302,880.467
570.436,867.933
570.571,859.233
570.705,856.267
570.839,855.033
570.974,857.0
571.108,855.767
571.242,858.9
571.377,862.133
571.511,867.133
571.645,871.3
571.78,875.3
571.914,880.0
572.048,873.133
572.182,871.0
572.317,879.067
572.451,897.433
572.585,941.467
572.719,981.8
572.854,952.667
572.988,903.2
573.122,881.5
573.256,872.333
573.391,874.567
573.525,888.6
573.659,912.733
573.793,909.167
573.927,888.067
574.062,878.133
574.196,874.433
574.33,872.467
574.464,864.0
574.598,856.8
574.733,852.933
574.867,851.933
575.001,851.633
575.135,851.333
575.269,849.967
575.403,851.833
575.537,852.0
575.671,851.833
575.806,852.867
575.94,861.333
576.074,884.0
576.208,917.5
576.342,914.1
576.476,903.967
576.61,917.667
576.744,948.4
576.878,998.4
577.012,1031.93
577.146,1002.93
577.28,937.0
577.414,893.0
577.548,871.6
577.682,863.367
577.817,857.867
577.951,855.833
578.085,853.467
578.219,851.833
578.353,851.6
578.486,849.6
578.62,849.167
578.754,849.8
578.888,849.267
579.022,848.567
579.156,849.533
579.29,847.967
579.424,849.3
579.558,849.533
579.692,850.133
579.826,849.433
579.96,848.8
580.094,847.967
580.228,848.633
580.362,848.4
580.496,848.633
580.629,848.3
580.763,847.9
580.897,846.267
581.031,847.3
581.165,847.867
581.299,847.567
581.433,847.567
581.566,847.0
581.7,847.633
581.834,848.267
581.968,847.4
582.102,849.9
582.236,848.9
582.369,848.967
582.503,848.433
582.637,849.067
582.771,848.767
582.905,849.567
583.038,847.7
583.172,849.767
583.306,849.133
583.44,848.133
583.573,849.2
583.707,849.233
583.841,848.133
583.975,848.667
584.108,848.633
584.242,849.0
584.376,849.4
584.509,848.033
584.643,849.167
584.777,849.767
584.911,849.6
585.044,848.933
585.178,849.6
585.312,849.733
585.445,849.433
585.579,848.0
585.713,847.767
585.846,846.967
585.98,847.5
586.113,848.267
586.247,846.933
586.381,848.433
586.514,847.7
586.648,847.333
586.782,846.933
586.915,847.133
587.049,847.333
587.182,847.4
587.316,847.567
587.45,847.1
587.583,846.967
587.717,846.133
587.85,847.5
587.984,845.967
588.117,846.433
588.251,846.233
588.384,846.2
588.518,845.1
588.651,846.2
588.785,845.533
588.919,844.2
589.052,844.9
589.186,845.767
589.319,846.633
589.453,844.533
589.586,844.833
589.72,845.533
589.853,844.233
589.986,844.5
590.12,844.933
590.253,846.3
590.387,845.933
590.52,846.5
590.654,847.4
590.787,846.5
590.921,845.867
591.054,846.533
591.187,846.8
591.321,845.6
591.454,845.833
591.588,844.867
591.721,846.067
591.854,846.067
591.988,845.833
592.121,846.2
592.255,845.367
592.388,845.9
592.521,845.533
592.655,846.367
592.788,846.3
592.921,845.667
593.055,845.7
593.188,846.0
593.321,846.067
593.455,845.4
593.588,846.967
593.721,845.2
593.855,847.9
593.988,844.467
594.121,845.367
594.255,844.667
594.388,846.433
594.521,844.567
594.654,844.967
594.788,845.5
594.921,845.2
595.054,845.5
595.187,845.2
595.321,845.8
595.454,845.433
595.587,845.433
595.72,845.6
595.854,844.367
595.987,845.667
596.12,845.967
596.253,845.033
596.387,846.767
596.52,844.433
596.653,845.933
596.786,846.533
596.919,845.933
597.052,845.8
597.186,845.067
597.319,845.9
597.452,845.567
597.585,845.133
597.718,845.367
597.851,844.367
597.985,846.5
598.118,845.667
598.251,846.0
598.384,845.467
598.517,845.467
598.65,845.0
598.783,845.733
598.916,846.467
599.049,846.6
599.183,846.833
599.316,846.333
599.449,846.433
599.582,846.8
599.715,846.933
599.848,845.467
599.981,846.233
600.114,846.5
600.247,846.667
600.38,846.733
600.513,847.133
600.646,846.8
600.779,845.667
600.912,846.967
601.045,846.033
601.178,844.933
601.311,846.133
601.444,845.4
601.577,846.7
601.71,844.6
601.843,845.467
601.976,845.267
602.109,844.633
602.242,845.533
602.375,845.867
602.508,845.033
602.641,845.6
602.774,845.9
602.907,846.233
603.04,845.867
603.173,847.167
603.306,845.667
603.439,846.167
603.572,845.067
603.705,847.367
603.838,847.233
603.971,847.333
604.103,846.2
604.236,847.033
604.369,846.633
604.502,847.0
604.635,846.833
604.768,847.767
604.901,847.433
605.034,846.667
605.167,848.3
605.299,846.9
605.432,847.067
605.565,848.0
605.698,847.533
605.831,847.233
605.964,847.0
606.096,846.233
606.229,847.8
606.362,847.667
606.495,847.3
606.628,846.233
606.761,846.767
606.893,847.9
607.026,847.733
607.159,848.1
607.292,847.933
607.425,849.367
607.557,848.6
607.69,848.433
607.823,847.133
607.956,848.6
608.088,846.9
608.221,848.067
608.354,847.533
608.487,846.867
608.619,846.233
608.752,846.433
608.885,846.667
609.018,847.367
609.15,848.033
609.283,847.7
609.416,848.0
609.548,846.5
609.681,848.5
609.814,847.367
609.947,847.8
610.079,846.767
610.212,846.1
610.345,847.133
610.477,846.4
610.61,846.633
610.743,846.6
610.875,848.233
611.008,847.467
611.141,846.567
611.273,846.7
611.406,847.6
611.539,847.533
611.671,846.967
611.804,846.367
611.936,847.133
612.069,846.867
612.202,847.233
612.334,847.733
612.467,847.5
612.6,848.033
612.732,847.533
612.865,846.7
612.997,847.5
613.13,847.267
613.263,846.9
613.395,846.167
613.528,846.367
613.66,845.433
613.793,846.133
613.925,847.633
614.058,847.067
614.19,847.167
614.323,847.733
614.456,848.6
614.588,848.4
614.721,847.5
614.853,849.633
614.986,848.433
615.118,849.9
615.251,849.333
615.383,848.5
615.516,848.6
615.648,848.2
615.781,848.633
615.913,848.733
616.046,847.9
616.178,847.467
616.311,848.667
616.443,849.4
616.576,849.833
616.708,848.867
616.841,848.833
616.973,849.433
617.106,852.833
617.238,852.333
617.37,851.067
617.503,851.667
617.635,852.667
617.768,850.6
617.9,851.833
618.033,851.333
618.165,853.867
618.297,852.9
618.43,853.233
618.562,852.233
618.695,852.9
618.827,853.1
618.96,853.9
619.092,853.067
619.224,856.1
619.357,857.067
619.489,858.1
619.621,861.167
619.754,860.033
619.886,861.633
620.019,861.267
620.151,859.833
620.283,860.167
620.416,859.967
620.548,859.9
620.68,860.567
620.813,861.033
620.945,860.167
621.077,859.367
621.21,861.067
621.342,861.333
621.474,863.9
621.607,867.233
621.739,873.333
621.871,880.867
622.004,886.633
622.136,893.467
622.268,905.133
622.401,914.267
622.533,906.4
622.665,895.4
622.797,886.467
622.93,878.3
623.062,874.7
623.194,872.433
623.326,868.133
623.459,866.667
623.591,865.167
623.723,864.067
623.856,860.9
623.988,859.033
624.12,857.467
624.252,857.2
624.384,856.933
624.517,856.0
624.649,857.867
624.781,857.567
624.913,858.533
625.046,860.467
625.178,858.6
625.31,860.6
625.442,862.9
625.574,865.267
625.707,868.133
625.839,871.3
625.971,874.467
626.103,878.667
626.235,886.567
626.368,898.733
626.5,923.233
626.632,976.867
626.764,1071.2
626.896,1165.5
627.028,1185.47
627.161,1122.33
627.293,1045.3
627.425,1003.07
627.557,990.433
627.689,1024.03
627.821,1126.47
627.953,1287.33
628.086,1374.2
628.218,1374.93
628.35,1398.3
628.482,1482.27
628.614,1571.97
628.746,1587.03
628.878,1520.97
629.01,1439.17
629.143,1372.07
629.275,1353.43
629.407,1367.77
629.539,1392.0
629.671,1359.8
629.803,1289.1
629.935,1243.77
630.067,1240.53
630.199,1249.8
630.331,1254.5
630.463,1223.8
630.596,1157.1
630.728,1092.27
630.86,1045.1
630.992,1040.33
631.124,1081.13
631.256,1173.3
631.388,1263.4
631.52,1296.43
631.652,1325.03
631.784,1347.9
631.916,1307.3
632.048,1230.03
632.18,1135.67
632.312,1046.03
632.444,982.267
632.576,940.8
632.708,915.533
632.84,900.467
632.972,888.867
633.104,880.333
633.236,876.2
633.368,871.833
633.5,866.5
633.632,866.2
633.764,864.2
633.896,861.267
634.028,860.1
634.16,858.333
634.292,856.9
634.424,854.7
634.556,854.467
634.688,853.233
634.82,853.2
634.952,852.4
635.084,851.5
635.216,851.633
635.348,850.9
635.48,851.367
635.612,851.267
635.744,851.367
635.876,849.967
636.007,849.733
636.139,849.3
636.271,850.933
636.403,848.6
636.535,848.3
636.667,849.167
636.799,849.267
636.931,849.567
637.063,848.433
637.195,849.1
637.327,847.8
637.459,848.4
637.59,848.933
637.722,848.333
637.854,848.6
637.986,847.633
638.118,848.4
638.25,850.2
638.382,848.567
638.514,848.967
638.645,848.667
638.777,849.667
638.909,849.067
639.041,850.1
639.173,849.5
639.305,848.867
639.437,849.867
639.568,848.633
639.7,848.533
639.832,848.667
639.964,848.867
640.096,848.267
640.228,848.667
640.36,848.1
640.491,848.767
640.623,849.3
640.755,848.8
640.887,848.4
641.019,849.767
641.15,849.067
641.282,849.233
641.414,849.167
641.546,848.933
641.678,849.0
641.81,848.4
641.941,849.7
642.073,847.933
642.205,848.567
642.337,847.333
642.468,845.933
642.6,846.967
642.732,846.3
642.864,844.6
642.996,844.5
643.127,845.533
643.259,844.3
643.391,844.133
643.523,844.1
643.654,843.767
643.786,844.1
643.918,843.6
644.05,844.667
644.181,844.5
644.313,843.667
644.445,843.7
644.577,843.7
644.708,843.233
644.84,843.133
644.972,843.1
645.104,844.133
645.235,842.533
645.367,843.167
645.499,843.5
645.631,842.0
645.762,843.733
645.894,842.6
646.026,842.6
646.157,842.433
646.289,843.033
646.421,842.5
646.553,842.233
646.684,842.3
646.816,842.0
646.948,842.7
647.079,843.333
647.211,843.6
647.343,843.067
647.474,842.267
647.606,843.067
647.738,843.033
647.869,843.267
648.001,842.133
648.133,842.133
648.265,842.867
648.396,842.367
648.528,842.8
648.66,841.233
648.791,842.933
648.923,841.933
649.054,842.9
649.186,842.0
649.318,841.567
649.449,841.3
649.581,841.0
649.713,841.8
649.844,841.3
649.976,841.9
650.108,842.733
650.239,840.9
650.371,841.533
650.503,842.267
650.634,842.667
650.766,841.767
650.897,842.367
651.029,840.967
651.161,840.767
651.292,841.7
651.424,842.267
651.556,840.667
651.687,841.0
651.819,841.933
651.95,840.667
652.082,841.333
652.214,841.967
652.345,841.033
652.477,841.267
652.608,841.3
652.74,841.433
652.872,841.5
653.003,840.933
653.135,840.533
653.266,841.1
653.398,841.233
653.529,841.333
653.661,841.7
653.793,842.933
653.924,841.767
654.056,841.2
654.187,841.0
654.319,839.633
654.45,839.867
654.582,840.9
654.714,840.767
654.845,839.7
654.977,839.733
655.108,840.667
655.24,840.1
655.371,838.833
655.503,840.533
655.634,840.033
655.766,839.633
655.897,840.367
656.029,839.433
656.161,839.667
656.292,839.167
656.424,839.367
656.555,839.967
656.687,841.1
656.818,840.067
656.95,840.7
657.081,839.967
657.213,840.533
657.344,839.533
657.476,839.667
657.607,840.433
657.739,840.067
657.87,840.433
658.002,839.733
658.133,840.567
658.265,840.8
658.396,840.867
658.528,840.333
658.659,839.367
658.791,839.967
658.922,840.167
659.054,840.633
659.185,839.633
659.317,840.333
659.448,840.533
659.58,840.733
659.711,839.133
659.843,840.433
659.974,839.833
660.106,840.167
660.237,840.333
660.368,840.633
660.5,839.667
660.631,840.233
660.763,839.1
660.894,839.5
661.026,839.833
661.157,839.367
661.289,839.9
661.42,840.167
661.552,839.767
661.683,840.167
661.815,838.667
661.946,840.433
662.077,839.867
662.209,839.8
662.34,839.0
662.472,839.5
662.603,839.467
662.735,839.6
662.866,839.867
662.997,840.433
663.129,839.1
