nm,Intensity
526.508,827.7
526.645,828.5
526.782,827.2
526.919,827.7
527.055,828.9
527.192,828.3
527.329,826.2
527.465,827.1
527.602,826.6
527.739,827.4
527.875,827.2
528.012,828.7
528.149,828.4
528.285,828.2
528.422,827.6
528.558,828.1
528.695,827.6
528.832,828.2
528.968,827.8
529.105,827.5
529.241,826.8
529.378,829.8
529.514,828.2
529.651,827.4
529.787,828.9
529.924,828.1
530.061,827.9
530.197,828.4
530.334,829.0
530.47,828.4
530.606,827.9
530.743,827.9
530.879,826.8
531.016,828.5
531.152,829.6
531.289,827.7
531.425,827.6
531.562,827.3
531.698,828.0
531.834,827.3
531.971,836.2
532.107,904.6
532.244,929.1
532.38,852.2
532.516,830.2
532.653,827.2
532.789,829.1
532.925,828.3
533.062,829.7
533.198,826.5
533.334,827.7
533.471,827.5
533.607,828.3
533.743,831.4
533.879,841.0
534.016,855.6
534.152,860.1
534.288,856.3
534.424,857.8
534.561,859.4
534.697,853.6
534.833,858.4
534.969,860.1
535.106,860.4
535.242,860.9
535.378,857.8
535.514,851.9
535.65,847.5
535.786,845.3
535.923,844.9
536.059,844.6
536.195,842.9
536.331,844.7
536.467,843.5
536.603,844.2
536.739,845.4
536.876,847.7
537.012,851.5
537.148,854.2
537.284,850.4
537.42,848.1
537.556,845.5
537.692,844.6
537.828,843.7
537.964,847.0
538.1,842.5
538.236,845.4
538.372,844.9
538.508,846.1
538.644,846.0
538.78,846.2
538.916,846.8
539.052,847.1
539.188,848.6
539.324,851.5
539.46,851.4
539.596,846.3
539.732,847.0
539.868,843.5
540.004,842.0
540.14,840.6
540.275,842.6
540.411,842.3
540.547,841.2
540.683,840.9
540.819,841.9
540.955,841.7
541.091,840.7
541.227,842.8
541.362,843.8
541.498,842.6
541.634,842.5
541.77,841.1
541.906,841.1
542.041,842.0
542.177,840.0
542.313,842.7
542.449,841.0
542.585,839.7
542.72,841.5
542.856,840.7
542.992,841.8
543.128,842.9
543.263,842.5
543.399,847.1
543.535,852.7
543.67,866.8
543.806,866.0
543.942,853.1
544.078,847.7
544.213,846.7
544.349,843.8
544.485,841.1
544.62,841.7
544.756,841.5
544.892,841.8
545.027,842.2
545.163,846.0
545.298,850.0
545.434,851.0
545.57,848.3
545.705,844.2
545.841,841.0
545.976,841.0
546.112,840.5
546.248,840.9
546.383,841.4
546.519,840.1
546.654,839.5
546.79,839.3
546.925,840.9
547.061,840.9
547.196,841.5
547.332,841.7
547.467,844.7
547.603,845.4
547.738,846.7
547.874,844.5
548.009,843.0
548.145,839.7
548.28,839.2
548.416,840.2
548.551,840.5
548.686,838.4
548.822,838.6
548.957,839.3
549.093,839.1
549.228,840.3
549.363,838.4
549.499,839.8
549.634,838.8
549.77,840.7
549.905,838.8
550.04,839.5
550.176,838.5
550.311,838.9
550.446,841.2
550.582,839.9
550.717,839.0
550.852,840.3
550.988,839.1
551.123,839.6
551.258,838.5
551.394,841.4
551.529,841.4
551.664,841.3
551.799,839.5
551.935,840.4
552.07,838.6
552.205,840.6
552.34,839.0
552.476,839.7
552.611,839.0
552.746,842.1
552.881,837.8
553.016,839.4
553.152,839.5
553.287,838.0
553.422,838.6
553.557,838.6
553.692,839.9
553.827,837.1
553.963,837.1
554.098,837.6
554.233,840.1
554.368,838.6
554.503,840.0
554.638,841.0
554.773,841.3
554.908,840.0
555.043,842.0
555.179,839.8
555.314,842.4
555.449,842.1
555.584,843.5
555.719,846.8
555.854,853.6
555.989,877.2
556.124,911.8
556.259,887.5
556.394,858.3
556.529,852.2
556.664,849.6
556.799,854.7
556.934,859.3
557.069,866.0
557.204,867.6
557.339,856.5
557.474,849.8
557.609,845.9
557.744,843.2
557.879,842.9
558.014,843.1
558.149,840.5
558.284,843.3
558.419,840.0
558.553,840.4
558.688,839.8
558.823,841.9
558.958,845.0
559.093,844.9
559.228,841.8
559.363,840.0
559.498,841.5
559.632,838.8
559.767,841.4
559.902,841.1
560.037,842.3
560.172,849.0
560.307,847.7
560.441,844.5
560.576,845.0
560.711,841.4
560.846,844.9
560.981,849.8
561.115,864.5
561.25,875.7
561.385,868.0
561.52,850.6
561.654,844.1
561.789,843.6
561.924,846.9
562.059,850.7
562.193,846.0
562.328,844.0
562.463,844.2
562.598,844.2
562.732,843.1
562.867,845.0
563.002,845.7
563.136,847.6
563.271,851.6
563.406,851.8
563.54,849.3
563.675,847.6
563.81,844.9
563.944,842.7
564.079,841.6
564.213,841.8
564.348,843.2
564.483,840.1
564.617,840.8
564.752,842.1
564.887,840.9
565.021,841.5
565.156,842.0
565.29,842.4
565.425,845.1
565.559,842.7
565.694,843.9
565.828,843.4
565.963,841.8
566.098,841.4
566.232,843.5
566.367,842.8
566.501,844.2
566.636,850.6
566.77,856.7
566.905,869.7
567.039,870.9
567.174,869.6
567.308,873.4
567.443,885.5
567.577,875.8
567.711,859.6
567.846,849.1
567.98,845.5
568.115,845.3
568.249,844.7
568.384,843.8
568.518,846.9
568.652,845.2
568.787,846.5
568.921,849.8
569.056,855.8
569.19,857.3
569.324,853.3
569.459,849.5
569.593,845.9
569.727,847.1
569.862,846.4
569.996,845.0
570.131,850.1
570.265,852.5
570.399,851.8
570.534,847.1
570.668,846.7
570.802,846.9
570.936,845.3
571.071,846.0
571.205,846.4
571.339,848.7
571.474,848.4
571.608,853.4
571.742,851.8
571.876,854.6
572.011,851.4
572.145,854.0
572.279,852.8
572.413,858.1
572.548,869.0
572.682,882.0
572.816,878.4
572.95,863.3
573.084,856.7
573.219,850.2
573.353,850.7
573.487,853.8
573.621,862.1
573.755,864.3
573.889,856.7
574.024,853.8
574.158,851.6
574.292,851.9
574.426,846.7
574.56,846.2
574.694,844.6
574.828,843.6
574.963,843.5
575.097,842.0
575.231,842.4
575.365,844.0
575.499,844.0
575.633,844.0
575.767,845.6
575.901,844.9
576.035,848.8
576.169,861.2
576.303,866.1
576.437,861.1
576.571,861.2
576.706,869.3
576.84,887.0
576.974,899.8
577.108,896.3
577.242,876.5
577.376,860.7
577.51,851.5
577.644,847.0
577.778,845.5
577.912,843.3
578.046,842.5
578.179,842.3
578.313,844.0
578.447,843.4
578.581,844.1
578.715,840.5
578.849,840.7
578.983,841.9
579.117,840.4
579.251,842.3
579.385,842.5
579.519,842.1
579.653,842.9
579.787,841.2
579.921,842.1
580.054,842.4
580.188,842.2
580.322,844.8
580.456,841.1
580.59,842.0
580.724,841.4
580.858,842.9
580.991,840.8
581.125,842.6
581.259,842.0
581.393,841.2
581.527,842.2
581.661,841.4
581.794,842.5
581.928,841.3
582.062,843.5
582.196,842.3
582.33,843.0
582.463,840.9
582.597,842.3
582.731,840.9
582.865,840.6
582.998,841.9
583.132,841.4
583.266,842.9
583.4,840.9
583.533,841.8
583.667,842.6
583.801,841.8
583.935,842.2
584.068,843.9
584.202,839.8
584.336,841.1
584.469,842.0
584.603,839.6
584.737,840.0
584.87,842.5
585.004,841.9
585.138,843.7
585.271,842.3
585.405,841.9
585.539,843.1
585.672,842.6
585.806,840.7
585.94,841.9
586.073,841.6
586.207,840.2
586.34,841.5
586.474,840.7
586.608,841.6
586.741,842.4
586.875,842.3
587.008,840.3
587.142,840.4
587.276,842.9
587.409,843.1
587.543,841.1
587.676,841.0
587.81,841.9
587.943,842.0
588.077,841.7
588.21,841.7
588.344,841.4
588.478,839.7
588.611,840.9
588.745,842.0
588.878,841.7
589.012,841.1
589.145,841.1
589.279,839.1
589.412,841.7
589.546,839.5
589.679,841.3
589.812,843.3
589.946,840.7
590.079,841.4
590.213,839.9
590.346,842.2
590.48,841.7
590.613,839.7
590.747,840.4
590.88,840.8
591.013,840.2
591.147,841.8
591.28,842.3
591.414,840.9
591.547,840.5
591.68,840.2
591.814,840.3
591.947,841.1
592.081,842.6
592.214,842.6
592.347,841.3
592.481,841.9
592.614,838.7
592.747,842.4
592.881,842.5
593.014,842.1
593.147,841.4
593.281,841.7
593.414,841.3
593.547,840.1
593.681,841.0
593.814,842.3
593.947,841.2
594.081,841.3
594.214,841.2
594.347,840.8
594.48,839.0
594.614,839.4
594.747,840.1
594.88,841.3
595.014,840.9
595.147,840.6
595.28,842.5
595.413,841.3
595.547,839.1
595.68,840.1
595.813,840.7
595.946,842.1
596.079,839.4
596.213,840.4
596.346,840.8
596.479,840.8
596.612,841.5
596.745,841.0
596.879,841.8
597.012,841.4
597.145,841.0
597.278,841.6
597.411,840.6
597.545,841.2
597.678,841.1
597.811,841.0
597.944,842.2
598.077,843.6
598.21,841.3
598.343,841.0
598.476,842.1
598.61,841.0
598.743,840.5
598.876,842.8
599.009,842.7
599.142,842.6
599.275,842.2
599.408,841.7
599.541,842.4
599.674,842.9
599.807,841.5
599.941,841.9
600.074,841.7
600.207,842.6
600.34,841.0
600.473,842.8
600.606,841.6
600.739,842.3
600.872,845.7
601.005,842.6
601.138,841.9
601.271,842.9
601.404,838.9
601.537,840.0
601.67,840.7
601.803,839.5
601.936,843.3
602.069,843.4
602.202,841.7
602.335,840.7
602.468,845.4
602.601,841.2
602.734,842.6
602.867,839.7
603.0,842.6
603.133,843.0
603.266,841.6
603.399,841.7
603.532,841.0
603.664,841.1
603.797,841.2
603.93,844.0
604.063,844.2
604.196,842.4
604.329,842.0
604.462,842.8
604.595,841.4
604.728,841.1
604.861,841.9
604.994,840.6
605.126,841.3
605.259,840.5
605.392,841.7
605.525,841.6
605.658,843.0
605.791,842.1
605.924,842.1
606.056,842.6
606.189,842.0
606.322,842.3
606.455,841.3
606.588,841.3
606.721,842.1
606.853,842.8
606.986,843.6
607.119,843.8
607.252,841.2
607.385,842.1
607.517,844.8
607.65,842.0
607.783,845.0
607.916,841.8
608.049,842.9
608.181,842.6
608.314,841.0
608.447,845.1
608.58,841.8
608.712,840.1
608.845,842.5
608.978,844.1
609.111,840.4
609.243,839.8
609.376,842.4
609.509,841.4
609.641,842.2
609.774,840.6
609.907,844.6
610.04,843.5
610.172,841.4
610.305,843.1
610.438,842.4
610.57,843.9
610.703,841.8
610.836,841.8
610.968,842.9
611.101,842.1
611.234,843.5
611.366,842.0
611.499,841.4
611.632,843.4
611.764,843.5
611.897,842.0
612.03,842.2
612.162,842.5
612.295,843.0
612.428,841.7
612.56,842.9
612.693,842.2
612.825,841.2
612.958,842.2
613.091,843.0
613.223,842.8
613.356,841.3
613.488,842.8
613.621,841.9
613.754,841.6
613.886,840.9
614.019,842.7
614.151,842.0
614.284,844.2
614.416,842.9
614.549,842.6
614.681,843.1
614.814,845.6
614.947,843.6
615.079,844.2
615.212,845.0
615.344,842.1
615.477,842.8
615.609,843.8
615.742,842.4
615.874,844.4
616.007,844.5
616.139,845.8
616.272,844.5
616.404,841.1
616.537,841.9
616.669,845.2
616.802,844.9
616.934,843.8
617.067,843.1
617.199,842.9
617.332,845.5
617.464,844.4
617.596,844.3
617.729,844.6
617.861,844.0
617.994,846.1
618.126,847.4
618.259,843.3
618.391,844.9
618.524,844.9
618.656,849.0
618.788,845.3
618.921,845.0
619.053,846.0
619.186,846.8
619.318,848.1
619.45,850.8
619.583,849.3
619.715,848.6
619.848,846.8
619.98,847.4
620.112,847.2
620.245,847.3
620.377,848.0
620.509,846.3
620.642,848.6
620.774,848.9
620.907,846.1
621.039,847.8
621.171,847.3
621.304,850.1
621.436,852.2
621.568,849.1
621.701,851.5
621.833,854.8
621.965,858.3
622.097,861.0
622.23,864.8
622.362,872.1
622.494,865.6
622.627,864.1
622.759,860.1
622.891,857.5
623.024,855.6
623.156,854.6
623.288,851.9
623.42,851.1
623.553,851.2
623.685,848.9
623.817,849.4
623.949,846.2
624.082,847.8
624.214,846.9
624.346,847.7
624.479,847.5
624.611,845.9
624.743,849.0
624.875,847.6
625.007,847.8
625.14,848.0
625.272,848.7
625.404,850.3
625.536,850.1
625.669,850.2
625.801,851.5
625.933,853.4
626.065,858.1
626.197,857.1
626.33,861.5
626.462,870.0
626.594,885.8
626.726,916.5
626.858,958.6
626.99,972.9
627.123,962.4
627.255,927.0
627.387,911.8
627.519,902.6
627.651,905.5
627.783,938.0
627.916,1000.1
628.048,1043.1
628.18,1054.1
628.312,1059.2
628.444,1088.0
628.576,1111.9
628.708,1131.6
628.84,1113.8
628.973,1084.3
629.105,1063.6
629.237,1042.4
629.369,1042.7
629.501,1056.9
629.633,1052.1
629.765,1027.5
629.897,1011.2
630.029,1003.2
630.161,1011.1
630.294,1009.7
630.426,1002.2
630.558,979.3
630.69,952.6
630.822,930.6
630.954,923.6
631.086,931.1
631.218,962.7
631.35,1005.2
631.482,1024.7
631.614,1045.6
631.746,1059.4
631.878,1055.6
632.01,1022.0
632.142,983.1
632.274,940.9
632.406,909.5
632.538,891.1
632.67,875.2
632.802,865.6
632.934,865.5
633.066,863.4
633.198,857.8
633.33,856.3
633.462,853.4
633.594,852.6
633.726,848.1
633.858,851.6
633.99,848.2
634.122,846.7
634.254,848.0
634.386,846.0
634.518,848.3
634.65,846.0
634.782,846.1
634.914,845.3
635.046,847.1
635.178,846.0
635.31,845.4
635.442,843.5
635.574,845.9
635.706,845.9
635.838,844.3
635.97,847.0
636.102,842.5
636.234,843.1
636.365,846.1
636.497,843.6
636.629,844.2
636.761,842.4
636.893,843.0
637.025,846.0
637.157,844.1
637.289,845.0
637.421,844.4
637.553,843.2
637.685,845.4
637.816,845.8
637.948,844.2
638.08,844.8
638.212,842.3
638.344,844.0
638.476,846.0
638.608,844.6
638.74,845.2
638.871,843.8
639.003,844.8
639.135,844.8
639.267,844.2
639.399,844.6
639.531,847.4
639.662,843.8
639.794,846.3
639.926,845.5
640.058,844.1
640.19,845.4
640.322,842.9
640.453,845.5
640.585,845.1
640.717,843.5
640.849,842.1
640.981,845.4
641.113,843.8
641.244,844.5
641.376,843.8
641.508,845.5
641.64,847.0
641.772,845.7
641.903,843.2
642.035,844.9
642.167,843.9
642.299,844.8
642.43,843.3
642.562,842.5
642.694,844.2
642.826,843.6
642.958,844.0
643.089,841.8
643.221,840.5
643.353,841.9
643.485,841.5
643.616,841.7
643.748,842.5
643.88,842.3
644.012,841.8
644.143,842.4
644.275,840.5
644.407,841.7
644.538,840.5
644.67,841.2
644.802,840.6
644.934,842.2
645.065,841.5
645.197,841.9
645.329,844.1
645.461,841.8
645.592,842.6
645.724,841.3
645.856,842.0
645.987,840.6
646.119,842.7
646.251,841.1
646.382,841.5
646.514,840.7
646.646,840.9
646.777,842.2
646.909,842.4
647.041,841.7
647.172,842.5
647.304,840.3
647.436,840.4
647.567,840.8
647.699,840.3
647.831,841.5
647.962,842.5
648.094,842.4
648.226,841.8
648.357,841.5
648.489,843.6
648.621,842.0
648.752,842.3
648.884,842.5
649.016,841.1
649.147,842.1
649.279,840.4
649.411,840.8
649.542,842.0
649.674,839.6
649.805,841.5
649.937,841.2
650.069,839.4
650.2,841.1
650.332,841.5
650.463,840.2
650.595,842.6
650.727,841.0
650.858,842.8
650.99,839.2
651.121,841.2
651.253,841.0
651.385,839.2
651.516,839.2
651.648,842.5
651.779,841.5
651.911,841.4
652.043,843.2
652.174,840.6
652.306,840.5
652.437,840.8
652.569,841.5
652.7,841.4
652.832,841.4
652.963,839.5
653.095,840.2
653.227,839.3
653.358,841.7
653.49,841.0
653.621,838.8
653.753,840.7
653.884,840.6
654.016,841.0
654.147,840.6
654.279,838.4
654.41,839.7
654.542,839.7
654.674,838.9
654.805,840.2
654.937,842.4
655.068,842.6
655.2,841.6
655.331,839.9
655.463,840.2
655.594,841.2
655.726,840.7
655.857,839.2
655.989,839.5
656.12,840.8
656.252,839.7
656.383,840.0
656.515,840.1
656.646,840.1
656.778,839.9
656.909,840.0
657.041,840.5
657.172,839.0
657.304,841.6
657.435,839.5
657.567,840.0
657.698,840.3
657.829,838.9
657.961,840.0
658.092,841.4
658.224,840.9
658.355,840.5
658.487,840.2
658.618,840.3
658.75,839.4
658.881,839.5
659.013,839.4
659.144,840.5
659.275,839.1
659.407,840.9
659.538,843.0
659.67,841.4
659.801,839.5
659.933,839.9
660.064,841.6
660.196,841.0
660.327,840.5
660.458,838.6
660.59,839.9
660.721,838.7
660.853,838.8
660.984,840.8
661.116,839.0
661.247,840.2
661.378,838.4
661.51,840.4
661.641,839.3
661.773,838.8
661.904,839.1
662.035,840.3
662.167,838.1
662.298,838.4
662.43,838.7
662.561,840.7
662.692,838.7
662.824,838.1
662.955,838.3
663.087,837.5
