nm,Intensity
791.377,5308.26
791.652,5281.22
791.927,5241.4
792.202,5197.2
792.477,5129.26
792.752,5076.26
793.027,5089.88
793.301,5042.4
793.576,5033.82
793.851,5043.7
794.126,5034.92
794.401,5007.08
794.676,5017.5
794.951,5027.6
795.225,5042.14
795.5,5066.28
795.775,5084.28
796.05,5058.3
796.325,5054.12
796.599,5026.22
796.874,4986.84
797.149,4992.0
797.424,4983.22
797.698,4970.06
797.973,4964.26
798.248,4957.56
798.523,4967.74
798.797,4953.02
799.072,4941.78
799.347,4951.04
799.622,4946.32
799.896,4943.3
800.171,4933.58
800.446,4951.6
800.72,4958.14
800.995,4947.18
801.27,4932.28
801.544,4898.68
801.819,4900.26
802.094,4887.4
802.368,4876.56
802.643,4867.52
802.918,4887.06
803.192,4890.28
803.467,4850.98
803.742,4852.66
804.016,4842.2
804.291,4852.92
804.565,4852.52
804.84,4852.64
805.114,4862.92
805.389,4868.4
805.664,4831.28
805.938,4830.3
806.213,4833.5
806.487,4803.6
806.762,4801.7
807.036,4815.34
807.311,4797.6
807.585,4798.1
807.86,4802.16
808.134,4797.02
808.409,4789.34
808.683,4778.98
808.958,4780.04
809.232,4785.88
809.507,4795.8
809.781,4820.52
810.056,4854.62
810.33,4912.12
810.605,4903.88
810.879,4831.58
811.153,4785.66
811.428,4771.14
811.702,4771.64
811.977,4758.46
812.251,4750.68
812.525,4750.2
812.8,4729.62
813.074,4736.26
813.349,4745.5
813.623,4739.56
813.897,4769.36
814.172,4757.38
814.446,4752.18
814.72,4724.02
814.995,4693.26
815.269,4678.3
815.543,4684.16
815.818,4677.3
816.092,4672.14
816.366,4681.66
816.64,4654.76
816.915,4641.18
817.189,4661.12
817.463,4663.6
817.737,4624.56
818.012,4632.78
818.286,4666.68
818.56,4655.18
818.834,4652.02
819.109,4665.12
819.383,4653.62
819.657,4631.98
819.931,4623.22
820.205,4597.44
820.48,4608.08
820.754,4608.92
821.028,4596.26
821.302,4597.58
821.576,4592.28
821.85,4585.8
822.125,4567.18
822.399,4577.16
822.673,4567.92
822.947,4564.42
823.221,4559.66
823.495,4562.22
823.769,4571.48
824.043,4563.34
824.317,4560.42
824.591,4555.0
824.865,4551.14
825.14,4549.6
825.414,4550.02
825.688,4539.78
825.962,4531.96
826.236,4530.64
826.51,4528.38
826.784,4513.22
827.058,4501.28
827.332,4508.86
827.606,4500.98
827.88,4513.58
828.154,4502.5
828.428,4489.72
828.702,4506.22
828.976,4522.58
829.249,4519.44
829.523,4510.98
829.797,4486.6
830.071,4471.88
830.345,4481.5
830.619,4476.34
830.893,4469.28
831.167,4458.14
831.441,4464.18
831.715,4484.38
831.988,4477.78
832.262,4452.48
832.536,4436.72
832.81,4444.26
833.084,4465.22
833.358,4474.2
833.632,4474.44
833.905,4459.16
834.179,4445.26
834.453,4444.92
834.727,4450.48
835.001,4442.22
835.274,4441.1
835.548,4439.68
835.822,4442.44
836.096,4432.02
836.369,4421.88
836.643,4432.46
836.917,4446.24
837.191,4465.64
837.464,4509.38
837.738,4536.78
838.012,4556.44
838.285,4540.96
838.559,4509.14
838.833,4470.68
839.106,4466.88
839.38,4488.74
839.654,4488.7
839.927,4498.56
840.201,4524.0
840.475,4518.3
840.748,4488.26
841.022,4457.16
841.295,4433.8
841.569,4414.08
841.843,4390.72
842.116,4396.4
842.39,4394.42
842.663,4396.0
842.937,4384.64
843.211,4381.16
843.484,4383.38
843.758,4387.7
844.031,4375.44
844.305,4369.34
844.578,4371.06
844.852,4378.22
845.125,4381.56
845.399,4377.0
845.672,4356.18
845.946,4358.8
846.219,4353.62
846.493,4353.02
846.766,4358.94
847.039,4374.66
847.313,4375.3
847.586,4362.44
847.86,4361.8
848.133,4355.62
848.407,4362.5
848.68,4357.2
848.953,4347.26
849.227,4365.2
849.5,4394.66
849.773,4395.5
850.047,4372.3
850.32,4353.68
850.593,4342.28
850.867,4358.52
851.14,4369.0
851.413,4379.54
851.687,4385.5
851.96,4378.24
852.233,4359.4
852.507,4333.08
852.78,4332.66
853.053,4339.62
853.326,4331.34
853.6,4327.3
853.873,4339.6
854.146,4347.86
854.419,4337.7
854.693,4357.72
854.966,4360.66
855.239,4338.42
855.512,4319.08
855.785,4303.44
856.059,4300.24
856.332,4316.58
856.605,4301.9
856.878,4296.1
857.151,4304.8
857.424,4303.28
857.698,4299.46
857.971,4301.14
858.244,4317.36
858.517,4311.36
858.79,4307.24
859.063,4308.9
859.336,4302.82
859.609,4293.24
859.882,4278.66
860.155,4285.22
860.428,4290.68
860.701,4292.88
860.974,4295.24
861.247,4294.5
861.52,4297.68
861.793,4310.22
862.066,4323.06
862.339,4347.62
862.612,4357.96
862.885,4361.32
863.158,4348.78
863.431,4353.18
863.704,4355.42
863.977,4345.5
864.25,4329.26
864.523,4309.42
864.796,4294.04
865.069,4303.2
865.342,4287.78
865.615,4276.66
865.888,4269.06
866.16,4257.6
866.433,4264.94
866.706,4276.92
866.979,4283.1
867.252,4293.82
867.525,4304.0
867.798,4291.9
868.07,4284.42
868.343,4283.74
868.616,4278.76
868.889,4274.1
869.162,4261.88
869.434,4249.32
869.707,4245.04
869.98,4255.9
870.253,4265.92
870.525,4261.14
870.798,4263.78
871.071,4259.48
871.344,4255.42
871.616,4248.06
871.889,4250.74
872.162,4265.86
872.434,4258.24
872.707,4262.44
872.98,4261.32
873.252,4270.54
873.525,4270.68
873.798,4269.02
874.07,4270.52
874.343,4275.42
874.615,4265.8
874.888,4262.5
875.161,4282.16
875.433,4298.02
875.706,4303.66
875.978,4309.52
876.251,4312.04
876.524,4312.56
876.796,4301.5
877.069,4294.26
877.341,4282.28
877.614,4281.6
877.886,4269.26
878.159,4244.64
878.431,4232.26
878.704,4238.88
878.976,4237.56
879.249,4229.0
879.521,4221.28
879.794,4210.06
880.066,4201.86
880.338,4198.34
880.611,4198.54
880.883,4190.78
881.156,4187.7
881.428,4176.94
881.7,4178.76
881.973,4172.3
882.245,4177.26
882.518,4170.28
882.79,4158.1
883.062,4172.16
883.335,4179.72
883.607,4176.86
883.879,4193.98
884.152,4194.38
884.424,4208.74
884.696,4213.06
884.968,4216.76
885.241,4235.38
885.513,4257.92
885.785,4257.4
886.058,4257.78
886.33,4256.74
886.602,4248.22
886.874,4236.48
887.146,4205.62
887.419,4177.52
887.691,4157.9
887.963,4143.38
888.235,4145.52
888.507,4143.8
888.78,4133.66
889.052,4124.74
889.324,4125.3
889.596,4123.1
889.868,4122.92
890.14,4120.18
890.412,4119.2
890.684,4112.56
890.957,4120.36
891.229,4131.7
891.501,4136.66
891.773,4136.7
892.045,4138.7
892.317,4123.68
892.589,4117.08
892.861,4110.12
893.133,4111.28
893.405,4098.44
893.677,4095.76
893.949,4089.54
894.221,4087.84
894.493,4093.3
894.765,4099.0
895.037,4094.4
895.309,4084.92
895.581,4074.6
895.853,4079.56
896.125,4077.8
896.397,4069.38
896.668,4078.8
896.94,4080.42
897.212,4074.12
897.484,4069.38
897.756,4073.46
898.028,4069.06
898.3,4074.12
898.571,4073.24
898.843,4066.52
899.115,4065.36
899.387,4059.48
899.659,4045.96
899.931,4049.68
900.202,4036.74
900.474,4038.1
900.746,4042.96
901.018,4042.32
901.289,4038.36
901.561,4036.3
901.833,4029.02
902.105,4025.72
902.376,4033.62
902.648,4023.8
902.92,4019.96
903.191,4022.18
903.463,4027.46
903.735,4028.08
904.006,4019.62
904.278,4012.46
904.55,4014.02
904.821,4012.32
905.093,4009.2
905.365,4003.4
905.636,4002.18
905.908,4002.98
906.179,4000.22
906.451,4004.74
906.722,3995.94
906.994,3990.86
907.266,3987.56
907.537,3984.86
907.809,3984.96
908.08,3986.96
908.352,3989.38
908.623,3987.06
908.895,3987.12
909.166,3988.62
909.438,3982.68
909.709,3984.18
909.981,3983.52
910.252,3975.3
910.523,3972.32
910.795,3964.86
911.066,3970.32
911.338,3969.04
911.609,3972.36
911.881,3967.9
912.152,3968.28
912.423,3963.14
912.695,3963.06
912.966,3960.4
913.237,3961.02
913.509,3961.44
913.78,3959.82
914.051,3951.5
914.323,3952.3
914.594,3952.98
914.865,3950.9
915.136,3947.9
915.408,3945.74
915.679,3943.48
915.95,3941.74
916.221,3941.58
916.493,3946.72
916.764,3942.78
917.035,3935.6
917.306,3932.8
917.578,3939.74
917.849,3934.6
918.12,3933.88
918.391,3932.28
918.662,3933.94
918.933,3928.7
919.204,3924.76
919.476,3930.6
919.747,3930.32
920.018,3923.74
920.289,3923.04
920.56,3924.74
920.831,3922.7
921.102,3919.44
921.373,3917.24
921.644,3919.32
921.915,3914.04
922.186,3915.06
922.457,3912.0
922.728,3913.26
922.999,3909.12
923.27,3908.38
923.541,3902.22
923.812,3904.26
924.083,3903.84
924.354,3901.78
924.625,3900.98
924.896,3900.98
925.167,3899.4
925.438,3899.44
925.709,3897.4
925.98,3897.62
926.251,3900.36
926.522,3896.18
926.792,3894.78
927.063,3891.4
927.334,3889.36
927.605,3892.88
927.876,3892.26
928.147,3888.94
928.417,3886.18
928.688,3887.46
928.959,3884.66
929.23,3881.88
929.501,3882.18
929.771,3879.54
930.042,3879.32
930.313,3876.72
930.584,3874.56
930.854,3872.12
931.125,3872.66
931.396,3869.18
931.666,3868.76
931.937,3871.96
932.208,3866.76
932.478,3871.0
932.749,3870.8
933.02,3866.64
933.29,3864.3
933.561,3864.16
933.832,3864.14
934.102,3861.02
934.373,3862.52
934.643,3859.94
934.914,3860.3
935.184,3860.76
935.455,3855.86
935.726,3857.26
935.996,3859.28
936.267,3857.42
936.537,3852.3
936.808,3853.54
937.078,3846.4
937.349,3845.42
937.619,3850.66
937.89,3854.86
938.16,3849.76
938.43,3842.58
938.701,3842.94
938.971,3842.68
939.242,3845.86
939.512,3843.46
939.782,3843.74
940.053,3844.2
940.323,3842.2
940.594,3837.86
940.864,3834.92
941.134,3837.22
941.405,3838.08
941.675,3839.24
941.945,3839.4
942.216,3835.24
942.486,3835.7
942.756,3836.04
943.026,3833.48
943.297,3835.08
943.567,3830.98
943.837,3832.22
944.107,3828.38
944.378,3828.92
944.648,3831.04
944.918,3830.66
945.188,3827.5
945.458,3823.2
945.729,3822.54
945.999,3821.84
946.269,3822.62
946.539,3824.94
946.809,3824.46
947.079,3824.04
947.349,3821.54
947.62,3825.2
947.89,3820.42
948.16,3820.04
948.43,3818.88
948.7,3817.96
948.97,3817.5
949.24,3814.96
949.51,3815.76
949.78,3815.32
950.05,3813.92
950.32,3816.1
950.59,3818.54
950.86,3817.72
951.13,3815.14
951.4,3813.24
951.67,3811.62
951.94,3808.1
952.21,3806.68
952.48,3807.98
952.75,3808.88
953.02,3810.06
953.289,3806.8
953.559,3806.5
953.829,3805.54
954.099,3803.94
954.369,3804.82
954.639,3806.6
954.909,3805.26
955.178,3802.46
955.448,3802.8
955.718,3803.1
955.988,3803.88
956.257,3802.86
956.527,3801.36
956.797,3800.5
957.067,3802.0
957.336,3799.26
957.606,3799.9
957.876,3799.66
958.146,3801.36
958.415,3797.98
958.685,3797.7
958.955,3795.88
959.224,3794.46
959.494,3796.48
959.764,3796.12
960.033,3793.16
960.303,3794.86
960.572,3793.74
960.842,3793.76
961.112,3795.94
961.381,3793.8
961.651,3791.36
961.92,3793.18
962.19,3790.28
962.459,3788.42
962.729,3788.64
962.998,3786.88
963.268,3786.08
963.537,3788.28
963.807,3787.7
964.076,3787.9
964.346,3789.28
964.615,3785.32
964.885,3784.32
965.154,3784.2
965.424,3786.98
965.693,3785.48
965.962,3785.08
966.232,3784.34
966.501,3784.86
966.771,3785.14
967.04,3786.96
967.309,3785.86
967.579,3782.7
967.848,3783.86
968.117,3783.28
968.387,3782.8
968.656,3781.58
968.925,3781.86
969.194,3780.18
969.464,3780.14
969.733,3779.26
970.002,3777.7
970.271,3778.04
970.541,3776.56
970.81,3778.24
971.079,3779.4
971.348,3778.32
971.617,3777.78
971.887,3776.82
972.156,3775.94
972.425,3777.7
972.694,3777.86
972.963,3776.78
973.232,3776.9
973.501,3775.68
973.77,3773.86
974.04,3772.66
974.309,3774.18
974.578,3773.32
974.847,3774.2
975.116,3772.62
975.385,3772.36
975.654,3771.76
975.923,3772.34
976.192,3772.16
976.461,3771.06
976.73,3770.92
976.999,3770.52
977.268,3769.06
977.537,3769.92
977.806,3768.62
978.074,3768.74
978.343,3768.58
978.612,3769.3
978.881,3769.56
979.15,3769.82
979.419,3768.64
979.688,3767.48
979.957,3767.06
980.225,3768.34
980.494,3768.4
980.763,3768.62
981.032,3766.44
981.301,3766.42
981.569,3765.82
981.838,3764.56
982.107,3765.1
982.376,3765.06
982.644,3764.12
982.913,3766.6
983.182,3767.14
983.451,3764.9
983.719,3764.46
983.988,3763.8
984.257,3763.82
984.525,3765.26
984.794,3764.88
985.063,3763.34
985.331,3764.1
985.6,3763.5
985.868,3764.52
986.137,3763.14
986.406,3762.62
986.674,3761.4
986.943,3760.16
987.211,3762.5
987.48,3760.48
987.748,3760.32
988.017,3759.96
988.285,3760.62
988.554,3760.56
988.822,3758.2
989.091,3760.22
989.359,3760.96
989.628,3760.92
989.896,3760.02
990.164,3759.1
990.433,3758.94
990.701,3759.56
990.97,3760.68
991.238,3758.56
991.506,3758.52
991.775,3759.14
992.043,3758.4
992.311,3758.6
992.58,3756.88
992.848,3758.84
993.116,3757.14
993.385,3756.44
993.653,3757.32
993.921,3756.96
994.19,3755.96
994.458,3756.66
994.726,3756.04
994.994,3757.7
995.262,3755.62
995.531,3755.72
995.799,3757.22
996.067,3755.92
996.335,3754.94
996.603,3756.28
996.872,3757.84
997.14,3756.16
997.408,3756.88
997.676,3756.8
997.944,3756.0
998.212,3757.38
998.48,3758.22
998.748,3756.32
999.016,3756.38
999.284,3756.2
999.552,3755.12
999.82,3755.6
1000.09,3754.12
1000.36,3751.76
1000.62,3753.74
1000.89,3753.56
1001.16,3752.16
1001.43,3750.98
1001.7,3751.88
1001.96,3752.18
1002.23,3751.22
1002.5,3750.26
1002.77,3750.24
1003.04,3749.72
1003.3,3750.1
1003.57,3750.44
1003.84,3748.72
1004.11,3749.68
1004.38,3748.62
1004.64,3748.76
1004.91,3749.38
1005.18,3748.88
1005.45,3749.22
1005.71,3748.76
1005.98,3748.36
1006.25,3748.06
1006.52,3748.02
1006.79,3748.48
1007.05,3748.88
1007.32,3749.48
1007.59,3749.32
1007.86,3749.82
1008.12,3751.18
1008.39,3751.7
1008.66,3752.32
1008.93,3753.82
1009.19,3756.64
1009.46,3756.78
1009.73,3758.72
1010.0,3760.6
1010.26,3762.44
1010.53,3762.5
1010.8,3761.48
1011.07,3763.34
1011.33,3763.5
1011.6,3765.14
1011.87,3765.52
1012.14,3766.36
1012.4,3769.34
1012.67,3770.92
1012.94,3771.08
1013.21,3772.68
1013.47,3774.98
1013.74,3776.7
1014.01,3778.98
1014.28,3778.12
1014.54,3778.14
1014.81,3780.1
1015.08,3780.26
1015.35,3779.2
1015.61,3779.6
1015.88,3779.32
1016.15,3775.72
1016.42,3775.24
1016.68,3773.64
1016.95,3772.56
1017.22,3770.18
1017.48,3768.46
1017.75,3766.68
1018.02,3764.66
1018.29,3763.98
1018.55,3762.7
1018.82,3763.3
1019.09,3760.16
1019.36,3758.8
1019.62,3757.84
1019.89,3756.38
1020.16,3755.68
1020.42,3755.54
1020.69,3755.16
1020.96,3753.58
1021.23,3752.98
1021.49,3753.06
1021.76,3753.52
1022.03,3753.18
1022.29,3754.84
1022.56,3753.82
1022.83,3751.78
1023.09,3750.34
1023.36,3749.14
1023.63,3748.58
1023.9,3747.86
1024.16,3747.24
1024.43,3745.94
1024.7,3742.98
1024.96,3744.04
1025.23,3743.18
1025.5,3742.1
1025.76,3741.2
1026.03,3740.64
1026.3,3739.78
1026.56,3739.36
1026.83,3739.5
1027.1,3739.1
1027.37,3737.98
1027.63,3739.16
1027.9,3739.26
1028.17,3739.22
1028.43,3737.96
1028.7,3737.74
1028.97,3738.24
1029.23,3737.86
1029.5,3736.6
1029.77,3737.28
1030.03,3737.02
1030.3,3736.78
1030.57,3737.46
1030.83,3737.92
1031.1,3736.88
1031.37,3737.06
1031.63,3737.92
1031.9,3737.88
1032.17,3737.52
1032.43,3737.04
1032.7,3736.22
1032.97,3737.44
1033.23,3737.06
1033.5,3736.9
1033.77,3737.82
1034.03,3736.98
1034.3,3736.04
1034.57,3737.68
1034.83,3737.24
1035.1,3736.16
1035.36,3737.1
1035.63,3735.88
1035.9,3736.82
1036.16,3735.26
1036.43,3736.4
1036.7,3735.82
1036.96,3736.34
1037.23,3735.52
1037.5,3736.84
1037.76,3735.9
1038.03,3735.66
1038.3,3735.68
1038.56,3735.82
1038.83,3735.42
1039.09,3735.7
1039.36,3735.14
1039.63,3735.74
1039.89,3735.04
1040.16,3736.56
1040.43,3735.7
1040.69,3734.88
1040.96,3734.92
1041.22,3735.26
1041.49,3735.94
1041.76,3734.54
1042.02,3734.7
1042.29,3734.62
1042.55,3735.58
1042.82,3734.96
1043.09,3735.18
1043.35,3734.44
1043.62,3734.4
1043.89,3735.66
1044.15,3734.7
1044.42,3735.12
1044.68,3735.34
1044.95,3735.52
1045.22,3734.5
1045.48,3733.76
1045.75,3734.4
1046.01,3734.22
1046.28,3734.6
1046.55,3734.78
1046.81,3734.82
1047.08,3734.98
1047.34,3734.72
1047.61,3734.22
1047.88,3734.76
1048.14,3734.16
1048.41,3734.22
1048.67,3734.58
1048.94,3734.14
1049.2,3734.04
1049.47,3734.34
1049.74,3734.3
1050.0,3734.16
1050.27,3733.74
1050.53,3733.84
1050.8,3733.92
1051.06,3733.82
1051.33,3733.44
1051.6,3734.48
1051.86,3734.36
1052.13,3733.66
1052.39,3734.06
1052.66,3734.18
1052.92,3733.9
1053.19,3733.56
1053.46,3732.82
1053.72,3734.3
1053.99,3733.92
1054.25,3734.44
1054.52,3733.6
1054.78,3733.18
1055.05,3732.3
1055.32,3734.48
1055.58,3733.94
1055.85,3733.88
1056.11,3734.26
1056.38,3733.66
1056.64,3733.68
1056.91,3732.96
1057.17,3733.62
1057.44,3733.14
1057.7,3733.46
1057.97,3733.16
1058.24,3733.52
1058.5,3732.68
1058.77,3733.1
1059.03,3733.04
1059.3,3734.24
1059.56,3733.12
1059.83,3732.86
1060.09,3732.76
1060.36,3733.6
1060.62,3733.22
1060.89,3732.82
1061.15,3733.48
1061.42,3733.98
1061.68,3732.16
1061.95,3732.58
1062.22,3732.76
1062.48,3732.86
1062.75,3733.56
1063.01,3733.02
1063.28,3733.84
1063.54,3733.22
1063.81,3732.08
1064.07,3733.4
1064.34,3731.86
1064.6,3733.4
1064.87,3732.52
1065.13,3733.26
1065.4,3732.36
1065.66,3732.64
1065.93,3732.44
1066.19,3732.16
1066.46,3732.28
1066.72,3732.44
1066.99,3732.1
1067.25,3731.96
1067.52,3732.08
1067.78,3732.22
1068.05,3732.58
