cm-1,A
4000.0,0.0131
3999.0,0.0132
3998.0,0.0133
3997.0,0.0133
3996.0,0.0133
3995.0,0.0133
3994.0,0.0133
3993.0,0.0133
3992.0,0.0133
3991.0,0.0134
3990.0,0.0134
3989.0,0.0134
3988.0,0.0135
3987.0,0.0135
3986.0,0.0135
3985.0,0.0135
3984.0,0.0135
3983.0,0.0135
3982.0,0.0135
3981.0,0.0135
3980.0,0.0135
3979.0,0.0135
3978.0,0.0135
3977.0,0.0135
3976.0,0.0136
3975.0,0.0136
3974.0,0.0136
3973.0,0.0135
3972.0,0.0134
3971.0,0.0133
3970.0,0.0133
3969.0,0.0133
3968.0,0.0134
3967.0,0.0134
3966.0,0.0134
3965.0,0.0134
3964.0,0.0134
3963.0,0.0134
3962.0,0.0135
3961.0,0.0136
3960.0,0.0136
3959.0,0.0137
3958.0,0.0136
3957.0,0.0135
3956.0,0.0135
3955.0,0.0134
3954.0,0.0133
3953.0,0.0133
3952.0,0.0134
3951.0,0.0134
3950.0,0.0135
3949.0,0.0135
3948.0,0.0135
3947.0,0.0135
3946.0,0.0135
3945.0,0.0135
3944.0,0.0136
3943.0,0.0136
3942.0,0.0136
3941.0,0.0136
3940.0,0.0135
3939.0,0.0135
3938.0,0.0134
3937.0,0.0134
3936.0,0.0135
3935.0,0.0135
3934.0,0.0136
3933.0,0.0136
3932.0,0.0135
3931.0,0.0134
3930.0,0.0134
3929.0,0.0133
3928.0,0.0133
3927.0,0.0133
3926.0,0.0134
3925.0,0.0135
3924.0,0.0135
3923.0,0.0136
3922.0,0.0136
3921.0,0.0136
3920.0,0.0135
3919.0,0.0135
3918.0,0.0134
3917.0,0.0134
3916.0,0.0134
3915.0,0.0134
3914.0,0.0135
3913.0,0.0136
3912.0,0.0137
3911.0,0.0138
3910.0,0.0138
3909.0,0.0138
3908.0,0.0138
3907.0,0.0137
3906.0,0.0136
3905.0,0.0135
3904.0,0.0134
3903.0,0.0135
3902.0,0.0135
3901.0,0.0135
3900.0,0.0135
3899.0,0.0135
3898.0,0.0135
3897.0,0.0135
3896.0,0.0136
3895.0,0.0137
3894.0,0.0137
3893.0,0.0136
3892.0,0.0136
3891.0,0.0136
3890.0,0.0135
3889.0,0.0135
3888.0,0.0135
3887.0,0.0134
3886.0,0.0134
3885.0,0.0134
3884.0,0.0134
3883.0,0.0134
3882.0,0.0134
3881.0,0.0135
3880.0,0.0136
3879.0,0.0137
3878.0,0.0138
3877.0,0.0138
3876.0,0.0138
3875.0,0.0137
3874.0,0.0136
3873.0,0.0135
3872.0,0.0135
3871.0,0.0134
3870.0,0.0134
3869.0,0.0134
3868.0,0.0134
3867.0,0.0135
3866.0,0.0135
3865.0,0.0135
3864.0,0.0135
3863.0,0.0135
3862.0,0.0136
3861.0,0.0136
3860.0,0.0136
3859.0,0.0136
3858.0,0.0135
3857.0,0.0134
3856.0,0.0134
3855.0,0.0135
3854.0,0.0138
3853.0,0.0139
3852.0,0.0138
3851.0,0.0138
3850.0,0.0138
3849.0,0.0138
3848.0,0.0139
3847.0,0.0139
3846.0,0.0139
3845.0,0.0139
3844.0,0.0138
3843.0,0.0138
3842.0,0.0137
3841.0,0.0137
3840.0,0.0138
3839.0,0.0139
3838.0,0.014
3837.0,0.0139
3836.0,0.0139
3835.0,0.0138
3834.0,0.0137
3833.0,0.0137
3832.0,0.0137
3831.0,0.0137
3830.0,0.0137
3829.0,0.0136
3828.0,0.0136
3827.0,0.0135
3826.0,0.0135
3825.0,0.0136
3824.0,0.0137
3823.0,0.0138
3822.0,0.0138
3821.0,0.0139
3820.0,0.0139
3819.0,0.0139
3818.0,0.0139
3817.0,0.0139
3816.0,0.0139
3815.0,0.0139
3814.0,0.0138
3813.0,0.0137
3812.0,0.0137
3811.0,0.0137
3810.0,0.0136
3809.0,0.0136
3808.0,0.0136
3807.0,0.0137
3806.0,0.0138
3805.0,0.0138
3804.0,0.014
3803.0,0.0141
3802.0,0.0141
3801.0,0.014
3800.0,0.0139
3799.0,0.0138
3798.0,0.0137
3797.0,0.0137
3796.0,0.0137
3795.0,0.0137
3794.0,0.0137
3793.0,0.0137
3792.0,0.0137
3791.0,0.0137
3790.0,0.0136
3789.0,0.0136
3788.0,0.0136
3787.0,0.0136
3786.0,0.0137
3785.0,0.0138
3784.0,0.0139
3783.0,0.0139
3782.0,0.0138
3781.0,0.0137
3780.0,0.0137
3779.0,0.0136
3778.0,0.0136
3777.0,0.0137
3776.0,0.0137
3775.0,0.0137
3774.0,0.0137
3773.0,0.0137
3772.0,0.0137
3771.0,0.0137
3770.0,0.0137
3769.0,0.0137
3768.0,0.0137
3767.0,0.0137
3766.0,0.0137
3765.0,0.0137
3764.0,0.0136
3763.0,0.0135
3762.0,0.0134
3761.0,0.0134
3760.0,0.0135
3759.0,0.0137
3758.0,0.0138
3757.0,0.0138
3756.0,0.0137
3755.0,0.0137
3754.0,0.0135
3753.0,0.0133
3752.0,0.0131
3751.0,0.0131
3750.0,0.0133
3749.0,0.0134
3748.0,0.0135
3747.0,0.0135
3746.0,0.0135
3745.0,0.0133
3744.0,0.0131
3743.0,0.0129
3742.0,0.0128
3741.0,0.0129
3740.0,0.013
3739.0,0.0131
3738.0,0.013
3737.0,0.0128
3736.0,0.0127
3735.0,0.0127
3734.0,0.0128
3733.0,0.0128
3732.0,0.0128
3731.0,0.0129
3730.0,0.0129
3729.0,0.013
3728.0,0.0131
3727.0,0.0132
3726.0,0.0132
3725.0,0.0133
3724.0,0.0134
3723.0,0.0134
3722.0,0.0134
3721.0,0.0133
3720.0,0.0133
3719.0,0.0133
3718.0,0.0133
3717.0,0.0133
3716.0,0.0132
3715.0,0.0131
3714.0,0.0129
3713.0,0.0127
3712.0,0.0127
3711.0,0.0128
3710.0,0.0129
3709.0,0.0129
3708.0,0.0129
3707.0,0.0128
3706.0,0.0128
3705.0,0.0128
3704.0,0.0128
3703.0,0.0129
3702.0,0.0129
3701.0,0.0129
3700.0,0.0129
3699.0,0.0129
3698.0,0.0129
3697.0,0.013
3696.0,0.013
3695.0,0.0129
3694.0,0.0128
3693.0,0.0126
3692.0,0.0126
3691.0,0.0126
3690.0,0.0127
3689.0,0.0127
3688.0,0.0126
3687.0,0.0125
3686.0,0.0124
3685.0,0.0123
3684.0,0.0123
3683.0,0.0122
3682.0,0.0123
3681.0,0.0124
3680.0,0.0124
3679.0,0.0124
3678.0,0.0123
3677.0,0.0121
3676.0,0.012
3675.0,0.0119
3674.0,0.0118
3673.0,0.0118
3672.0,0.0118
3671.0,0.0118
3670.0,0.0117
3669.0,0.0117
3668.0,0.0116
3667.0,0.0115
3666.0,0.0114
3665.0,0.0114
3664.0,0.0113
3663.0,0.0112
3662.0,0.0111
3661.0,0.011
3660.0,0.0109
3659.0,0.0107
3658.0,0.0105
3657.0,0.0104
3656.0,0.0102
3655.0,0.0102
3654.0,0.0102
3653.0,0.0102
3652.0,0.0102
3651.0,0.0101
3650.0,0.01
3649.0,0.01
3648.0,0.0099
3647.0,0.0098
3646.0,0.0096
3645.0,0.0094
3644.0,0.0092
3643.0,0.0091
3642.0,0.0089
3641.0,0.0087
3640.0,0.0085
3639.0,0.0083
3638.0,0.0081
3637.0,0.008
3636.0,0.0078
3635.0,0.0077
3634.0,0.0075
3633.0,0.0074
3632.0,0.0072
3631.0,0.0071
3630.0,0.007
3629.0,0.0069
3628.0,0.0068
3627.0,0.0066
3626.0,0.0065
3625.0,0.0065
3624.0,0.0065
3623.0,0.0065
3622.0,0.0065
3621.0,0.0064
3620.0,0.0063
3619.0,0.0061
3618.0,0.0059
3617.0,0.0058
3616.0,0.0058
3615.0,0.0057
3614.0,0.0055
3613.0,0.0053
3612.0,0.0051
3611.0,0.0049
3610.0,0.0047
3609.0,0.0044
3608.0,0.0042
3607.0,0.004
3606.0,0.0038
3605.0,0.0038
3604.0,0.0037
3603.0,0.0037
3602.0,0.0037
3601.0,0.0036
3600.0,0.0036
3599.0,0.0035
3598.0,0.0033
3597.0,0.0031
3596.0,0.0029
3595.0,0.0028
3594.0,0.0026
3593.0,0.0025
3592.0,0.0024
3591.0,0.0023
3590.0,0.0022
3589.0,0.0021
3588.0,0.0021
3587.0,0.002
3586.0,0.0019
3585.0,0.0018
3584.0,0.0018
3583.0,0.0017
3582.0,0.0016
3581.0,0.0014
3580.0,0.0012
3579.0,0.0011
3578.0,0.001
3577.0,0.001
3576.0,0.001
3575.0,0.001
3574.0,0.0009
3573.0,0.0009
3572.0,0.0008
3571.0,0.0008
3570.0,0.0008
3569.0,0.0007
3568.0,0.0007
3567.0,0.0005
3566.0,0.0004
3565.0,0.0003
3564.0,0.0003
3563.0,0.0004
3562.0,0.0006
3561.0,0.0007
3560.0,0.0007
3559.0,0.0006
3558.0,0.0005
3557.0,0.0004
3556.0,0.0003
3555.0,0.0002
3554.0,0.0002
3553.0,0.0002
3552.0,0.0001
3551.0,0.0001
3550.0,0.0
3549.0,0.0
3548.0,0.0001
3547.0,0.0001
3546.0,0.0002
3545.0,0.0002
3544.0,0.0002
3543.0,0.0001
3542.0,-0.0001
3541.0,-0.0002
3540.0,-0.0003
3539.0,-0.0003
3538.0,-0.0003
3537.0,-0.0002
3536.0,-0.0001
3535.0,-0.0001
3534.0,-0.0002
3533.0,-0.0004
3532.0,-0.0006
3531.0,-0.0007
3530.0,-0.0008
3529.0,-0.0009
3528.0,-0.001
3527.0,-0.0011
3526.0,-0.0012
3525.0,-0.0012
3524.0,-0.0012
3523.0,-0.0013
3522.0,-0.0014
3521.0,-0.0016
3520.0,-0.0018
3519.0,-0.0019
3518.0,-0.002
3517.0,-0.0019
3516.0,-0.0019
3515.0,-0.0019
3514.0,-0.0019
3513.0,-0.0019
3512.0,-0.0021
3511.0,-0.0022
3510.0,-0.0024
3509.0,-0.0026
3508.0,-0.0027
3507.0,-0.0028
3506.0,-0.0028
3505.0,-0.0027
3504.0,-0.0027
3503.0,-0.0027
3502.0,-0.0028
3501.0,-0.003
3500.0,-0.0031
3499.0,-0.0033
3498.0,-0.0034
3497.0,-0.0035
3496.0,-0.0036
3495.0,-0.0037
3494.0,-0.0039
3493.0,-0.004
3492.0,-0.0042
3491.0,-0.0043
3490.0,-0.0043
3489.0,-0.0043
3488.0,-0.0043
3487.0,-0.0044
3486.0,-0.0046
3485.0,-0.0049
3484.0,-0.0051
3483.0,-0.0054
3482.0,-0.0057
3481.0,-0.0059
3480.0,-0.0061
3479.0,-0.0064
3478.0,-0.0066
3477.0,-0.0068
3476.0,-0.007
3475.0,-0.0072
3474.0,-0.0075
3473.0,-0.0078
3472.0,-0.008
3471.0,-0.0082
3470.0,-0.0083
3469.0,-0.0084
3468.0,-0.0086
3467.0,-0.0089
3466.0,-0.0092
3465.0,-0.0095
3464.0,-0.0099
3463.0,-0.0102
3462.0,-0.0105
3461.0,-0.0108
3460.0,-0.011
3459.0,-0.0112
3458.0,-0.0114
3457.0,-0.0115
3456.0,-0.0116
3455.0,-0.0116
3454.0,-0.0118
3453.0,-0.0119
3452.0,-0.0122
3451.0,-0.0125
3450.0,-0.0128
3449.0,-0.013
3448.0,-0.0132
3447.0,-0.0134
3446.0,-0.0136
3445.0,-0.0137
3444.0,-0.0138
3443.0,-0.0138
3442.0,-0.0139
3441.0,-0.014
3440.0,-0.0142
3439.0,-0.0142
3438.0,-0.0143
3437.0,-0.0143
3436.0,-0.0143
3435.0,-0.0145
3434.0,-0.0145
3433.0,-0.0146
3432.0,-0.0145
3431.0,-0.0145
3430.0,-0.0146
3429.0,-0.0146
3428.0,-0.0147
3427.0,-0.0146
3426.0,-0.0145
3425.0,-0.0144
3424.0,-0.0144
3423.0,-0.0145
3422.0,-0.0145
3421.0,-0.0146
3420.0,-0.0146
3419.0,-0.0147
3418.0,-0.0148
3417.0,-0.0148
3416.0,-0.0148
3415.0,-0.0148
3414.0,-0.0148
3413.0,-0.0149
3412.0,-0.0151
3411.0,-0.0154
3410.0,-0.0158
3409.0,-0.0162
3408.0,-0.0165
3407.0,-0.0168
3406.0,-0.0171
3405.0,-0.0174
3404.0,-0.0177
3403.0,-0.0181
3402.0,-0.0185
3401.0,-0.0189
3400.0,-0.0193
3399.0,-0.0196
3398.0,-0.02
3397.0,-0.0204
3396.0,-0.021
3395.0,-0.0216
3394.0,-0.0224
3393.0,-0.0231
3392.0,-0.0237
3391.0,-0.0242
3390.0,-0.0247
3389.0,-0.0252
3388.0,-0.0258
3387.0,-0.0265
3386.0,-0.0273
3385.0,-0.0281
3384.0,-0.0289
3383.0,-0.0297
3382.0,-0.0305
3381.0,-0.0312
3380.0,-0.032
3379.0,-0.0329
3378.0,-0.0339
3377.0,-0.0349
3376.0,-0.0359
3375.0,-0.0368
3374.0,-0.0376
3373.0,-0.0385
3372.0,-0.0394
3371.0,-0.0402
3370.0,-0.041
3369.0,-0.0419
3368.0,-0.0427
3367.0,-0.0435
3366.0,-0.0442
3365.0,-0.0447
3364.0,-0.0454
3363.0,-0.0462
3362.0,-0.0471
3361.0,-0.0479
3360.0,-0.0487
3359.0,-0.0494
3358.0,-0.0499
3357.0,-0.0504
3356.0,-0.051
3355.0,-0.0516
3354.0,-0.0524
3353.0,-0.0532
3352.0,-0.0538
3351.0,-0.0543
3350.0,-0.0548
3349.0,-0.0553
3348.0,-0.0558
3347.0,-0.0565
3346.0,-0.057
3345.0,-0.0575
3344.0,-0.0579
3343.0,-0.0583
3342.0,-0.0589
3341.0,-0.0595
3340.0,-0.0601
3339.0,-0.0606
3338.0,-0.061
3337.0,-0.0614
3336.0,-0.0619
3335.0,-0.0624
3334.0,-0.0629
3333.0,-0.0634
3332.0,-0.0638
3331.0,-0.0641
3330.0,-0.0644
3329.0,-0.0648
3328.0,-0.0651
3327.0,-0.0655
3326.0,-0.0659
3325.0,-0.0663
3324.0,-0.0666
3323.0,-0.0669
3322.0,-0.0672
3321.0,-0.0676
3320.0,-0.068
3319.0,-0.0684
3318.0,-0.0687
3317.0,-0.069
3316.0,-0.0691
3315.0,-0.0692
3314.0,-0.0694
3313.0,-0.0696
3312.0,-0.0697
3311.0,-0.0699
3310.0,-0.0701
3309.0,-0.0704
3308.0,-0.0707
3307.0,-0.0711
3306.0,-0.0714
3305.0,-0.0717
3304.0,-0.0718
3303.0,-0.0719
3302.0,-0.072
3301.0,-0.0721
3300.0,-0.0723
3299.0,-0.0725
3298.0,-0.0727
3297.0,-0.0729
3296.0,-0.073
3295.0,-0.0732
3294.0,-0.0734
3293.0,-0.0737
3292.0,-0.0738
3291.0,-0.0738
3290.0,-0.0738
3289.0,-0.0738
3288.0,-0.0739
3287.0,-0.0741
3286.0,-0.0743
3285.0,-0.0744
3284.0,-0.0744
3283.0,-0.0744
3282.0,-0.0744
3281.0,-0.0745
3280.0,-0.0746
3279.0,-0.0748
3278.0,-0.0749
3277.0,-0.0749
3276.0,-0.075
3275.0,-0.0752
3274.0,-0.0754
3273.0,-0.0755
3272.0,-0.0756
3271.0,-0.0756
3270.0,-0.0756
3269.0,-0.0757
3268.0,-0.0758
3267.0,-0.0759
3266.0,-0.076
3265.0,-0.076
3264.0,-0.076
3263.0,-0.076
3262.0,-0.0761
3261.0,-0.0762
3260.0,-0.0763
3259.0,-0.0763
3258.0,-0.0763
3257.0,-0.0762
3256.0,-0.0762
3255.0,-0.0762
3254.0,-0.0763
3253.0,-0.0764
3252.0,-0.0764
3251.0,-0.0764
3250.0,-0.0763
3249.0,-0.0763
3248.0,-0.0764
3247.0,-0.0765
3246.0,-0.0767
3245.0,-0.0768
3244.0,-0.0768
3243.0,-0.0769
3242.0,-0.0771
3241.0,-0.0772
3240.0,-0.0774
3239.0,-0.0775
3238.0,-0.0778
3237.0,-0.078
3236.0,-0.0783
3235.0,-0.0786
3234.0,-0.0789
3233.0,-0.0791
3232.0,-0.0793
3231.0,-0.0795
3230.0,-0.0798
3229.0,-0.08
3228.0,-0.0802
3227.0,-0.0805
3226.0,-0.0808
3225.0,-0.0812
3224.0,-0.0814
3223.0,-0.0816
3222.0,-0.0818
3221.0,-0.0819
3220.0,-0.0819
3219.0,-0.082
3218.0,-0.082
3217.0,-0.082
3216.0,-0.082
3215.0,-0.082
3214.0,-0.0821
3213.0,-0.0821
3212.0,-0.0822
3211.0,-0.0823
3210.0,-0.0824
3209.0,-0.0824
3208.0,-0.0824
3207.0,-0.0824
3206.0,-0.0823
3205.0,-0.0821
3204.0,-0.082
3203.0,-0.082
3202.0,-0.0821
3201.0,-0.0822
3200.0,-0.0823
3199.0,-0.0823
3198.0,-0.0822
3197.0,-0.0821
3196.0,-0.0819
3195.0,-0.0817
3194.0,-0.0816
3193.0,-0.0816
3192.0,-0.0815
3191.0,-0.0814
3190.0,-0.0813
3189.0,-0.0811
3188.0,-0.0808
3187.0,-0.0806
3186.0,-0.0804
3185.0,-0.0802
3184.0,-0.0799
3183.0,-0.0797
3182.0,-0.0796
3181.0,-0.0795
3180.0,-0.0794
3179.0,-0.0793
3178.0,-0.079
3177.0,-0.0788
3176.0,-0.0784
3175.0,-0.0781
3174.0,-0.0778
3173.0,-0.0776
3172.0,-0.0775
3171.0,-0.0775
3170.0,-0.0774
3169.0,-0.0773
3168.0,-0.077
3167.0,-0.0766
3166.0,-0.0763
3165.0,-0.076
3164.0,-0.0757
3163.0,-0.0754
3162.0,-0.0751
3161.0,-0.0748
3160.0,-0.0745
3159.0,-0.0743
3158.0,-0.074
3157.0,-0.0738
3156.0,-0.0736
3155.0,-0.0734
3154.0,-0.0732
3153.0,-0.0729
3152.0,-0.0727
3151.0,-0.0724
3150.0,-0.0721
3149.0,-0.0717
3148.0,-0.0713
3147.0,-0.0709
3146.0,-0.0706
3145.0,-0.0703
3144.0,-0.07
3143.0,-0.0697
3142.0,-0.0695
3141.0,-0.0692
3140.0,-0.0689
3139.0,-0.0686
3138.0,-0.0683
3137.0,-0.068
3136.0,-0.0676
3135.0,-0.0672
3134.0,-0.0667
3133.0,-0.0663
3132.0,-0.0659
3131.0,-0.0656
3130.0,-0.0653
3129.0,-0.065
3128.0,-0.0647
3127.0,-0.0645
3126.0,-0.0643
3125.0,-0.064
3124.0,-0.0637
3123.0,-0.0633
3122.0,-0.0628
3121.0,-0.0624
3120.0,-0.062
3119.0,-0.0617
3118.0,-0.0615
3117.0,-0.0613
3116.0,-0.061
3115.0,-0.0607
3114.0,-0.0603
3113.0,-0.0599
3112.0,-0.0595
3111.0,-0.0591
3110.0,-0.0588
3109.0,-0.0585
3108.0,-0.0582
3107.0,-0.0579
3106.0,-0.0575
3105.0,-0.0571
3104.0,-0.0567
3103.0,-0.0563
3102.0,-0.0559
3101.0,-0.0556
3100.0,-0.0553
3099.0,-0.055
3098.0,-0.0548
3097.0,-0.0545
3096.0,-0.0542
3095.0,-0.0538
3094.0,-0.0535
3093.0,-0.0532
3092.0,-0.0528
3091.0,-0.0524
3090.0,-0.0521
3089.0,-0.0517
3088.0,-0.0514
3087.0,-0.0511
3086.0,-0.0508
3085.0,-0.0505
3084.0,-0.0502
3083.0,-0.0499
3082.0,-0.0496
3081.0,-0.0493
3080.0,-0.0489
3079.0,-0.0486
3078.0,-0.0483
3077.0,-0.048
3076.0,-0.0478
3075.0,-0.0475
3074.0,-0.0472
3073.0,-0.0468
3072.0,-0.0463
3071.0,-0.0459
3070.0,-0.0456
3069.0,-0.0452
3068.0,-0.045
3067.0,-0.0447
3066.0,-0.0444
3065.0,-0.0441
3064.0,-0.0438
3063.0,-0.0436
3062.0,-0.0434
3061.0,-0.0431
3060.0,-0.0428
3059.0,-0.0424
3058.0,-0.042
3057.0,-0.0415
3056.0,-0.0411
3055.0,-0.0408
3054.0,-0.0406
3053.0,-0.0403
3052.0,-0.0401
3051.0,-0.0398
3050.0,-0.0395
3049.0,-0.0393
3048.0,-0.0391
3047.0,-0.0388
3046.0,-0.0385
3045.0,-0.0382
3044.0,-0.0379
3043.0,-0.0376
3042.0,-0.0374
3041.0,-0.0371
3040.0,-0.0368
3039.0,-0.0365
3038.0,-0.0362
3037.0,-0.0359
3036.0,-0.0355
3035.0,-0.0353
3034.0,-0.035
3033.0,-0.0348
3032.0,-0.0346
3031.0,-0.0344
3030.0,-0.0341
3029.0,-0.0338
3028.0,-0.0336
3027.0,-0.0333
3026.0,-0.033
3025.0,-0.0327
3024.0,-0.0324
3023.0,-0.0321
3022.0,-0.0318
3021.0,-0.0316
3020.0,-0.0313
3019.0,-0.031
3018.0,-0.0308
3017.0,-0.0306
3016.0,-0.0305
3015.0,-0.0303
3014.0,-0.0301
3013.0,-0.0298
3012.0,-0.0295
3011.0,-0.0292
3010.0,-0.0289
3009.0,-0.0286
3008.0,-0.0284
3007.0,-0.0283
3006.0,-0.0281
3005.0,-0.0278
3004.0,-0.0276
3003.0,-0.0273
3002.0,-0.027
3001.0,-0.0268
3000.0,-0.0266
2999.0,-0.0264
2998.0,-0.0262
2997.0,-0.026
2996.0,-0.0257
2995.0,-0.0255
2994.0,-0.0253
2993.0,-0.0251
2992.0,-0.0249
2991.0,-0.0246
2990.0,-0.0245
2989.0,-0.0243
2988.0,-0.0241
2987.0,-0.0238
2986.0,-0.0236
2985.0,-0.0234
2984.0,-0.0231
2983.0,-0.0229
2982.0,-0.0227
2981.0,-0.0225
2980.0,-0.0224
2979.0,-0.0222
2978.0,-0.0221
2977.0,-0.022
2976.0,-0.0218
2975.0,-0.0216
2974.0,-0.0213
2973.0,-0.021
2972.0,-0.0208
2971.0,-0.0205
2970.0,-0.0203
2969.0,-0.0202
2968.0,-0.02
2967.0,-0.0199
2966.0,-0.0197
2965.0,-0.0195
2964.0,-0.0193
2963.0,-0.0191
2962.0,-0.0189
2961.0,-0.0187
2960.0,-0.0185
2959.0,-0.0184
2958.0,-0.0181
2957.0,-0.0179
2956.0,-0.0177
2955.0,-0.0175
2954.0,-0.0173
2953.0,-0.0171
2952.0,-0.017
2951.0,-0.0168
2950.0,-0.0167
2949.0,-0.0165
2948.0,-0.0164
2947.0,-0.0163
2946.0,-0.0163
2945.0,-0.0161
2944.0,-0.0159
2943.0,-0.0157
2942.0,-0.0154
2941.0,-0.0151
2940.0,-0.015
2939.0,-0.0148
2938.0,-0.0147
2937.0,-0.0145
2936.0,-0.0143
2935.0,-0.0141
2934.0,-0.014
2933.0,-0.0139
2932.0,-0.0137
2931.0,-0.0135
2930.0,-0.0134
2929.0,-0.0132
2928.0,-0.013
2927.0,-0.0128
2926.0,-0.0127
2925.0,-0.0126
2924.0,-0.0125
2923.0,-0.0125
2922.0,-0.0124
2921.0,-0.0123
2920.0,-0.0121
2919.0,-0.0119
2918.0,-0.0117
2917.0,-0.0115
2916.0,-0.0113
2915.0,-0.0112
2914.0,-0.011
2913.0,-0.0109
2912.0,-0.0109
2911.0,-0.0108
2910.0,-0.0108
2909.0,-0.0106
2908.0,-0.0105
2907.0,-0.0104
2906.0,-0.0102
2905.0,-0.0101
2904.0,-0.0101
2903.0,-0.01
2902.0,-0.0098
2901.0,-0.0097
2900.0,-0.0096
2899.0,-0.0094
2898.0,-0.0093
2897.0,-0.0092
2896.0,-0.0091
2895.0,-0.0091
2894.0,-0.0091
2893.0,-0.009
2892.0,-0.0088
2891.0,-0.0087
2890.0,-0.0086
2889.0,-0.0085
2888.0,-0.0084
2887.0,-0.0084
2886.0,-0.0083
2885.0,-0.0081
2884.0,-0.008
2883.0,-0.0079
2882.0,-0.0078
2881.0,-0.0076
2880.0,-0.0075
2879.0,-0.0074
2878.0,-0.0073
2877.0,-0.0072
2876.0,-0.0072
2875.0,-0.0071
2874.0,-0.007
2873.0,-0.0068
2872.0,-0.0067
2871.0,-0.0065
2870.0,-0.0064
2869.0,-0.0064
2868.0,-0.0063
2867.0,-0.0062
2866.0,-0.0061
2865.0,-0.006
2864.0,-0.0059
2863.0,-0.0058
2862.0,-0.0057
2861.0,-0.0056
2860.0,-0.0055
2859.0,-0.0054
2858.0,-0.0053
2857.0,-0.0052
2856.0,-0.0051
2855.0,-0.005
2854.0,-0.0049
2853.0,-0.0048
2852.0,-0.0048
2851.0,-0.0047
2850.0,-0.0046
2849.0,-0.0045
2848.0,-0.0044
2847.0,-0.0043
2846.0,-0.0043
2845.0,-0.0042
2844.0,-0.0042
2843.0,-0.0041
2842.0,-0.004
2841.0,-0.0039
2840.0,-0.0038
2839.0,-0.0037
2838.0,-0.0036
2837.0,-0.0036
2836.0,-0.0035
2835.0,-0.0035
2834.0,-0.0034
2833.0,-0.0033
2832.0,-0.0032
2831.0,-0.0031
2830.0,-0.003
2829.0,-0.0029
2828.0,-0.0028
2827.0,-0.0027
2826.0,-0.0026
2825.0,-0.0024
2824.0,-0.0023
2823.0,-0.0023
2822.0,-0.0022
2821.0,-0.0022
2820.0,-0.0022
2819.0,-0.0022
2818.0,-0.0021
2817.0,-0.0021
2816.0,-0.002
2815.0,-0.0019
2814.0,-0.0018
2813.0,-0.0017
2812.0,-0.0017
2811.0,-0.0016
2810.0,-0.0016
2809.0,-0.0015
2808.0,-0.0014
2807.0,-0.0014
2806.0,-0.0013
2805.0,-0.0012
2804.0,-0.0011
2803.0,-0.0011
2802.0,-0.001
2801.0,-0.001
2800.0,-0.0009
2799.0,-0.0009
2798.0,-0.0008
2797.0,-0.0007
2796.0,-0.0007
2795.0,-0.0006
2794.0,-0.0005
2793.0,-0.0005
2792.0,-0.0005
2791.0,-0.0005
2790.0,-0.0004
2789.0,-0.0003
2788.0,-0.0001
2787.0,-0.0
2786.0,0.0001
2785.0,0.0001
2784.0,0.0001
2783.0,0.0001
2782.0,0.0001
2781.0,0.0001
2780.0,0.0001
2779.0,0.0002
2778.0,0.0002
2777.0,0.0003
2776.0,0.0004
2775.0,0.0004
2774.0,0.0005
2773.0,0.0005
2772.0,0.0005
2771.0,0.0005
2770.0,0.0005
2769.0,0.0006
2768.0,0.0006
2767.0,0.0007
2766.0,0.0007
2765.0,0.0008
2764.0,0.0008
2763.0,0.0009
2762.0,0.0009
2761.0,0.001
2760.0,0.0011
2759.0,0.0012
2758.0,0.0012
2757.0,0.0013
2756.0,0.0013
2755.0,0.0014
2754.0,0.0015
2753.0,0.0015
2752.0,0.0016
2751.0,0.0016
2750.0,0.0016
2749.0,0.0017
2748.0,0.0017
2747.0,0.0018
2746.0,0.0018
2745.0,0.0019
2744.0,0.0019
2743.0,0.0019
2742.0,0.0019
2741.0,0.0019
2740.0,0.002
2739.0,0.002
2738.0,0.002
2737.0,0.002
2736.0,0.002
2735.0,0.0021
2734.0,0.0022
2733.0,0.0023
2732.0,0.0024
2731.0,0.0024
2730.0,0.0024
2729.0,0.0024
2728.0,0.0024
2727.0,0.0025
2726.0,0.0025
2725.0,0.0025
2724.0,0.0025
2723.0,0.0025
2722.0,0.0025
2721.0,0.0026
2720.0,0.0027
2719.0,0.0027
2718.0,0.0028
2717.0,0.0028
2716.0,0.0029
2715.0,0.0029
2714.0,0.0029
2713.0,0.003
2712.0,0.003
2711.0,0.0031
2710.0,0.0031
2709.0,0.0032
2708.0,0.0032
2707.0,0.0032
2706.0,0.0032
2705.0,0.0032
2704.0,0.0032
2703.0,0.0033
2702.0,0.0033
2701.0,0.0034
2700.0,0.0035
2699.0,0.0036
2698.0,0.0036
2697.0,0.0036
2696.0,0.0037
2695.0,0.0037
2694.0,0.0038
2693.0,0.0038
2692.0,0.0037
2691.0,0.0037
2690.0,0.0038
2689.0,0.0038
2688.0,0.0038
2687.0,0.0039
2686.0,0.0039
2685.0,0.0039
2684.0,0.004
2683.0,0.0041
2682.0,0.0042
2681.0,0.0042
2680.0,0.0043
2679.0,0.0042
2678.0,0.0042
2677.0,0.0042
2676.0,0.0041
2675.0,0.0041
2674.0,0.0042
2673.0,0.0042
2672.0,0.0043
2671.0,0.0044
2670.0,0.0044
2669.0,0.0044
2668.0,0.0044
2667.0,0.0043
2666.0,0.0043
2665.0,0.0044
2664.0,0.0045
2663.0,0.0045
2662.0,0.0046
2661.0,0.0046
2660.0,0.0046
2659.0,0.0046
2658.0,0.0045
2657.0,0.0045
2656.0,0.0045
2655.0,0.0045
2654.0,0.0046
2653.0,0.0046
2652.0,0.0047
2651.0,0.0047
2650.0,0.0047
2649.0,0.0048
2648.0,0.0048
2647.0,0.0048
2646.0,0.0048
2645.0,0.0049
2644.0,0.0049
2643.0,0.0049
2642.0,0.0049
2641.0,0.005
2640.0,0.005
2639.0,0.005
2638.0,0.005
2637.0,0.005
2636.0,0.005
2635.0,0.0051
2634.0,0.0052
2633.0,0.0052
2632.0,0.0052
2631.0,0.0052
2630.0,0.0051
2629.0,0.0051
2628.0,0.0052
2627.0,0.0052
2626.0,0.0053
2625.0,0.0053
2624.0,0.0053
2623.0,0.0053
2622.0,0.0053
2621.0,0.0053
2620.0,0.0054
2619.0,0.0054
2618.0,0.0055
2617.0,0.0055
2616.0,0.0055
2615.0,0.0055
2614.0,0.0054
2613.0,0.0055
2612.0,0.0055
2611.0,0.0055
2610.0,0.0056
2609.0,0.0056
2608.0,0.0056
2607.0,0.0056
2606.0,0.0056
2605.0,0.0057
2604.0,0.0057
2603.0,0.0057
2602.0,0.0057
2601.0,0.0056
2600.0,0.0056
2599.0,0.0056
2598.0,0.0056
2597.0,0.0056
2596.0,0.0056
2595.0,0.0057
2594.0,0.0057
2593.0,0.0058
2592.0,0.0058
2591.0,0.0058
2590.0,0.0057
2589.0,0.0057
2588.0,0.0057
2587.0,0.0058
2586.0,0.0058
2585.0,0.0059
2584.0,0.006
2583.0,0.006
2582.0,0.006
2581.0,0.0059
2580.0,0.006
2579.0,0.006
2578.0,0.006
2577.0,0.006
2576.0,0.0059
2575.0,0.0059
2574.0,0.0059
2573.0,0.0059
2572.0,0.0059
2571.0,0.0059
2570.0,0.0059
2569.0,0.006
2568.0,0.006
2567.0,0.006
2566.0,0.006
2565.0,0.0061
2564.0,0.0062
2563.0,0.0062
2562.0,0.0062
2561.0,0.0061
2560.0,0.0061
2559.0,0.0061
2558.0,0.0061
2557.0,0.0061
2556.0,0.0061
2555.0,0.0061
2554.0,0.0062
2553.0,0.0062
2552.0,0.0063
2551.0,0.0064
2550.0,0.0064
2549.0,0.0064
2548.0,0.0063
2547.0,0.0063
2546.0,0.0062
2545.0,0.0062
2544.0,0.0062
2543.0,0.0062
2542.0,0.0062
2541.0,0.0062
2540.0,0.0062
2539.0,0.0061
2538.0,0.0061
2537.0,0.0062
2536.0,0.0062
2535.0,0.0063
2534.0,0.0063
2533.0,0.0063
2532.0,0.0063
2531.0,0.0064
2530.0,0.0064
2529.0,0.0064
2528.0,0.0063
2527.0,0.0063
2526.0,0.0063
2525.0,0.0063
2524.0,0.0063
2523.0,0.0063
2522.0,0.0063
2521.0,0.0063
2520.0,0.0064
2519.0,0.0064
2518.0,0.0063
2517.0,0.0063
2516.0,0.0063
2515.0,0.0063
2514.0,0.0063
2513.0,0.0063
2512.0,0.0063
2511.0,0.0062
2510.0,0.0062
2509.0,0.0061
2508.0,0.0061
2507.0,0.0061
2506.0,0.0061
2505.0,0.0062
2504.0,0.0062
2503.0,0.0062
2502.0,0.0062
2501.0,0.0062
2500.0,0.0063
2499.0,0.0063
2498.0,0.0063
2497.0,0.0063
2496.0,0.0063
2495.0,0.0063
2494.0,0.0062
2493.0,0.0062
2492.0,0.0061
2491.0,0.0061
2490.0,0.0062
2489.0,0.0062
2488.0,0.0062
2487.0,0.0062
2486.0,0.0062
2485.0,0.0062
2484.0,0.0062
2483.0,0.0062
2482.0,0.0062
2481.0,0.0061
2480.0,0.0061
2479.0,0.0061
2478.0,0.0061
2477.0,0.0061
2476.0,0.0061
2475.0,0.0061
2474.0,0.0061
2473.0,0.006
2472.0,0.006
2471.0,0.006
2470.0,0.0059
2469.0,0.0059
2468.0,0.006
2467.0,0.006
2466.0,0.006
2465.0,0.0059
2464.0,0.0059
2463.0,0.0058
2462.0,0.0058
2461.0,0.0058
2460.0,0.0058
2459.0,0.0058
2458.0,0.0058
2457.0,0.0059
2456.0,0.0058
2455.0,0.0058
2454.0,0.0058
2453.0,0.0058
2452.0,0.0058
2451.0,0.0058
2450.0,0.0058
2449.0,0.0058
2448.0,0.0058
2447.0,0.0057
2446.0,0.0057
2445.0,0.0056
2444.0,0.0056
2443.0,0.0056
2442.0,0.0057
2441.0,0.0057
2440.0,0.0056
2439.0,0.0056
2438.0,0.0055
2437.0,0.0055
2436.0,0.0056
2435.0,0.0057
2434.0,0.0057
2433.0,0.0056
2432.0,0.0056
2431.0,0.0055
2430.0,0.0055
2429.0,0.0055
2428.0,0.0055
2427.0,0.0054
2426.0,0.0054
2425.0,0.0053
2424.0,0.0053
2423.0,0.0053
2422.0,0.0053
2421.0,0.0053
2420.0,0.0053
2419.0,0.0053
2418.0,0.0053
2417.0,0.0052
2416.0,0.0052
2415.0,0.0052
2414.0,0.0052
2413.0,0.0052
2412.0,0.0052
2411.0,0.0052
2410.0,0.0053
2409.0,0.0053
2408.0,0.0052
2407.0,0.0051
2406.0,0.005
2405.0,0.005
2404.0,0.005
2403.0,0.005
2402.0,0.005
2401.0,0.005
2400.0,0.005
2399.0,0.005
2398.0,0.0049
2397.0,0.0049
2396.0,0.0048
2395.0,0.0048
2394.0,0.0048
2393.0,0.0048
2392.0,0.0048
2391.0,0.0048
2390.0,0.0047
2389.0,0.0046
2388.0,0.0044
2387.0,0.0042
2386.0,0.0039
2385.0,0.0037
2384.0,0.0035
2383.0,0.0034
2382.0,0.0033
2381.0,0.0033
2380.0,0.0033
2379.0,0.0032
2378.0,0.003
2377.0,0.0025
2376.0,0.0017
2375.0,0.0009
2374.0,0.0001
2373.0,-0.0004
2372.0,-0.0009
2371.0,-0.0013
2370.0,-0.0013
2369.0,-0.0005
2368.0,0.001
2367.0,0.0024
2366.0,0.003
2365.0,0.0027
2364.0,0.0023
2363.0,0.0022
2362.0,0.0025
2361.0,0.0035
2360.0,0.0051
2359.0,0.0069
2358.0,0.008
2357.0,0.0078
2356.0,0.0064
2355.0,0.0047
2354.0,0.0035
2353.0,0.0033
2352.0,0.0036
2351.0,0.0037
2350.0,0.0035
2349.0,0.003
2348.0,0.0025
2347.0,0.0018
2346.0,0.0008
2345.0,-0.0003
2344.0,-0.0007
2343.0,0.0001
2342.0,0.0016
2341.0,0.0028
2340.0,0.003
2339.0,0.0027
2338.0,0.0025
2337.0,0.0027
2336.0,0.0031
2335.0,0.0038
2334.0,0.0044
2333.0,0.0051
2332.0,0.0053
2331.0,0.0049
2330.0,0.004
2329.0,0.0032
2328.0,0.0027
2327.0,0.0025
2326.0,0.0026
2325.0,0.0027
2324.0,0.0028
2323.0,0.0029
2322.0,0.0029
2321.0,0.0027
2320.0,0.0024
2319.0,0.002
2318.0,0.0016
2317.0,0.0012
2316.0,0.0012
2315.0,0.0014
2314.0,0.0017
2313.0,0.0021
2312.0,0.0024
2311.0,0.0025
2310.0,0.0026
2309.0,0.0027
2308.0,0.0029
2307.0,0.0032
2306.0,0.0033
2305.0,0.0034
2304.0,0.0033
2303.0,0.0032
2302.0,0.0032
2301.0,0.0032
2300.0,0.0032
2299.0,0.0032
2298.0,0.0033
2297.0,0.0034
2296.0,0.0034
2295.0,0.0035
2294.0,0.0036
2293.0,0.0037
2292.0,0.0038
2291.0,0.0039
2290.0,0.004
2289.0,0.0041
2288.0,0.0042
2287.0,0.0043
2286.0,0.0044
2285.0,0.0044
2284.0,0.0044
2283.0,0.0044
2282.0,0.0045
2281.0,0.0046
2280.0,0.0046
2279.0,0.0047
2278.0,0.0047
2277.0,0.0047
2276.0,0.0047
2275.0,0.0046
2274.0,0.0046
2273.0,0.0046
2272.0,0.0047
2271.0,0.0047
2270.0,0.0047
2269.0,0.0048
2268.0,0.0049
2267.0,0.0049
2266.0,0.0049
2265.0,0.0049
2264.0,0.0049
2263.0,0.0049
2262.0,0.005
2261.0,0.005
2260.0,0.0051
2259.0,0.0051
2258.0,0.0052
2257.0,0.0053
2256.0,0.0053
2255.0,0.0053
2254.0,0.0053
2253.0,0.0053
2252.0,0.0053
2251.0,0.0053
2250.0,0.0054
2249.0,0.0055
2248.0,0.0056
2247.0,0.0056
2246.0,0.0056
2245.0,0.0055
2244.0,0.0055
2243.0,0.0055
2242.0,0.0055
2241.0,0.0055
2240.0,0.0055
2239.0,0.0055
2238.0,0.0055
2237.0,0.0055
2236.0,0.0055
2235.0,0.0056
2234.0,0.0056
2233.0,0.0056
2232.0,0.0056
2231.0,0.0056
2230.0,0.0056
2229.0,0.0056
2228.0,0.0056
2227.0,0.0056
2226.0,0.0055
2225.0,0.0055
2224.0,0.0056
2223.0,0.0056
2222.0,0.0056
2221.0,0.0057
2220.0,0.0057
2219.0,0.0058
2218.0,0.0058
2217.0,0.0057
2216.0,0.0056
2215.0,0.0056
2214.0,0.0056
2213.0,0.0056
2212.0,0.0057
2211.0,0.0057
2210.0,0.0058
2209.0,0.0058
2208.0,0.0058
2207.0,0.0058
2206.0,0.0058
2205.0,0.0058
2204.0,0.0058
2203.0,0.0058
2202.0,0.0058
2201.0,0.0058
2200.0,0.0058
2199.0,0.0058
2198.0,0.0059
2197.0,0.0059
2196.0,0.006
2195.0,0.006
2194.0,0.006
2193.0,0.006
2192.0,0.0059
2191.0,0.0059
2190.0,0.0058
2189.0,0.0058
2188.0,0.0057
2187.0,0.0057
2186.0,0.0057
2185.0,0.0057
2184.0,0.0058
2183.0,0.0058
2182.0,0.0058
2181.0,0.0057
2180.0,0.0057
2179.0,0.0056
2178.0,0.0055
2177.0,0.0054
2176.0,0.0054
2175.0,0.0053
2174.0,0.0053
2173.0,0.0053
2172.0,0.0053
2171.0,0.0053
2170.0,0.0052
2169.0,0.0052
2168.0,0.0052
2167.0,0.0051
2166.0,0.0051
2165.0,0.0051
2164.0,0.0052
2163.0,0.0052
2162.0,0.0053
2161.0,0.0053
2160.0,0.0052
2159.0,0.0052
2158.0,0.0051
2157.0,0.0051
2156.0,0.0051
2155.0,0.0051
2154.0,0.0051
2153.0,0.0051
2152.0,0.0051
2151.0,0.0051
2150.0,0.005
2149.0,0.005
2148.0,0.0051
2147.0,0.0051
2146.0,0.0051
2145.0,0.0051
2144.0,0.0051
2143.0,0.0051
2142.0,0.0051
2141.0,0.0051
2140.0,0.0051
2139.0,0.0051
2138.0,0.005
2137.0,0.005
2136.0,0.005
2135.0,0.005
2134.0,0.005
2133.0,0.005
2132.0,0.005
2131.0,0.005
2130.0,0.005
2129.0,0.005
2128.0,0.005
2127.0,0.005
2126.0,0.005
2125.0,0.005
2124.0,0.005
2123.0,0.005
2122.0,0.005
2121.0,0.005
2120.0,0.0051
2119.0,0.0051
2118.0,0.0051
2117.0,0.0052
2116.0,0.0052
2115.0,0.0052
2114.0,0.0051
2113.0,0.0051
2112.0,0.005
2111.0,0.005
2110.0,0.005
2109.0,0.005
2108.0,0.0051
2107.0,0.005
2106.0,0.005
2105.0,0.005
2104.0,0.0049
2103.0,0.0049
2102.0,0.0049
2101.0,0.0048
2100.0,0.0048
2099.0,0.0047
2098.0,0.0046
2097.0,0.0045
2096.0,0.0045
2095.0,0.0044
2094.0,0.0044
2093.0,0.0044
2092.0,0.0044
2091.0,0.0044
2090.0,0.0044
2089.0,0.0045
2088.0,0.0045
2087.0,0.0045
2086.0,0.0044
2085.0,0.0044
2084.0,0.0043
2083.0,0.0043
2082.0,0.0043
2081.0,0.0043
2080.0,0.0043
2079.0,0.0043
2078.0,0.0043
2077.0,0.0043
2076.0,0.0043
2075.0,0.0043
2074.0,0.0042
2073.0,0.0042
2072.0,0.0042
2071.0,0.0042
2070.0,0.0042
2069.0,0.0042
2068.0,0.0042
2067.0,0.0041
2066.0,0.0041
2065.0,0.0041
2064.0,0.0041
2063.0,0.0041
2062.0,0.0041
2061.0,0.0041
2060.0,0.0042
2059.0,0.0042
2058.0,0.0042
2057.0,0.0043
2056.0,0.0043
2055.0,0.0043
2054.0,0.0043
2053.0,0.0043
2052.0,0.0043
2051.0,0.0043
2050.0,0.0043
2049.0,0.0043
2048.0,0.0043
2047.0,0.0043
2046.0,0.0043
2045.0,0.0044
2044.0,0.0044
2043.0,0.0043
2042.0,0.0043
2041.0,0.0043
2040.0,0.0043
2039.0,0.0043
2038.0,0.0044
2037.0,0.0044
2036.0,0.0044
2035.0,0.0044
2034.0,0.0044
2033.0,0.0044
2032.0,0.0044
2031.0,0.0045
2030.0,0.0045
2029.0,0.0045
2028.0,0.0045
2027.0,0.0045
2026.0,0.0046
2025.0,0.0046
2024.0,0.0047
2023.0,0.0047
2022.0,0.0047
2021.0,0.0047
2020.0,0.0047
2019.0,0.0048
2018.0,0.0048
2017.0,0.0048
2016.0,0.0048
2015.0,0.0048
2014.0,0.0048
2013.0,0.0049
2012.0,0.0049
2011.0,0.005
2010.0,0.0049
2009.0,0.0049
2008.0,0.0048
2007.0,0.0048
2006.0,0.0049
2005.0,0.0049
2004.0,0.0049
2003.0,0.005
2002.0,0.005
2001.0,0.005
2000.0,0.005
1999.0,0.005
1998.0,0.005
1997.0,0.0051
1996.0,0.0051
1995.0,0.0051
1994.0,0.0051
1993.0,0.0052
1992.0,0.0052
1991.0,0.0052
1990.0,0.0052
1989.0,0.0052
1988.0,0.0052
1987.0,0.0053
1986.0,0.0053
1985.0,0.0053
1984.0,0.0053
1983.0,0.0053
1982.0,0.0053
1981.0,0.0054
1980.0,0.0055
1979.0,0.0055
1978.0,0.0056
1977.0,0.0056
1976.0,0.0056
1975.0,0.0056
1974.0,0.0056
1973.0,0.0055
1972.0,0.0056
1971.0,0.0056
1970.0,0.0057
1969.0,0.0057
1968.0,0.0057
1967.0,0.0057
1966.0,0.0057
1965.0,0.0057
1964.0,0.0058
1963.0,0.0058
1962.0,0.0058
1961.0,0.0059
1960.0,0.006
1959.0,0.006
1958.0,0.006
1957.0,0.0059
1956.0,0.0059
1955.0,0.0059
1954.0,0.0059
1953.0,0.0059
1952.0,0.006
1951.0,0.006
1950.0,0.0061
1949.0,0.0061
1948.0,0.0061
1947.0,0.0061
1946.0,0.0061
1945.0,0.0061
1944.0,0.0061
1943.0,0.0062
1942.0,0.0062
1941.0,0.0062
1940.0,0.0062
1939.0,0.0062
1938.0,0.0062
1937.0,0.0062
1936.0,0.0062
1935.0,0.0062
1934.0,0.0062
1933.0,0.0062
1932.0,0.0062
1931.0,0.0062
1930.0,0.0063
1929.0,0.0063
1928.0,0.0063
1927.0,0.0063
1926.0,0.0064
1925.0,0.0064
1924.0,0.0064
1923.0,0.0064
1922.0,0.0064
1921.0,0.0064
1920.0,0.0064
1919.0,0.0065
1918.0,0.0065
1917.0,0.0066
1916.0,0.0066
1915.0,0.0065
1914.0,0.0065
1913.0,0.0065
1912.0,0.0065
1911.0,0.0065
1910.0,0.0065
1909.0,0.0065
1908.0,0.0065
1907.0,0.0065
1906.0,0.0065
1905.0,0.0066
1904.0,0.0066
1903.0,0.0067
1902.0,0.0067
1901.0,0.0067
1900.0,0.0066
1899.0,0.0066
1898.0,0.0066
1897.0,0.0066
1896.0,0.0066
1895.0,0.0066
1894.0,0.0066
1893.0,0.0066
1892.0,0.0066
1891.0,0.0066
1890.0,0.0067
1889.0,0.0068
1888.0,0.0068
1887.0,0.0069
1886.0,0.0069
1885.0,0.0069
1884.0,0.0069
1883.0,0.0069
1882.0,0.0068
1881.0,0.0068
1880.0,0.0068
1879.0,0.0068
1878.0,0.0068
1877.0,0.0068
1876.0,0.0068
1875.0,0.0068
1874.0,0.0068
1873.0,0.0068
1872.0,0.0067
1871.0,0.0067
1870.0,0.0067
1869.0,0.0068
1868.0,0.0068
1867.0,0.0068
1866.0,0.0069
1865.0,0.0069
1864.0,0.0069
1863.0,0.0069
1862.0,0.0069
1861.0,0.0069
1860.0,0.0069
1859.0,0.0069
1858.0,0.0069
1857.0,0.0069
1856.0,0.007
1855.0,0.007
1854.0,0.007
1853.0,0.007
1852.0,0.007
1851.0,0.007
1850.0,0.007
1849.0,0.007
1848.0,0.007
1847.0,0.0069
1846.0,0.0069
1845.0,0.0069
1844.0,0.007
1843.0,0.0071
1842.0,0.0071
1841.0,0.0071
1840.0,0.0071
1839.0,0.0071
1838.0,0.007
1837.0,0.007
1836.0,0.007
1835.0,0.007
1834.0,0.0071
1833.0,0.0071
1832.0,0.0071
1831.0,0.0071
1830.0,0.0071
1829.0,0.0071
1828.0,0.0071
1827.0,0.0071
1826.0,0.0071
1825.0,0.0072
1824.0,0.0072
1823.0,0.0072
1822.0,0.0072
1821.0,0.0072
1820.0,0.0072
1819.0,0.0072
1818.0,0.0072
1817.0,0.0072
1816.0,0.0072
1815.0,0.0072
1814.0,0.0072
1813.0,0.0072
1812.0,0.0072
1811.0,0.0072
1810.0,0.0071
1809.0,0.0071
1808.0,0.0071
1807.0,0.0071
1806.0,0.0071
1805.0,0.0071
1804.0,0.0071
1803.0,0.007
1802.0,0.007
1801.0,0.0071
1800.0,0.0071
1799.0,0.0071
1798.0,0.0071
1797.0,0.0071
1796.0,0.007
1795.0,0.007
1794.0,0.007
1793.0,0.007
1792.0,0.007
1791.0,0.007
1790.0,0.007
1789.0,0.007
1788.0,0.007
1787.0,0.007
1786.0,0.007
1785.0,0.0071
1784.0,0.007
1783.0,0.007
1782.0,0.0069
1781.0,0.0069
1780.0,0.0069
1779.0,0.0069
1778.0,0.0069
1777.0,0.0069
1776.0,0.0069
1775.0,0.0068
1774.0,0.0068
1773.0,0.0069
1772.0,0.0069
1771.0,0.007
1770.0,0.0069
1769.0,0.0069
1768.0,0.0068
1767.0,0.0068
1766.0,0.0068
1765.0,0.0067
1764.0,0.0067
1763.0,0.0066
1762.0,0.0066
1761.0,0.0065
1760.0,0.0065
1759.0,0.0064
1758.0,0.0063
1757.0,0.0063
1756.0,0.0063
1755.0,0.0063
1754.0,0.0062
1753.0,0.0061
1752.0,0.006
1751.0,0.0059
1750.0,0.0059
1749.0,0.0059
1748.0,0.0059
1747.0,0.0059
1746.0,0.0058
1745.0,0.0057
1744.0,0.0055
1743.0,0.0054
1742.0,0.0054
1741.0,0.0054
1740.0,0.0054
1739.0,0.0053
1738.0,0.0052
1737.0,0.0051
1736.0,0.0049
1735.0,0.0047
1734.0,0.0045
1733.0,0.0044
1732.0,0.0042
1731.0,0.0041
1730.0,0.004
1729.0,0.0039
1728.0,0.0037
1727.0,0.0036
1726.0,0.0035
1725.0,0.0033
1724.0,0.0031
1723.0,0.003
1722.0,0.0028
1721.0,0.0027
1720.0,0.0025
1719.0,0.0022
1718.0,0.0017
1717.0,0.0013
1716.0,0.0011
1715.0,0.0009
1714.0,0.0007
1713.0,0.0005
1712.0,0.0003
1711.0,-0.0
1710.0,-0.0003
1709.0,-0.0006
1708.0,-0.0009
1707.0,-0.0013
1706.0,-0.0016
1705.0,-0.0019
1704.0,-0.0022
1703.0,-0.0023
1702.0,-0.0023
1701.0,-0.0025
1700.0,-0.003
1699.0,-0.0037
1698.0,-0.0042
1697.0,-0.0045
1696.0,-0.0047
1695.0,-0.0049
1694.0,-0.0052
1693.0,-0.0054
1692.0,-0.0056
1691.0,-0.0057
1690.0,-0.0057
1689.0,-0.0057
1688.0,-0.0056
1687.0,-0.0056
1686.0,-0.0054
1685.0,-0.0051
1684.0,-0.0052
1683.0,-0.0057
1682.0,-0.0065
1681.0,-0.0076
1680.0,-0.0088
1679.0,-0.0099
1678.0,-0.011
1677.0,-0.0123
1676.0,-0.0139
1675.0,-0.0158
1674.0,-0.0173
1673.0,-0.0185
1672.0,-0.0197
1671.0,-0.0211
1670.0,-0.0226
1669.0,-0.0242
1668.0,-0.0258
1667.0,-0.027
1666.0,-0.0279
1665.0,-0.0289
1664.0,-0.0301
1663.0,-0.0314
1662.0,-0.0327
1661.0,-0.0338
1660.0,-0.0349
1659.0,-0.0359
1658.0,-0.0367
1657.0,-0.0374
1656.0,-0.038
1655.0,-0.0386
1654.0,-0.0395
1653.0,-0.0412
1652.0,-0.0426
1651.0,-0.0432
1650.0,-0.0434
1649.0,-0.0434
1648.0,-0.0437
1647.0,-0.0442
1646.0,-0.0444
1645.0,-0.0445
1644.0,-0.0447
1643.0,-0.0448
1642.0,-0.0449
1641.0,-0.0449
1640.0,-0.0451
1639.0,-0.0453
1638.0,-0.0455
1637.0,-0.046
1636.0,-0.0473
1635.0,-0.0487
1634.0,-0.0495
1633.0,-0.05
1632.0,-0.0504
1631.0,-0.0505
1630.0,-0.0503
1629.0,-0.0498
1628.0,-0.0491
1627.0,-0.0483
1626.0,-0.0474
1625.0,-0.0462
1624.0,-0.0447
1623.0,-0.0433
1622.0,-0.0423
1621.0,-0.042
1620.0,-0.042
1619.0,-0.042
1618.0,-0.0423
1617.0,-0.0428
1616.0,-0.0435
1615.0,-0.0441
1614.0,-0.0445
1613.0,-0.0448
1612.0,-0.045
1611.0,-0.0452
1610.0,-0.0451
1609.0,-0.045
1608.0,-0.0449
1607.0,-0.0447
1606.0,-0.0443
1605.0,-0.0439
1604.0,-0.0435
1603.0,-0.043
1602.0,-0.0425
1601.0,-0.0419
1600.0,-0.0413
1599.0,-0.0407
1598.0,-0.04
1597.0,-0.0394
1596.0,-0.0387
1595.0,-0.0381
1594.0,-0.0373
1593.0,-0.0366
1592.0,-0.0358
1591.0,-0.0352
1590.0,-0.0345
1589.0,-0.0338
1588.0,-0.0331
1587.0,-0.0324
1586.0,-0.0317
1585.0,-0.0311
1584.0,-0.0305
1583.0,-0.0299
1582.0,-0.0292
1581.0,-0.0286
1580.0,-0.028
1579.0,-0.0276
1578.0,-0.027
1577.0,-0.0263
1576.0,-0.0256
1575.0,-0.0251
1574.0,-0.0247
1573.0,-0.0242
1572.0,-0.0238
1571.0,-0.0232
1570.0,-0.0225
1569.0,-0.022
1568.0,-0.0217
1567.0,-0.0214
1566.0,-0.0211
1565.0,-0.0207
1564.0,-0.0203
1563.0,-0.02
1562.0,-0.0197
1561.0,-0.0192
1560.0,-0.0185
1559.0,-0.0179
1558.0,-0.0176
1557.0,-0.0176
1556.0,-0.0175
1555.0,-0.0173
1554.0,-0.0169
1553.0,-0.0166
1552.0,-0.0164
1551.0,-0.0161
1550.0,-0.0158
1549.0,-0.0155
1548.0,-0.0153
1547.0,-0.0151
1546.0,-0.0149
1545.0,-0.0147
1544.0,-0.0145
1543.0,-0.0143
1542.0,-0.0141
1541.0,-0.0139
1540.0,-0.0135
1539.0,-0.0132
1538.0,-0.0131
1537.0,-0.013
1536.0,-0.0129
1535.0,-0.0128
1534.0,-0.0125
1533.0,-0.0121
1532.0,-0.0118
1531.0,-0.0117
1530.0,-0.0117
1529.0,-0.0116
1528.0,-0.0115
1527.0,-0.0114
1526.0,-0.0113
1525.0,-0.0111
1524.0,-0.0109
1523.0,-0.0107
1522.0,-0.0106
1521.0,-0.0105
1520.0,-0.0104
1519.0,-0.0102
1518.0,-0.0101
1517.0,-0.0099
1516.0,-0.0099
1515.0,-0.0098
1514.0,-0.0098
1513.0,-0.0098
1512.0,-0.0098
1511.0,-0.0098
1510.0,-0.0098
1509.0,-0.0098
1508.0,-0.0098
1507.0,-0.0096
1506.0,-0.0093
1505.0,-0.0091
1504.0,-0.0091
1503.0,-0.0091
1502.0,-0.009
1501.0,-0.0089
1500.0,-0.0088
1499.0,-0.0088
1498.0,-0.0088
1497.0,-0.0088
1496.0,-0.0087
1495.0,-0.0087
1494.0,-0.0086
1493.0,-0.0086
1492.0,-0.0085
1491.0,-0.0085
1490.0,-0.0085
1489.0,-0.0084
1488.0,-0.0083
1487.0,-0.0083
1486.0,-0.0082
1485.0,-0.0081
1484.0,-0.0081
1483.0,-0.0081
1482.0,-0.0081
1481.0,-0.008
1480.0,-0.008
1479.0,-0.008
1478.0,-0.008
1477.0,-0.008
1476.0,-0.0081
1475.0,-0.0082
1474.0,-0.0082
1473.0,-0.008
1472.0,-0.0078
1471.0,-0.0077
1470.0,-0.0077
1469.0,-0.0077
1468.0,-0.0077
1467.0,-0.0077
1466.0,-0.0078
1465.0,-0.0078
1464.0,-0.0078
1463.0,-0.0078
1462.0,-0.0078
1461.0,-0.0078
1460.0,-0.0079
1459.0,-0.0079
1458.0,-0.0079
1457.0,-0.0079
1456.0,-0.0079
1455.0,-0.008
1454.0,-0.008
1453.0,-0.008
1452.0,-0.008
1451.0,-0.0079
1450.0,-0.0079
1449.0,-0.0078
1448.0,-0.0077
1447.0,-0.0077
1446.0,-0.0077
1445.0,-0.0077
1444.0,-0.0077
1443.0,-0.0077
1442.0,-0.0077
1441.0,-0.0077
1440.0,-0.0077
1439.0,-0.0077
1438.0,-0.0077
1437.0,-0.0078
1436.0,-0.0079
1435.0,-0.008
1434.0,-0.008
1433.0,-0.008
1432.0,-0.0079
1431.0,-0.0079
1430.0,-0.0079
1429.0,-0.0079
1428.0,-0.0079
1427.0,-0.0079
1426.0,-0.0078
1425.0,-0.0078
1424.0,-0.0078
1423.0,-0.0079
1422.0,-0.0079
1421.0,-0.0079
1420.0,-0.0078
1419.0,-0.0078
1418.0,-0.0078
1417.0,-0.0078
1416.0,-0.0078
1415.0,-0.0078
1414.0,-0.0078
1413.0,-0.0078
1412.0,-0.0079
1411.0,-0.008
1410.0,-0.0081
1409.0,-0.0082
1408.0,-0.0082
1407.0,-0.0083
1406.0,-0.0084
1405.0,-0.0085
1404.0,-0.0086
1403.0,-0.0087
1402.0,-0.0088
1401.0,-0.009
1400.0,-0.0091
1399.0,-0.0093
1398.0,-0.0094
1397.0,-0.0095
1396.0,-0.0096
1395.0,-0.0097
1394.0,-0.0097
1393.0,-0.0097
1392.0,-0.0097
1391.0,-0.0097
1390.0,-0.0097
1389.0,-0.0097
1388.0,-0.0097
1387.0,-0.0097
1386.0,-0.0098
1385.0,-0.0098
1384.0,-0.01
1383.0,-0.0101
1382.0,-0.0103
1381.0,-0.0105
1380.0,-0.0106
1379.0,-0.0107
1378.0,-0.0108
1377.0,-0.0109
1376.0,-0.011
1375.0,-0.0111
1374.0,-0.0111
1373.0,-0.011
1372.0,-0.0109
1371.0,-0.0107
1370.0,-0.0106
1369.0,-0.0104
1368.0,-0.0103
1367.0,-0.0101
1366.0,-0.01
1365.0,-0.01
1364.0,-0.0099
1363.0,-0.0098
1362.0,-0.0096
1361.0,-0.0094
1360.0,-0.0093
1359.0,-0.0091
1358.0,-0.009
1357.0,-0.0089
1356.0,-0.0087
1355.0,-0.0086
1354.0,-0.0085
1353.0,-0.0084
1352.0,-0.0083
1351.0,-0.0082
1350.0,-0.0081
1349.0,-0.0079
1348.0,-0.0078
1347.0,-0.0078
1346.0,-0.0077
1345.0,-0.0076
1344.0,-0.0076
1343.0,-0.0075
1342.0,-0.0075
1341.0,-0.0076
1340.0,-0.0075
1339.0,-0.0075
1338.0,-0.0074
1337.0,-0.0073
1336.0,-0.0072
1335.0,-0.0072
1334.0,-0.0071
1333.0,-0.007
1332.0,-0.0069
1331.0,-0.0069
1330.0,-0.0068
1329.0,-0.0068
1328.0,-0.0069
1327.0,-0.0069
1326.0,-0.0069
1325.0,-0.0069
1324.0,-0.0069
1323.0,-0.0068
1322.0,-0.0068
1321.0,-0.0067
1320.0,-0.0067
1319.0,-0.0067
1318.0,-0.0067
1317.0,-0.0066
1316.0,-0.0066
1315.0,-0.0067
1314.0,-0.0067
1313.0,-0.0066
1312.0,-0.0066
1311.0,-0.0066
1310.0,-0.0065
1309.0,-0.0065
1308.0,-0.0064
1307.0,-0.0063
1306.0,-0.0063
1305.0,-0.0063
1304.0,-0.0063
1303.0,-0.0063
1302.0,-0.0063
1301.0,-0.0063
1300.0,-0.0063
1299.0,-0.0062
1298.0,-0.0061
1297.0,-0.0061
1296.0,-0.0061
1295.0,-0.006
1294.0,-0.006
1293.0,-0.006
1292.0,-0.0059
1291.0,-0.0059
1290.0,-0.0059
1289.0,-0.0059
1288.0,-0.0059
1287.0,-0.0058
1286.0,-0.0058
1285.0,-0.0058
1284.0,-0.0057
1283.0,-0.0057
1282.0,-0.0057
1281.0,-0.0057
1280.0,-0.0057
1279.0,-0.0056
1278.0,-0.0056
1277.0,-0.0056
1276.0,-0.0056
1275.0,-0.0056
1274.0,-0.0056
1273.0,-0.0056
1272.0,-0.0056
1271.0,-0.0056
1270.0,-0.0055
1269.0,-0.0055
1268.0,-0.0054
1267.0,-0.0053
1266.0,-0.0053
1265.0,-0.0053
1264.0,-0.0052
1263.0,-0.0052
1262.0,-0.0052
1261.0,-0.0051
1260.0,-0.0051
1259.0,-0.005
1258.0,-0.005
1257.0,-0.0049
1256.0,-0.0048
1255.0,-0.0047
1254.0,-0.0046
1253.0,-0.0045
1252.0,-0.0044
1251.0,-0.0043
1250.0,-0.0043
1249.0,-0.0042
1248.0,-0.0042
1247.0,-0.0041
1246.0,-0.0041
1245.0,-0.004
1244.0,-0.0039
1243.0,-0.0038
1242.0,-0.0037
1241.0,-0.0035
1240.0,-0.0034
1239.0,-0.0033
1238.0,-0.0032
1237.0,-0.0032
1236.0,-0.0032
1235.0,-0.0031
1234.0,-0.003
1233.0,-0.0028
1232.0,-0.0026
1231.0,-0.0025
1230.0,-0.0024
1229.0,-0.0023
1228.0,-0.0022
1227.0,-0.0021
1226.0,-0.0019
1225.0,-0.0018
1224.0,-0.0017
1223.0,-0.0016
1222.0,-0.0015
1221.0,-0.0014
1220.0,-0.0014
1219.0,-0.0013
1218.0,-0.0012
1217.0,-0.001
1216.0,-0.0009
1215.0,-0.0008
1214.0,-0.0007
1213.0,-0.0007
1212.0,-0.0006
1211.0,-0.0005
1210.0,-0.0003
1209.0,-0.0002
1208.0,-0.0001
1207.0,-0.0
1206.0,0.0
1205.0,0.0
1204.0,0.0001
1203.0,0.0002
1202.0,0.0003
1201.0,0.0004
1200.0,0.0005
1199.0,0.0006
1198.0,0.0007
1197.0,0.0007
1196.0,0.0007
1195.0,0.0007
1194.0,0.0008
1193.0,0.0008
1192.0,0.0009
1191.0,0.001
1190.0,0.0011
1189.0,0.0012
1188.0,0.0012
1187.0,0.0012
1186.0,0.0012
1185.0,0.0012
1184.0,0.0012
1183.0,0.0012
1182.0,0.0012
1181.0,0.0011
1180.0,0.0009
1179.0,0.0008
1178.0,0.0006
1177.0,0.0005
1176.0,0.0004
1175.0,0.0005
1174.0,0.0005
1173.0,0.0006
1172.0,0.0007
1171.0,0.0008
1170.0,0.001
1169.0,0.0011
1168.0,0.0013
1167.0,0.0015
1166.0,0.0017
1165.0,0.002
1164.0,0.0022
1163.0,0.0025
1162.0,0.0027
1161.0,0.003
1160.0,0.0033
1159.0,0.0035
1158.0,0.0038
1157.0,0.0041
1156.0,0.0044
1155.0,0.0047
1154.0,0.0051
1153.0,0.0055
1152.0,0.0059
1151.0,0.0062
1150.0,0.0067
1149.0,0.0072
1148.0,0.0077
1147.0,0.0083
1146.0,0.009
1145.0,0.0098
1144.0,0.0107
1143.0,0.0117
1142.0,0.0127
1141.0,0.0138
1140.0,0.0149
1139.0,0.0161
1138.0,0.0173
1137.0,0.0184
1136.0,0.0194
1135.0,0.0203
1134.0,0.0211
1133.0,0.0219
1132.0,0.0226
1131.0,0.0233
1130.0,0.024
1129.0,0.0246
1128.0,0.0253
1127.0,0.026
1126.0,0.0268
1125.0,0.0276
1124.0,0.0284
1123.0,0.0293
1122.0,0.0301
1121.0,0.0308
1120.0,0.0315
1119.0,0.0322
1118.0,0.033
1117.0,0.0337
1116.0,0.0344
1115.0,0.0352
1114.0,0.0359
1113.0,0.0365
1112.0,0.0371
1111.0,0.0374
1110.0,0.0377
1109.0,0.0378
1108.0,0.0379
1107.0,0.0379
1106.0,0.0377
1105.0,0.0375
1104.0,0.0372
1103.0,0.0369
1102.0,0.0366
1101.0,0.0363
1100.0,0.036
1099.0,0.0355
1098.0,0.035
1097.0,0.0345
1096.0,0.034
1095.0,0.0335
1094.0,0.033
1093.0,0.0325
1092.0,0.032
1091.0,0.0315
1090.0,0.031
1089.0,0.0305
1088.0,0.0299
1087.0,0.0295
1086.0,0.029
1085.0,0.0286
1084.0,0.0282
1083.0,0.0278
1082.0,0.0273
1081.0,0.0268
1080.0,0.0265
1079.0,0.0262
1078.0,0.0259
1077.0,0.0257
1076.0,0.0254
1075.0,0.0251
1074.0,0.0249
1073.0,0.0247
1072.0,0.0245
1071.0,0.0244
1070.0,0.0243
1069.0,0.0241
1068.0,0.0239
1067.0,0.0237
1066.0,0.0236
1065.0,0.0233
1064.0,0.0231
1063.0,0.0228
1062.0,0.0227
1061.0,0.0226
1060.0,0.0224
1059.0,0.0223
1058.0,0.0221
1057.0,0.0219
1056.0,0.0218
1055.0,0.0217
1054.0,0.0215
1053.0,0.0214
1052.0,0.0212
1051.0,0.0211
1050.0,0.0209
1049.0,0.0207
1048.0,0.0204
1047.0,0.0202
1046.0,0.02
1045.0,0.0198
1044.0,0.0197
1043.0,0.0195
1042.0,0.0193
1041.0,0.0192
1040.0,0.019
1039.0,0.0189
1038.0,0.0187
1037.0,0.0184
1036.0,0.0181
1035.0,0.0178
1034.0,0.0176
1033.0,0.0174
1032.0,0.0172
1031.0,0.017
1030.0,0.0168
1029.0,0.0166
1028.0,0.0164
1027.0,0.0163
1026.0,0.0161
1025.0,0.0159
1024.0,0.0157
1023.0,0.0154
1022.0,0.0152
1021.0,0.0151
1020.0,0.015
1019.0,0.0149
1018.0,0.0147
1017.0,0.0145
1016.0,0.0143
1015.0,0.0142
1014.0,0.014
1013.0,0.0139
1012.0,0.0137
1011.0,0.0136
1010.0,0.0136
1009.0,0.0138
1008.0,0.0143
1007.0,0.0149
1006.0,0.0157
1005.0,0.0162
1004.0,0.0164
1003.0,0.0162
1002.0,0.0157
1001.0,0.0151
1000.0,0.0144
999.0,0.0139
998.0,0.0134
997.0,0.0131
996.0,0.0128
995.0,0.0126
994.0,0.0123
993.0,0.0121
992.0,0.0119
991.0,0.0116
990.0,0.0114
989.0,0.0113
988.0,0.0112
987.0,0.0111
986.0,0.0109
985.0,0.0106
984.0,0.0104
983.0,0.0102
982.0,0.01
981.0,0.0099
980.0,0.0097
979.0,0.0095
978.0,0.0095
977.0,0.0094
976.0,0.0093
975.0,0.0091
974.0,0.0089
973.0,0.0087
972.0,0.0087
971.0,0.0086
970.0,0.0086
969.0,0.0085
968.0,0.0083
967.0,0.0082
966.0,0.0081
965.0,0.008
964.0,0.0079
963.0,0.0077
962.0,0.0076
961.0,0.0075
960.0,0.0073
959.0,0.0071
958.0,0.0069
957.0,0.0068
956.0,0.0066
955.0,0.0065
954.0,0.0064
953.0,0.0063
952.0,0.0062
951.0,0.006
950.0,0.0058
949.0,0.0057
948.0,0.0056
947.0,0.0055
946.0,0.0054
945.0,0.0054
944.0,0.0053
943.0,0.0052
942.0,0.0051
941.0,0.005
940.0,0.0048
939.0,0.0046
938.0,0.0045
937.0,0.0043
936.0,0.0041
935.0,0.0039
934.0,0.0037
933.0,0.0035
932.0,0.0034
931.0,0.0034
930.0,0.0034
929.0,0.0033
928.0,0.0031
927.0,0.0029
926.0,0.0027
925.0,0.0025
924.0,0.0023
923.0,0.0021
922.0,0.0019
921.0,0.0018
920.0,0.0017
919.0,0.0016
918.0,0.0015
917.0,0.0014
916.0,0.0014
915.0,0.0013
914.0,0.0012
913.0,0.001
912.0,0.0008
911.0,0.0007
910.0,0.0006
909.0,0.0004
908.0,0.0003
907.0,0.0002
906.0,0.0001
905.0,-0.0
904.0,-0.0002
903.0,-0.0004
902.0,-0.0007
901.0,-0.001
900.0,-0.0011
899.0,-0.0013
898.0,-0.0013
897.0,-0.0014
896.0,-0.0015
895.0,-0.0017
894.0,-0.0019
893.0,-0.0021
892.0,-0.0022
891.0,-0.0024
890.0,-0.0025
889.0,-0.0026
888.0,-0.0027
887.0,-0.0027
886.0,-0.0028
885.0,-0.0028
884.0,-0.0028
883.0,-0.0029
882.0,-0.003
881.0,-0.0032
880.0,-0.0034
879.0,-0.0035
878.0,-0.0035
877.0,-0.0036
876.0,-0.0037
875.0,-0.0039
874.0,-0.0042
873.0,-0.0044
872.0,-0.0046
871.0,-0.0047
870.0,-0.0049
869.0,-0.0051
868.0,-0.0054
867.0,-0.0056
866.0,-0.0058
865.0,-0.0059
864.0,-0.006
863.0,-0.0061
862.0,-0.0062
861.0,-0.0065
860.0,-0.0068
859.0,-0.007
858.0,-0.0072
857.0,-0.0073
856.0,-0.0074
855.0,-0.0076
854.0,-0.0079
853.0,-0.0082
852.0,-0.0084
851.0,-0.0086
850.0,-0.0088
849.0,-0.0088
848.0,-0.0087
847.0,-0.0087
846.0,-0.0088
845.0,-0.009
844.0,-0.0093
843.0,-0.0096
842.0,-0.0098
841.0,-0.01
840.0,-0.0101
839.0,-0.0103
838.0,-0.0106
837.0,-0.0108
836.0,-0.011
835.0,-0.0112
834.0,-0.0115
833.0,-0.0117
832.0,-0.012
831.0,-0.0124
830.0,-0.0128
829.0,-0.0131
828.0,-0.0132
827.0,-0.0132
826.0,-0.0132
825.0,-0.0133
824.0,-0.0135
823.0,-0.0137
822.0,-0.0139
821.0,-0.0142
820.0,-0.0145
819.0,-0.0148
818.0,-0.0152
817.0,-0.0156
816.0,-0.0159
815.0,-0.0163
814.0,-0.0166
813.0,-0.0168
812.0,-0.017
811.0,-0.0171
810.0,-0.0173
809.0,-0.0175
808.0,-0.0177
807.0,-0.0179
806.0,-0.0181
805.0,-0.0184
804.0,-0.0187
803.0,-0.019
802.0,-0.0194
801.0,-0.0199
800.0,-0.0203
799.0,-0.0207
798.0,-0.0211
797.0,-0.0214
796.0,-0.0217
795.0,-0.022
794.0,-0.0224
793.0,-0.0227
792.0,-0.023
791.0,-0.0232
790.0,-0.0235
789.0,-0.0239
788.0,-0.0244
787.0,-0.0248
786.0,-0.0251
785.0,-0.0255
784.0,-0.026
783.0,-0.0266
782.0,-0.0271
781.0,-0.0275
780.0,-0.0278
779.0,-0.0281
778.0,-0.0284
777.0,-0.0287
776.0,-0.0291
775.0,-0.0296
774.0,-0.0302
773.0,-0.0308
772.0,-0.0313
771.0,-0.0318
770.0,-0.0324
769.0,-0.0329
768.0,-0.0335
767.0,-0.0339
766.0,-0.0343
765.0,-0.0347
764.0,-0.035
763.0,-0.0353
762.0,-0.0358
761.0,-0.0365
760.0,-0.0372
759.0,-0.0378
758.0,-0.0383
757.0,-0.0387
756.0,-0.0391
755.0,-0.0396
754.0,-0.0402
753.0,-0.0408
752.0,-0.0413
751.0,-0.0419
750.0,-0.0424
749.0,-0.0428
748.0,-0.0432
747.0,-0.0436
746.0,-0.0441
745.0,-0.0447
744.0,-0.0454
743.0,-0.046
742.0,-0.0467
741.0,-0.0475
740.0,-0.0483
739.0,-0.0489
738.0,-0.0493
737.0,-0.0499
736.0,-0.0507
735.0,-0.0514
734.0,-0.0519
733.0,-0.0524
732.0,-0.0529
731.0,-0.0536
730.0,-0.0543
729.0,-0.055
728.0,-0.0558
727.0,-0.0564
726.0,-0.0568
725.0,-0.0571
724.0,-0.0576
723.0,-0.0585
722.0,-0.0597
721.0,-0.0609
720.0,-0.0618
719.0,-0.0621
718.0,-0.0622
717.0,-0.0624
716.0,-0.0631
715.0,-0.0639
714.0,-0.0648
713.0,-0.0655
712.0,-0.0658
711.0,-0.0659
710.0,-0.0659
709.0,-0.0662
708.0,-0.0668
707.0,-0.0678
706.0,-0.0689
705.0,-0.07
704.0,-0.0706
703.0,-0.0709
702.0,-0.0712
701.0,-0.0716
700.0,-0.072
699.0,-0.0721
698.0,-0.0721
697.0,-0.0725
696.0,-0.0734
695.0,-0.0745
694.0,-0.0754
693.0,-0.0758
692.0,-0.0757
691.0,-0.0754
690.0,-0.075
689.0,-0.0747
688.0,-0.0749
687.0,-0.0752
686.0,-0.0752
685.0,-0.0748
684.0,-0.0744
683.0,-0.0745
682.0,-0.0747
681.0,-0.0748
680.0,-0.0747
679.0,-0.0749
678.0,-0.0754
677.0,-0.0756
676.0,-0.0751
675.0,-0.0736
674.0,-0.0717
673.0,-0.0698
672.0,-0.0682
671.0,-0.067
670.0,-0.0662
669.0,-0.0641
668.0,-0.0604
667.0,-0.0592
666.0,-0.0596
665.0,-0.0602
664.0,-0.0615
663.0,-0.0632
662.0,-0.0649
661.0,-0.0665
660.0,-0.0684
659.0,-0.0707
658.0,-0.0732
657.0,-0.0755
656.0,-0.0773
655.0,-0.0786
654.0,-0.0795
653.0,-0.0803
652.0,-0.0814
651.0,-0.0828
650.0,-0.084
649.0,-0.0845
648.0,-0.0846
647.0,-0.0843
646.0,-0.0841
645.0,-0.0842
644.0,-0.0849
643.0,-0.086
642.0,-0.087
641.0,-0.0874
640.0,-0.0874
639.0,-0.0873
638.0,-0.0877
637.0,-0.0888
636.0,-0.0906
635.0,-0.0921
634.0,-0.0927
633.0,-0.0924
632.0,-0.0922
631.0,-0.0925
630.0,-0.0928
629.0,-0.0927
628.0,-0.0923
627.0,-0.0923
626.0,-0.0931
625.0,-0.0943
624.0,-0.0952
623.0,-0.0954
622.0,-0.0953
621.0,-0.0956
620.0,-0.0963
619.0,-0.097
618.0,-0.0972
617.0,-0.0972
616.0,-0.0978
615.0,-0.0987
614.0,-0.0992
613.0,-0.099
612.0,-0.0982
611.0,-0.0977
610.0,-0.0976
609.0,-0.0973
608.0,-0.0964
607.0,-0.0951
606.0,-0.094
605.0,-0.0937
604.0,-0.0944
603.0,-0.0953
602.0,-0.0959
601.0,-0.0958
600.0,-0.0955
