nm,Intensity
526.505,828.9
526.642,829.2
526.778,828.167
526.915,829.3
527.052,828.4
527.188,828.733
527.325,828.433
527.462,828.333
527.598,827.7
527.735,827.933
527.872,827.933
528.008,828.633
528.145,828.467
528.282,828.6
528.418,828.467
528.555,827.733
528.691,828.667
528.828,827.967
528.965,828.367
529.101,828.733
529.238,828.033
529.374,828.667
529.511,828.033
529.647,828.1
529.784,827.9
529.92,828.5
530.057,828.033
530.193,829.3
530.33,827.767
530.466,828.633
530.603,828.133
530.739,828.467
530.876,828.6
531.012,828.333
531.149,828.167
531.285,828.267
531.421,828.3
531.558,828.4
531.694,828.4
531.831,829.167
531.967,830.133
532.103,850.9
532.24,863.167
532.376,838.4
532.513,828.867
532.649,828.433
532.785,827.633
532.922,828.1
533.058,828.533
533.194,828.667
533.331,829.2
533.467,828.8
533.603,829.7
533.739,836.8
533.876,880.9
534.012,964.733
534.148,1012.1
534.284,1017.2
534.421,1014.0
534.557,1014.63
534.693,1015.6
534.829,1018.0
534.966,1016.8
535.102,1012.97
535.238,1010.47
535.374,1008.63
535.51,1007.87
535.647,1006.3
535.783,1005.93
535.919,1006.03
536.055,1001.8
536.191,1002.93
536.327,1000.83
536.464,1000.0
536.6,1001.6
536.736,1000.47
536.872,1000.83
537.008,1000.87
537.144,1003.13
537.28,1000.33
537.416,1005.33
537.552,1000.23
537.688,1000.4
537.824,1002.53
537.961,1000.7
538.097,1004.2
538.233,1005.57
538.369,1000.03
538.505,1001.47
538.641,997.767
538.777,998.1
538.913,999.733
539.049,997.867
539.185,994.3
539.321,995.333
539.457,998.467
539.592,996.9
539.728,997.533
539.864,994.4
540.0,993.133
540.136,992.367
540.272,996.333
540.408,994.633
540.544,994.933
540.68,989.767
540.816,995.2
540.952,994.333
541.087,994.8
541.223,989.667
541.359,994.333
541.495,994.367
541.631,995.233
541.767,995.2
541.903,996.9
542.038,995.633
542.174,992.4
542.31,995.7
542.446,997.233
542.582,998.267
542.717,997.067
542.853,1000.73
542.989,1002.63
543.125,1001.0
543.26,1001.97
543.396,996.433
543.532,998.467
543.668,1001.6
543.803,999.833
543.939,1002.43
544.075,1000.77
544.21,1002.73
544.346,1000.33
544.482,1004.23
544.617,1004.87
544.753,1003.3
544.889,1006.37
545.024,1006.87
545.16,1006.9
545.296,1004.6
545.431,1006.93
545.567,1007.7
545.703,1007.93
545.838,1007.87
545.974,1009.67
546.109,1009.07
546.245,1011.17
546.381,1006.1
546.516,1009.13
546.652,1006.87
546.787,1006.47
546.923,1010.37
547.058,1009.33
547.194,1011.7
547.329,1007.57
547.465,1008.4
547.6,1011.1
547.736,1007.5
547.871,1009.47
548.007,1010.57
548.142,1009.3
548.278,1012.1
548.413,1009.73
548.549,1010.8
548.684,1012.9
548.82,1009.43
548.955,1009.67
549.091,1009.67
549.226,1012.77
549.361,1010.0
549.497,1012.8
549.632,1011.1
549.768,1010.43
549.903,1012.73
550.038,1011.47
550.174,1008.07
550.309,1011.7
550.444,1007.97
550.58,1009.6
550.715,1005.37
550.85,1011.4
550.986,1008.2
551.121,1006.5
551.256,1006.33
551.392,1005.0
551.527,1007.83
551.662,1009.53
551.798,1007.4
551.933,1009.03
552.068,1008.5
552.203,1009.8
552.339,1010.2
552.474,1009.93
552.609,1003.97
552.744,1003.3
552.88,1003.33
553.015,1002.63
553.15,1004.73
553.285,1007.57
553.42,1007.4
553.556,1007.8
553.691,1005.6
553.826,1005.27
553.961,1003.8
554.096,1006.2
554.231,1003.53
554.367,1008.53
554.502,1005.1
554.637,1009.87
554.772,1006.3
554.907,1006.17
555.042,1005.1
555.177,1006.0
555.312,1003.53
555.448,1002.17
555.583,1002.03
555.718,1003.6
555.853,1005.77
555.988,1003.93
556.123,1002.6
556.258,1004.93
556.393,1003.2
556.528,1008.3
556.663,1002.6
556.798,1005.77
556.933,1004.1
557.068,1003.77
557.203,1007.9
557.338,1007.97
557.473,1006.7
557.608,1005.27
557.743,1010.63
557.878,1010.47
558.013,1010.0
558.148,1005.8
558.283,1008.53
558.418,1006.37
558.553,1007.33
558.688,1008.7
558.822,1009.1
558.957,1006.57
559.092,1004.87
559.227,1005.67
559.362,1009.43
559.497,1008.4
559.632,1007.87
559.767,1006.3
559.902,1007.97
560.036,1009.2
560.171,1005.8
560.306,1010.77
560.441,1009.17
560.576,1006.0
560.711,1006.27
560.845,1006.73
560.98,1004.87
561.115,1008.03
561.25,1006.43
561.385,1007.43
561.519,1007.73
561.654,1007.83
561.789,1009.17
561.924,1007.1
562.058,1007.07
562.193,1008.97
562.328,1007.3
562.463,1009.33
562.597,1007.8
562.732,1013.4
562.867,1014.5
563.001,1018.27
563.136,1013.57
563.271,1016.67
563.406,1018.9
563.54,1018.37
563.675,1022.5
563.81,1033.83
563.944,1070.5
564.079,1119.87
564.213,1094.93
564.348,1047.2
564.483,1038.33
564.617,1040.1
564.752,1039.83
564.887,1035.87
565.021,1033.37
565.156,1034.37
565.29,1029.17
565.425,1029.73
565.56,1028.37
565.694,1029.8
565.829,1038.93
565.963,1050.23
566.098,1095.37
566.232,1144.47
566.367,1093.2
566.501,1048.13
566.636,1030.9
566.77,1027.9
566.905,1023.57
567.039,1026.27
567.174,1024.13
567.308,1028.23
567.443,1040.77
567.577,1044.63
567.712,1030.4
567.846,1028.33
567.981,1029.9
568.115,1025.47
568.25,1028.03
568.384,1029.6
568.518,1028.33
568.653,1030.93
568.787,1033.3
568.922,1030.1
569.056,1034.17
569.191,1034.03
569.325,1039.83
569.459,1039.07
569.594,1034.33
569.728,1038.1
569.862,1036.87
569.997,1040.4
570.131,1035.77
570.265,1039.57
570.4,1039.5
570.534,1043.67
570.668,1045.67
570.803,1050.57
570.937,1048.87
571.071,1052.53
571.206,1060.5
571.34,1070.9
571.474,1141.87
571.609,1219.4
571.743,1137.7
571.877,1087.07
572.011,1072.33
572.146,1066.23
572.28,1059.37
572.414,1056.43
572.548,1058.0
572.683,1051.87
572.817,1049.73
572.951,1056.93
573.085,1054.7
573.219,1054.1
573.354,1054.2
573.488,1054.67
573.622,1055.3
573.756,1058.97
573.89,1061.13
574.025,1067.97
574.159,1066.8
574.293,1064.03
574.427,1059.1
574.561,1056.87
574.695,1060.7
574.829,1059.8
574.964,1061.03
575.098,1062.57
575.232,1058.33
575.366,1071.0
575.5,1103.97
575.634,1125.33
575.768,1100.87
575.902,1092.63
576.036,1110.63
576.17,1145.07
576.304,1197.7
576.438,1200.47
576.573,1154.5
576.707,1134.93
576.841,1136.87
576.975,1135.97
577.109,1142.93
577.243,1131.1
577.377,1112.03
577.511,1094.97
577.645,1087.2
577.779,1083.23
577.913,1078.27
578.047,1074.0
578.181,1076.3
578.315,1070.13
578.449,1075.9
578.583,1073.87
578.716,1073.9
578.85,1070.93
578.984,1070.57
579.118,1068.27
579.252,1066.77
579.386,1071.1
579.52,1073.97
579.654,1076.13
579.788,1079.03
579.922,1071.53
580.056,1072.17
580.19,1075.1
580.323,1075.6
580.457,1070.9
580.591,1069.73
580.725,1070.8
580.859,1068.73
580.993,1068.1
581.127,1067.1
581.26,1068.1
581.394,1066.47
581.528,1064.17
581.662,1065.27
581.796,1067.57
581.929,1068.7
582.063,1068.67
582.197,1068.03
582.331,1067.27
582.465,1066.53
582.598,1072.3
582.732,1069.47
582.866,1070.6
583.0,1069.33
583.133,1067.63
583.267,1071.7
583.401,1068.6
583.535,1068.1
583.668,1067.5
583.802,1067.2
583.936,1066.3
584.07,1070.0
584.203,1069.33
584.337,1070.63
584.471,1067.7
584.604,1067.3
584.738,1067.87
584.872,1069.03
585.005,1065.07
585.139,1065.87
585.273,1070.6
585.406,1065.8
585.54,1064.2
585.674,1066.53
585.807,1065.17
585.941,1065.4
586.074,1065.53
586.208,1064.87
586.342,1062.43
586.475,1065.53
586.609,1066.5
586.742,1065.47
586.876,1067.03
587.01,1067.77
587.143,1065.3
587.277,1063.47
587.41,1062.03
587.544,1065.33
587.678,1066.27
587.811,1070.33
587.945,1065.67
588.078,1061.1
588.212,1062.53
588.345,1066.1
588.479,1062.07
588.612,1063.37
588.746,1060.6
588.879,1055.73
589.013,1063.9
589.146,1061.53
589.28,1059.97
589.413,1056.47
589.547,1057.27
589.68,1056.97
589.814,1055.4
589.947,1057.5
590.081,1059.53
590.214,1056.4
590.347,1055.07
590.481,1059.13
590.614,1056.93
590.748,1057.33
590.881,1056.13
591.015,1060.2
591.148,1058.1
591.281,1056.0
591.415,1056.97
591.548,1055.97
591.682,1056.33
591.815,1057.33
591.948,1053.63
592.082,1050.4
592.215,1050.53
592.348,1056.77
592.482,1050.87
592.615,1051.87
592.748,1048.07
592.882,1049.9
593.015,1049.27
593.148,1052.2
593.282,1052.5
593.415,1049.8
593.548,1048.63
593.682,1051.7
593.815,1045.67
593.948,1045.53
594.082,1045.83
594.215,1044.37
594.348,1044.33
594.481,1045.93
594.615,1048.3
594.748,1044.07
594.881,1044.3
595.014,1043.37
595.148,1043.33
595.281,1044.43
595.414,1043.23
595.547,1044.1
595.681,1042.87
595.814,1041.8
595.947,1039.93
596.08,1038.83
596.213,1038.83
596.347,1040.8
596.48,1038.17
596.613,1044.0
596.746,1037.53
596.879,1042.87
597.013,1038.43
597.146,1037.9
597.279,1037.1
597.412,1036.0
597.545,1037.03
597.678,1034.0
597.811,1037.8
597.945,1033.37
598.078,1034.8
598.211,1035.2
598.344,1034.2
598.477,1033.8
598.61,1033.83
598.743,1034.7
598.876,1036.73
599.01,1034.83
599.143,1031.67
599.276,1036.13
599.409,1032.67
599.542,1036.17
599.675,1030.23
599.808,1029.93
599.941,1029.9
600.074,1031.4
600.207,1030.13
600.34,1029.8
600.473,1027.8
600.606,1027.43
600.739,1025.77
600.872,1025.03
601.005,1026.67
601.138,1024.53
601.271,1026.77
601.404,1024.97
601.537,1026.4
601.67,1024.0
601.803,1025.8
601.936,1024.47
602.069,1025.57
602.202,1027.23
602.335,1026.0
602.468,1025.67
602.601,1023.47
602.734,1024.1
602.867,1020.9
603.0,1024.4
603.133,1025.83
603.266,1021.97
603.399,1023.0
603.532,1022.17
603.665,1019.37
603.798,1021.7
603.93,1020.7
604.063,1018.2
604.196,1021.07
604.329,1018.0
604.462,1018.23
604.595,1017.53
604.728,1016.53
604.861,1014.83
604.994,1013.0
605.126,1014.23
605.259,1015.7
605.392,1015.43
605.525,1012.07
605.658,1006.97
605.791,1011.37
605.924,1011.53
606.056,1008.77
606.189,1010.83
606.322,1011.07
606.455,1006.3
606.588,1008.83
606.72,1007.97
606.853,1005.77
606.986,1008.23
607.119,1004.63
607.252,1006.07
607.384,1009.7
607.517,1003.9
607.65,1005.27
607.783,1007.93
607.915,1007.1
608.048,1006.77
608.181,1007.67
608.314,1008.3
608.446,1005.2
608.579,1006.27
608.712,1008.63
608.845,1006.93
608.977,1005.43
609.11,1005.3
609.243,1005.7
609.376,1004.7
609.508,1004.63
609.641,1005.03
609.774,1002.4
609.906,1000.83
610.039,1000.03
610.172,1004.6
610.304,1001.33
610.437,1002.47
610.57,1004.6
610.702,1004.7
610.835,1004.87
610.968,1002.9
611.1,1003.9
611.233,1002.1
611.366,1004.8
611.498,1004.57
611.631,1001.8
611.764,1003.1
611.896,1002.57
612.029,1000.33
612.162,1000.77
612.294,999.767
612.427,1003.83
612.559,1001.6
612.692,1001.83
612.825,1003.97
612.957,1006.17
613.09,1006.43
613.222,1002.57
613.355,1003.93
613.487,1002.13
613.62,1004.57
613.753,1004.47
613.885,1004.3
614.018,1002.67
614.15,1003.37
614.283,1002.07
614.415,1005.17
614.548,1004.63
614.68,1001.4
614.813,1005.73
614.945,1002.83
615.078,1004.53
615.211,1001.57
615.343,1003.97
615.476,1005.97
615.608,1000.2
615.741,1002.73
615.873,1002.77
616.006,999.933
616.138,1002.97
616.27,1002.13
616.403,1003.03
616.535,1004.1
616.668,1005.27
616.8,1005.33
616.933,1008.93
617.065,1010.13
617.198,1009.53
617.33,1009.9
617.463,1008.67
617.595,1007.53
617.728,1010.6
617.86,1009.1
617.992,1012.1
618.125,1010.63
618.257,1012.93
618.39,1006.77
618.522,1009.27
618.654,1011.03
618.787,1011.67
618.919,1009.3
619.052,1008.87
619.184,1010.13
619.316,1013.4
619.449,1011.37
619.581,1012.67
619.714,1011.5
619.846,1015.77
619.978,1013.37
620.111,1008.4
620.243,1012.03
620.375,1011.1
620.508,1009.77
620.64,1012.37
620.772,1011.9
620.905,1013.93
621.037,1015.5
621.169,1016.27
621.302,1019.8
621.434,1023.53
621.566,1026.07
621.699,1030.53
621.831,1038.83
621.963,1041.83
622.096,1048.63
622.228,1052.97
622.36,1058.37
622.492,1055.23
622.625,1048.87
622.757,1035.73
622.889,1028.57
623.022,1023.87
623.154,1020.77
623.286,1018.53
623.418,1017.67
623.551,1015.23
623.683,1014.17
623.815,1014.97
623.947,1014.6
624.08,1014.07
624.212,1012.27
624.344,1013.43
624.476,1016.33
624.609,1012.03
624.741,1012.13
624.873,1014.6
625.005,1014.97
625.137,1014.53
625.27,1014.87
625.402,1011.87
625.534,1019.5
625.666,1017.5
625.798,1021.6
625.931,1026.17
626.063,1030.9
626.195,1034.03
626.327,1045.53
626.459,1061.47
626.592,1097.8
626.724,1153.2
626.856,1250.0
626.988,1396.73
627.12,1583.1
627.252,1703.43
627.384,1673.2
627.517,1584.03
627.649,1485.97
627.781,1427.53
627.913,1375.67
628.045,1357.13
628.177,1357.1
628.309,1414.83
628.441,1593.87
628.574,1908.5
628.706,1894.17
628.838,1619.8
628.97,1478.07
629.102,1433.73
629.234,1404.7
629.366,1379.57
629.498,1345.4
629.63,1308.37
629.762,1271.9
629.895,1246.07
630.027,1234.47
630.159,1224.83
630.291,1218.9
630.423,1218.93
630.555,1204.77
630.687,1183.87
630.819,1155.03
630.951,1127.47
631.083,1095.03
631.215,1061.8
631.347,1046.47
631.479,1034.13
631.611,1026.43
631.743,1021.17
631.875,1016.47
632.007,1015.67
632.139,1011.37
632.271,1008.0
632.403,1006.7
632.535,1009.7
632.667,1005.4
632.799,1000.77
632.931,1004.33
633.063,1002.67
633.195,1004.13
633.327,1000.43
633.459,1000.6
633.591,1002.2
633.723,997.933
633.855,997.5
633.987,997.167
634.119,994.7
634.251,991.533
634.383,993.267
634.515,994.833
634.647,990.933
634.779,989.533
634.911,991.4
635.043,992.367
635.175,988.8
635.307,989.633
635.439,988.533
635.571,985.167
635.703,987.267
635.835,987.933
635.966,987.233
636.098,989.2
636.23,985.067
636.362,988.067
636.494,983.433
636.626,987.667
636.758,983.9
636.89,984.933
637.022,985.133
637.154,981.0
637.285,982.733
637.417,979.567
637.549,979.8
637.681,980.767
637.813,977.933
637.945,981.0
638.077,978.7
638.209,977.267
638.34,976.3
638.472,978.467
638.604,977.667
638.736,977.533
638.868,977.433
639.0,976.567
639.132,977.3
639.263,973.6
639.395,977.0
639.527,973.833
639.659,974.767
639.791,974.433
639.923,973.7
640.054,972.033
640.186,974.967
640.318,973.133
640.45,972.067
640.582,971.633
640.713,969.767
640.845,972.267
640.977,971.867
641.109,971.633
641.241,971.733
641.372,971.2
641.504,971.067
641.636,969.433
641.768,970.133
641.9,971.2
642.031,967.8
642.163,968.667
642.295,966.9
642.427,967.233
642.558,969.933
642.69,966.2
642.822,967.6
642.954,964.6
643.086,964.267
643.217,965.8
643.349,964.9
643.481,959.833
643.613,961.7
643.744,965.067
643.876,961.867
644.008,963.6
644.139,963.167
644.271,963.167
644.403,960.633
644.535,962.9
644.666,960.9
644.798,960.333
644.93,961.1
645.062,960.533
645.193,958.367
645.325,957.667
645.457,956.167
645.588,958.633
645.72,956.6
645.852,956.6
645.983,958.933
646.115,958.5
646.247,957.3
646.378,958.7
646.51,954.967
646.642,955.2
646.774,956.067
646.905,953.6
647.037,956.5
647.169,957.6
647.3,957.467
647.432,954.267
647.564,954.933
647.695,954.9
647.827,952.9
647.958,955.067
648.09,952.867
648.222,953.633
648.353,952.8
648.485,951.7
648.617,953.167
648.748,951.167
648.88,953.667
649.012,950.167
649.143,949.633
649.275,949.867
649.406,949.567
649.538,951.2
649.67,951.767
649.801,950.967
649.933,949.867
650.065,949.367
650.196,948.7
650.328,949.367
650.459,952.667
650.591,946.733
650.723,947.967
650.854,947.833
650.986,947.467
651.117,945.9
651.249,947.933
651.381,946.333
651.512,949.6
651.644,946.233
651.775,947.0
651.907,945.633
652.038,948.267
652.17,947.033
652.302,944.133
652.433,946.6
652.565,946.033
652.696,944.9
652.828,945.0
652.959,946.667
653.091,944.3
653.222,947.567
653.354,945.267
653.486,944.267
653.617,945.233
653.749,943.067
653.88,944.767
654.012,945.433
654.143,947.3
654.275,945.433
654.406,942.967
654.538,942.7
654.669,942.067
654.801,943.033
654.932,943.8
655.064,943.167
655.195,943.867
655.327,944.333
655.458,944.267
655.59,944.333
655.721,942.2
655.853,943.733
655.984,941.7
656.116,940.4
656.247,942.133
656.379,942.4
656.51,942.367
656.642,940.367
656.773,941.633
656.905,942.533
657.036,940.633
657.168,942.333
657.299,941.2
657.431,939.8
657.562,941.333
657.694,940.5
657.825,942.767
657.957,942.3
658.088,942.933
658.22,941.733
658.351,940.433
658.482,940.4
658.614,943.033
658.745,941.933
658.877,942.033
659.008,939.0
659.14,940.567
659.271,942.467
659.403,942.1
659.534,941.4
659.666,938.0
659.797,940.167
659.928,940.533
660.06,941.733
660.191,939.367
660.323,941.0
660.454,941.4
660.586,941.633
660.717,938.467
660.848,939.3
660.98,938.067
661.111,937.5
661.243,938.167
661.374,938.667
661.505,937.167
661.637,937.867
661.768,939.3
661.9,936.9
662.031,936.7
662.162,937.833
662.294,935.7
662.425,935.7
662.557,937.9
662.688,935.0
662.819,937.367
662.951,934.2
663.082,935.933
