cm-1,A
4000.0,-0.0034
3999.0,-0.0034
3998.0,-0.0034
3997.0,-0.0035
3996.0,-0.0035
3995.0,-0.0035
3994.0,-0.0035
3993.0,-0.0035
3992.0,-0.0035
3991.0,-0.0034
3990.0,-0.0034
3989.0,-0.0034
3988.0,-0.0033
3987.0,-0.0033
3986.0,-0.0033
3985.0,-0.0033
3984.0,-0.0033
3983.0,-0.0033
3982.0,-0.0033
3981.0,-0.0034
3980.0,-0.0035
3979.0,-0.0035
3978.0,-0.0036
3977.0,-0.0036
3976.0,-0.0037
3975.0,-0.0037
3974.0,-0.0036
3973.0,-0.0035
3972.0,-0.0035
3971.0,-0.0034
3970.0,-0.0035
3969.0,-0.0035
3968.0,-0.0036
3967.0,-0.0036
3966.0,-0.0035
3965.0,-0.0034
3964.0,-0.0034
3963.0,-0.0034
3962.0,-0.0034
3961.0,-0.0034
3960.0,-0.0033
3959.0,-0.0033
3958.0,-0.0033
3957.0,-0.0034
3956.0,-0.0034
3955.0,-0.0034
3954.0,-0.0034
3953.0,-0.0034
3952.0,-0.0034
3951.0,-0.0034
3950.0,-0.0034
3949.0,-0.0033
3948.0,-0.0033
3947.0,-0.0032
3946.0,-0.0032
3945.0,-0.0032
3944.0,-0.0033
3943.0,-0.0033
3942.0,-0.0033
3941.0,-0.0034
3940.0,-0.0034
3939.0,-0.0035
3938.0,-0.0035
3937.0,-0.0034
3936.0,-0.0033
3935.0,-0.0031
3934.0,-0.003
3933.0,-0.003
3932.0,-0.0031
3931.0,-0.0031
3930.0,-0.0032
3929.0,-0.0031
3928.0,-0.0031
3927.0,-0.0032
3926.0,-0.0032
3925.0,-0.0033
3924.0,-0.0032
3923.0,-0.0032
3922.0,-0.0032
3921.0,-0.0033
3920.0,-0.0034
3919.0,-0.0034
3918.0,-0.0034
3917.0,-0.0034
3916.0,-0.0034
3915.0,-0.0034
3914.0,-0.0033
3913.0,-0.0033
3912.0,-0.0032
3911.0,-0.0032
3910.0,-0.0031
3909.0,-0.0031
3908.0,-0.0031
3907.0,-0.0031
3906.0,-0.0032
3905.0,-0.0033
3904.0,-0.0034
3903.0,-0.0034
3902.0,-0.0034
3901.0,-0.0034
3900.0,-0.0034
3899.0,-0.0033
3898.0,-0.0033
3897.0,-0.0033
3896.0,-0.0033
3895.0,-0.0033
3894.0,-0.0032
3893.0,-0.0032
3892.0,-0.0032
3891.0,-0.0032
3890.0,-0.0032
3889.0,-0.0031
3888.0,-0.0031
3887.0,-0.0031
3886.0,-0.0031
3885.0,-0.0031
3884.0,-0.003
3883.0,-0.0031
3882.0,-0.0033
3881.0,-0.0035
3880.0,-0.0035
3879.0,-0.0033
3878.0,-0.0032
3877.0,-0.0032
3876.0,-0.0033
3875.0,-0.0033
3874.0,-0.0032
3873.0,-0.0031
3872.0,-0.003
3871.0,-0.0031
3870.0,-0.0031
3869.0,-0.0029
3868.0,-0.0028
3867.0,-0.0029
3866.0,-0.003
3865.0,-0.0032
3864.0,-0.0032
3863.0,-0.0032
3862.0,-0.0033
3861.0,-0.0034
3860.0,-0.0036
3859.0,-0.0037
3858.0,-0.0037
3857.0,-0.0036
3856.0,-0.0035
3855.0,-0.0036
3854.0,-0.0036
3853.0,-0.0034
3852.0,-0.0032
3851.0,-0.0031
3850.0,-0.0031
3849.0,-0.0031
3848.0,-0.0031
3847.0,-0.003
3846.0,-0.003
3845.0,-0.0029
3844.0,-0.0029
3843.0,-0.0029
3842.0,-0.0028
3841.0,-0.0028
3840.0,-0.0027
3839.0,-0.0027
3838.0,-0.0027
3837.0,-0.0027
3836.0,-0.0027
3835.0,-0.0028
3834.0,-0.0028
3833.0,-0.0028
3832.0,-0.0028
3831.0,-0.0028
3830.0,-0.0029
3829.0,-0.0029
3828.0,-0.0031
3827.0,-0.0032
3826.0,-0.0032
3825.0,-0.0031
3824.0,-0.0031
3823.0,-0.0032
3822.0,-0.0033
3821.0,-0.0032
3820.0,-0.0031
3819.0,-0.0031
3818.0,-0.0031
3817.0,-0.0032
3816.0,-0.0032
3815.0,-0.0031
3814.0,-0.003
3813.0,-0.003
3812.0,-0.0031
3811.0,-0.0031
3810.0,-0.0031
3809.0,-0.0032
3808.0,-0.0033
3807.0,-0.0033
3806.0,-0.0032
3805.0,-0.003
3804.0,-0.0029
3803.0,-0.003
3802.0,-0.003
3801.0,-0.0028
3800.0,-0.0027
3799.0,-0.0027
3798.0,-0.0029
3797.0,-0.0031
3796.0,-0.0031
3795.0,-0.003
3794.0,-0.003
3793.0,-0.0029
3792.0,-0.0029
3791.0,-0.0029
3790.0,-0.0029
3789.0,-0.0029
3788.0,-0.0029
3787.0,-0.0029
3786.0,-0.0029
3785.0,-0.0028
3784.0,-0.0027
3783.0,-0.0026
3782.0,-0.0026
3781.0,-0.0027
3780.0,-0.0029
3779.0,-0.003
3778.0,-0.003
3777.0,-0.003
3776.0,-0.003
3775.0,-0.003
3774.0,-0.0029
3773.0,-0.0029
3772.0,-0.0029
3771.0,-0.0029
3770.0,-0.0029
3769.0,-0.0029
3768.0,-0.0028
3767.0,-0.0028
3766.0,-0.0028
3765.0,-0.0028
3764.0,-0.0028
3763.0,-0.0027
3762.0,-0.0027
3761.0,-0.0027
3760.0,-0.0027
3759.0,-0.0028
3758.0,-0.0029
3757.0,-0.0029
3756.0,-0.0029
3755.0,-0.0028
3754.0,-0.0027
3753.0,-0.0028
3752.0,-0.0029
3751.0,-0.0031
3750.0,-0.0034
3749.0,-0.0034
3748.0,-0.0033
3747.0,-0.0033
3746.0,-0.0034
3745.0,-0.0034
3744.0,-0.0033
3743.0,-0.0032
3742.0,-0.0032
3741.0,-0.0033
3740.0,-0.0034
3739.0,-0.0035
3738.0,-0.0037
3737.0,-0.004
3736.0,-0.0042
3735.0,-0.0042
3734.0,-0.0044
3733.0,-0.0045
3732.0,-0.0047
3731.0,-0.0047
3730.0,-0.0047
3729.0,-0.0046
3728.0,-0.0045
3727.0,-0.0043
3726.0,-0.0041
3725.0,-0.0039
3724.0,-0.0038
3723.0,-0.0038
3722.0,-0.0037
3721.0,-0.0036
3720.0,-0.0035
3719.0,-0.0033
3718.0,-0.0032
3717.0,-0.0032
3716.0,-0.0032
3715.0,-0.0032
3714.0,-0.0034
3713.0,-0.0035
3712.0,-0.0035
3711.0,-0.0035
3710.0,-0.0036
3709.0,-0.0037
3708.0,-0.0038
3707.0,-0.0038
3706.0,-0.0038
3705.0,-0.0038
3704.0,-0.0038
3703.0,-0.0038
3702.0,-0.0038
3701.0,-0.0038
3700.0,-0.0038
3699.0,-0.0037
3698.0,-0.0036
3697.0,-0.0035
3696.0,-0.0034
3695.0,-0.0033
3694.0,-0.0032
3693.0,-0.0031
3692.0,-0.003
3691.0,-0.0029
3690.0,-0.0027
3689.0,-0.0025
3688.0,-0.0025
3687.0,-0.0025
3686.0,-0.0024
3685.0,-0.0024
3684.0,-0.0023
3683.0,-0.0022
3682.0,-0.0021
3681.0,-0.0021
3680.0,-0.002
3679.0,-0.0018
3678.0,-0.0016
3677.0,-0.0015
3676.0,-0.0014
3675.0,-0.0014
3674.0,-0.0013
3673.0,-0.0013
3672.0,-0.0013
3671.0,-0.0013
3670.0,-0.0011
3669.0,-0.0009
3668.0,-0.0008
3667.0,-0.0008
3666.0,-0.0008
3665.0,-0.0008
3664.0,-0.0007
3663.0,-0.0007
3662.0,-0.0007
3661.0,-0.0007
3660.0,-0.0006
3659.0,-0.0006
3658.0,-0.0005
3657.0,-0.0003
3656.0,-0.0002
3655.0,-0.0001
3654.0,-0.0001
3653.0,-0.0001
3652.0,-0.0002
3651.0,-0.0002
3650.0,-0.0002
3649.0,-0.0001
3648.0,-0.0001
3647.0,-0.0002
3646.0,-0.0002
3645.0,-0.0002
3644.0,-0.0003
3643.0,-0.0003
3642.0,-0.0004
3641.0,-0.0004
3640.0,-0.0005
3639.0,-0.0006
3638.0,-0.0007
3637.0,-0.0008
3636.0,-0.0009
3635.0,-0.001
3634.0,-0.0011
3633.0,-0.0011
3632.0,-0.0009
3631.0,-0.0009
3630.0,-0.001
3629.0,-0.001
3628.0,-0.001
3627.0,-0.001
3626.0,-0.0011
3625.0,-0.0011
3624.0,-0.001
3623.0,-0.0008
3622.0,-0.0005
3621.0,-0.0003
3620.0,-0.0002
3619.0,-0.0001
3618.0,0.0
3617.0,0.0002
3616.0,0.0005
3615.0,0.0007
3614.0,0.0008
3613.0,0.0009
3612.0,0.0009
3611.0,0.0008
3610.0,0.0007
3609.0,0.0005
3608.0,0.0005
3607.0,0.0004
3606.0,0.0004
3605.0,0.0003
3604.0,0.0003
3603.0,0.0003
3602.0,0.0003
3601.0,0.0005
3600.0,0.0007
3599.0,0.001
3598.0,0.0011
3597.0,0.0012
3596.0,0.0012
3595.0,0.0011
3594.0,0.0011
3593.0,0.0012
3592.0,0.0014
3591.0,0.0017
3590.0,0.002
3589.0,0.0023
3588.0,0.0025
3587.0,0.0027
3586.0,0.0027
3585.0,0.0026
3584.0,0.0026
3583.0,0.0026
3582.0,0.0026
3581.0,0.0027
3580.0,0.0027
3579.0,0.0028
3578.0,0.0029
3577.0,0.0029
3576.0,0.003
3575.0,0.0031
3574.0,0.0032
3573.0,0.0034
3572.0,0.0036
3571.0,0.0037
3570.0,0.0038
3569.0,0.0038
3568.0,0.0038
3567.0,0.0039
3566.0,0.004
3565.0,0.0041
3564.0,0.0042
3563.0,0.0043
3562.0,0.0044
3561.0,0.0045
3560.0,0.0046
3559.0,0.0047
3558.0,0.0048
3557.0,0.0049
3556.0,0.0049
3555.0,0.005
3554.0,0.005
3553.0,0.0051
3552.0,0.0052
3551.0,0.0053
3550.0,0.0055
3549.0,0.0056
3548.0,0.0057
3547.0,0.0057
3546.0,0.0057
3545.0,0.0057
3544.0,0.0057
3543.0,0.0057
3542.0,0.0058
3541.0,0.0059
3540.0,0.0059
3539.0,0.006
3538.0,0.006
3537.0,0.006
3536.0,0.0061
3535.0,0.0062
3534.0,0.0063
3533.0,0.0063
3532.0,0.0063
3531.0,0.0064
3530.0,0.0066
3529.0,0.0068
3528.0,0.007
3527.0,0.0071
3526.0,0.0072
3525.0,0.0072
3524.0,0.0073
3523.0,0.0073
3522.0,0.0074
3521.0,0.0075
3520.0,0.0076
3519.0,0.0077
3518.0,0.0078
3517.0,0.0079
3516.0,0.0081
3515.0,0.0081
3514.0,0.0082
3513.0,0.0083
3512.0,0.0085
3511.0,0.0087
3510.0,0.0089
3509.0,0.0092
3508.0,0.0093
3507.0,0.0095
3506.0,0.0095
3505.0,0.0095
3504.0,0.0096
3503.0,0.0096
3502.0,0.0096
3501.0,0.0095
3500.0,0.0095
3499.0,0.0095
3498.0,0.0096
3497.0,0.0097
3496.0,0.0098
3495.0,0.0099
3494.0,0.0099
3493.0,0.0099
3492.0,0.01
3491.0,0.01
3490.0,0.0101
3489.0,0.0101
3488.0,0.0101
3487.0,0.0101
3486.0,0.0101
3485.0,0.01
3484.0,0.01
3483.0,0.0101
3482.0,0.0101
3481.0,0.0102
3480.0,0.0102
3479.0,0.0101
3478.0,0.01
3477.0,0.01
3476.0,0.0099
3475.0,0.01
3474.0,0.0099
3473.0,0.0099
3472.0,0.0098
3471.0,0.0097
3470.0,0.0097
3469.0,0.0098
3468.0,0.0099
3467.0,0.01
3466.0,0.0101
3465.0,0.0101
3464.0,0.0101
3463.0,0.0101
3462.0,0.0102
3461.0,0.0102
3460.0,0.0101
3459.0,0.0101
3458.0,0.01
3457.0,0.01
3456.0,0.0101
3455.0,0.0102
3454.0,0.0103
3453.0,0.0104
3452.0,0.0104
3451.0,0.0105
3450.0,0.0106
3449.0,0.0107
3448.0,0.0108
3447.0,0.0108
3446.0,0.0109
3445.0,0.0108
3444.0,0.0107
3443.0,0.0106
3442.0,0.0106
3441.0,0.0107
3440.0,0.0109
3439.0,0.011
3438.0,0.0111
3437.0,0.0111
3436.0,0.011
3435.0,0.011
3434.0,0.0109
3433.0,0.0109
3432.0,0.0109
3431.0,0.0109
3430.0,0.0109
3429.0,0.0109
3428.0,0.0108
3427.0,0.0108
3426.0,0.0108
3425.0,0.0109
3424.0,0.011
3423.0,0.011
3422.0,0.0111
3421.0,0.0111
3420.0,0.0111
3419.0,0.011
3418.0,0.011
3417.0,0.0108
3416.0,0.0107
3415.0,0.0105
3414.0,0.0103
3413.0,0.0101
3412.0,0.01
3411.0,0.0099
3410.0,0.0099
3409.0,0.01
3408.0,0.01
3407.0,0.01
3406.0,0.01
3405.0,0.0098
3404.0,0.0096
3403.0,0.0095
3402.0,0.0095
3401.0,0.0095
3400.0,0.0095
3399.0,0.0093
3398.0,0.0091
3397.0,0.0089
3396.0,0.0087
3395.0,0.0085
3394.0,0.0084
3393.0,0.0082
3392.0,0.0079
3391.0,0.0077
3390.0,0.0076
3389.0,0.0074
3388.0,0.0072
3387.0,0.007
3386.0,0.0068
3385.0,0.0065
3384.0,0.0063
3383.0,0.0061
3382.0,0.0058
3381.0,0.0056
3380.0,0.0053
3379.0,0.0051
3378.0,0.0048
3377.0,0.0046
3376.0,0.0043
3375.0,0.0041
3374.0,0.0038
3373.0,0.0036
3372.0,0.0033
3371.0,0.003
3370.0,0.0027
3369.0,0.0026
3368.0,0.0026
3367.0,0.0025
3366.0,0.0024
3365.0,0.0022
3364.0,0.002
3363.0,0.0017
3362.0,0.0014
3361.0,0.0011
3360.0,0.0008
3359.0,0.0006
3358.0,0.0003
3357.0,0.0001
3356.0,-0.0001
3355.0,-0.0003
3354.0,-0.0005
3353.0,-0.0007
3352.0,-0.0009
3351.0,-0.0011
3350.0,-0.0012
3349.0,-0.0012
3348.0,-0.0014
3347.0,-0.0015
3346.0,-0.0017
3345.0,-0.0018
3344.0,-0.002
3343.0,-0.002
3342.0,-0.0021
3341.0,-0.0023
3340.0,-0.0024
3339.0,-0.0026
3338.0,-0.0029
3337.0,-0.0031
3336.0,-0.0033
3335.0,-0.0034
3334.0,-0.0035
3333.0,-0.0036
3332.0,-0.0037
3331.0,-0.0038
3330.0,-0.0039
3329.0,-0.0041
3328.0,-0.0042
3327.0,-0.0043
3326.0,-0.0045
3325.0,-0.0046
3324.0,-0.0047
3323.0,-0.0049
3322.0,-0.005
3321.0,-0.0051
3320.0,-0.0052
3319.0,-0.0053
3318.0,-0.0055
3317.0,-0.0056
3316.0,-0.0057
3315.0,-0.0057
3314.0,-0.0058
3313.0,-0.0058
3312.0,-0.0057
3311.0,-0.0057
3310.0,-0.0058
3309.0,-0.006
3308.0,-0.0062
3307.0,-0.0064
3306.0,-0.0065
3305.0,-0.0065
3304.0,-0.0065
3303.0,-0.0065
3302.0,-0.0065
3301.0,-0.0066
3300.0,-0.0067
3299.0,-0.0068
3298.0,-0.0069
3297.0,-0.007
3296.0,-0.0071
3295.0,-0.0071
3294.0,-0.0071
3293.0,-0.0071
3292.0,-0.0072
3291.0,-0.0072
3290.0,-0.0073
3289.0,-0.0073
3288.0,-0.0073
3287.0,-0.0073
3286.0,-0.0074
3285.0,-0.0074
3284.0,-0.0075
3283.0,-0.0075
3282.0,-0.0075
3281.0,-0.0075
3280.0,-0.0075
3279.0,-0.0075
3278.0,-0.0076
3277.0,-0.0076
3276.0,-0.0077
3275.0,-0.0077
3274.0,-0.0078
3273.0,-0.0078
3272.0,-0.0078
3271.0,-0.0078
3270.0,-0.0079
3269.0,-0.0079
3268.0,-0.0079
3267.0,-0.0079
3266.0,-0.008
3265.0,-0.008
3264.0,-0.0081
3263.0,-0.008
3262.0,-0.008
3261.0,-0.0079
3260.0,-0.0078
3259.0,-0.0078
3258.0,-0.0079
3257.0,-0.008
3256.0,-0.0081
3255.0,-0.0082
3254.0,-0.0084
3253.0,-0.0085
3252.0,-0.0085
3251.0,-0.0084
3250.0,-0.0082
3249.0,-0.0081
3248.0,-0.0081
3247.0,-0.0082
3246.0,-0.0083
3245.0,-0.0084
3244.0,-0.0084
3243.0,-0.0084
3242.0,-0.0085
3241.0,-0.0086
3240.0,-0.0087
3239.0,-0.0088
3238.0,-0.0088
3237.0,-0.0089
3236.0,-0.0089
3235.0,-0.009
3234.0,-0.0091
3233.0,-0.0092
3232.0,-0.0092
3231.0,-0.0092
3230.0,-0.0092
3229.0,-0.0092
3228.0,-0.0093
3227.0,-0.0095
3226.0,-0.0097
3225.0,-0.0098
3224.0,-0.0098
3223.0,-0.0098
3222.0,-0.0098
3221.0,-0.0099
3220.0,-0.0099
3219.0,-0.0099
3218.0,-0.0099
3217.0,-0.0099
3216.0,-0.0099
3215.0,-0.0098
3214.0,-0.0099
3213.0,-0.0099
3212.0,-0.01
3211.0,-0.0101
3210.0,-0.0102
3209.0,-0.0102
3208.0,-0.0102
3207.0,-0.0102
3206.0,-0.0102
3205.0,-0.0102
3204.0,-0.0101
3203.0,-0.0101
3202.0,-0.0101
3201.0,-0.0101
3200.0,-0.0101
3199.0,-0.0101
3198.0,-0.0102
3197.0,-0.0103
3196.0,-0.0104
3195.0,-0.0103
3194.0,-0.0103
3193.0,-0.0104
3192.0,-0.0104
3191.0,-0.0104
3190.0,-0.0103
3189.0,-0.0102
3188.0,-0.0101
3187.0,-0.0101
3186.0,-0.0101
3185.0,-0.0101
3184.0,-0.0101
3183.0,-0.01
3182.0,-0.0099
3181.0,-0.0098
3180.0,-0.0097
3179.0,-0.0097
3178.0,-0.0098
3177.0,-0.0098
3176.0,-0.0099
3175.0,-0.0098
3174.0,-0.0097
3173.0,-0.0096
3172.0,-0.0096
3171.0,-0.0097
3170.0,-0.0098
3169.0,-0.0099
3168.0,-0.0098
3167.0,-0.0097
3166.0,-0.0095
3165.0,-0.0094
3164.0,-0.0094
3163.0,-0.0094
3162.0,-0.0094
3161.0,-0.0094
3160.0,-0.0094
3159.0,-0.0094
3158.0,-0.0093
3157.0,-0.0093
3156.0,-0.0092
3155.0,-0.0091
3154.0,-0.009
3153.0,-0.0091
3152.0,-0.0091
3151.0,-0.0091
3150.0,-0.0091
3149.0,-0.0091
3148.0,-0.009
3147.0,-0.009
3146.0,-0.0089
3145.0,-0.0089
3144.0,-0.0088
3143.0,-0.0087
3142.0,-0.0086
3141.0,-0.0086
3140.0,-0.0087
3139.0,-0.0088
3138.0,-0.0088
3137.0,-0.0087
3136.0,-0.0085
3135.0,-0.0083
3134.0,-0.0082
3133.0,-0.0082
3132.0,-0.0082
3131.0,-0.0082
3130.0,-0.0081
3129.0,-0.0081
3128.0,-0.008
3127.0,-0.0081
3126.0,-0.0082
3125.0,-0.0082
3124.0,-0.0082
3123.0,-0.008
3122.0,-0.0079
3121.0,-0.0078
3120.0,-0.0078
3119.0,-0.0078
3118.0,-0.0077
3117.0,-0.0077
3116.0,-0.0076
3115.0,-0.0075
3114.0,-0.0074
3113.0,-0.0074
3112.0,-0.0074
3111.0,-0.0074
3110.0,-0.0075
3109.0,-0.0075
3108.0,-0.0075
3107.0,-0.0074
3106.0,-0.0073
3105.0,-0.0072
3104.0,-0.0072
3103.0,-0.0071
3102.0,-0.0071
3101.0,-0.0069
3100.0,-0.0068
3099.0,-0.0068
3098.0,-0.0068
3097.0,-0.0069
3096.0,-0.0069
3095.0,-0.0069
3094.0,-0.0068
3093.0,-0.0068
3092.0,-0.0068
3091.0,-0.0067
3090.0,-0.0067
3089.0,-0.0066
3088.0,-0.0066
3087.0,-0.0065
3086.0,-0.0064
3085.0,-0.0063
3084.0,-0.0063
3083.0,-0.0063
3082.0,-0.0063
3081.0,-0.0063
3080.0,-0.0062
3079.0,-0.0062
3078.0,-0.0062
3077.0,-0.0061
3076.0,-0.006
3075.0,-0.0059
3074.0,-0.0058
3073.0,-0.0058
3072.0,-0.0059
3071.0,-0.0059
3070.0,-0.006
3069.0,-0.006
3068.0,-0.006
3067.0,-0.006
3066.0,-0.0059
3065.0,-0.0058
3064.0,-0.0057
3063.0,-0.0057
3062.0,-0.0056
3061.0,-0.0055
3060.0,-0.0055
3059.0,-0.0054
3058.0,-0.0054
3057.0,-0.0054
3056.0,-0.0054
3055.0,-0.0054
3054.0,-0.0054
3053.0,-0.0054
3052.0,-0.0053
3051.0,-0.0053
3050.0,-0.0052
3049.0,-0.0052
3048.0,-0.0052
3047.0,-0.0052
3046.0,-0.0051
3045.0,-0.0051
3044.0,-0.0051
3043.0,-0.005
3042.0,-0.005
3041.0,-0.0049
3040.0,-0.0049
3039.0,-0.0049
3038.0,-0.0049
3037.0,-0.0049
3036.0,-0.0048
3035.0,-0.0046
3034.0,-0.0045
3033.0,-0.0044
3032.0,-0.0042
3031.0,-0.004
3030.0,-0.0038
3029.0,-0.0036
3028.0,-0.0034
3027.0,-0.0032
3026.0,-0.003
3025.0,-0.0027
3024.0,-0.0024
3023.0,-0.0021
3022.0,-0.0017
3021.0,-0.0013
3020.0,-0.0009
3019.0,-0.0003
3018.0,0.0003
3017.0,0.001
3016.0,0.0017
3015.0,0.0024
3014.0,0.0032
3013.0,0.004
3012.0,0.0049
3011.0,0.0059
3010.0,0.0068
3009.0,0.0079
3008.0,0.009
3007.0,0.0101
3006.0,0.0114
3005.0,0.0127
3004.0,0.0139
3003.0,0.0151
3002.0,0.0163
3001.0,0.0174
3000.0,0.0184
2999.0,0.0194
2998.0,0.0202
2997.0,0.0208
2996.0,0.0212
2995.0,0.0214
2994.0,0.0213
2993.0,0.021
2992.0,0.0203
2991.0,0.0193
2990.0,0.0181
2989.0,0.0168
2988.0,0.0154
2987.0,0.0141
2986.0,0.0129
2985.0,0.0118
2984.0,0.0108
2983.0,0.0099
2982.0,0.0093
2981.0,0.0087
2980.0,0.0083
2979.0,0.008
2978.0,0.0077
2977.0,0.0075
2976.0,0.0072
2975.0,0.007
2974.0,0.0068
2973.0,0.0067
2972.0,0.0067
2971.0,0.0067
2970.0,0.0068
2969.0,0.0068
2968.0,0.0069
2967.0,0.0071
2966.0,0.0073
2965.0,0.0074
2964.0,0.0077
2963.0,0.0079
2962.0,0.0082
2961.0,0.0085
2960.0,0.0089
2959.0,0.0093
2958.0,0.0098
2957.0,0.0104
2956.0,0.0111
2955.0,0.0119
2954.0,0.0127
2953.0,0.0136
2952.0,0.0145
2951.0,0.0155
2950.0,0.0165
2949.0,0.0175
2948.0,0.0184
2947.0,0.0191
2946.0,0.0196
2945.0,0.0197
2944.0,0.0194
2943.0,0.0188
2942.0,0.0179
2941.0,0.0167
2940.0,0.0155
2939.0,0.0143
2938.0,0.0131
2937.0,0.012
2936.0,0.0111
2935.0,0.0103
2934.0,0.0095
2933.0,0.0089
2932.0,0.0084
2931.0,0.0079
2930.0,0.0074
2929.0,0.007
2928.0,0.0066
2927.0,0.0063
2926.0,0.006
2925.0,0.0056
2924.0,0.0053
2923.0,0.005
2922.0,0.0048
2921.0,0.0045
2920.0,0.0043
2919.0,0.0041
2918.0,0.0039
2917.0,0.0037
2916.0,0.0035
2915.0,0.0033
2914.0,0.0031
2913.0,0.003
2912.0,0.003
2911.0,0.003
2910.0,0.003
2909.0,0.0029
2908.0,0.0029
2907.0,0.0028
2906.0,0.0027
2905.0,0.0027
2904.0,0.0026
2903.0,0.0026
2902.0,0.0025
2901.0,0.0025
2900.0,0.0024
2899.0,0.0025
2898.0,0.0025
2897.0,0.0026
2896.0,0.0026
2895.0,0.0025
2894.0,0.0025
2893.0,0.0024
2892.0,0.0024
2891.0,0.0025
2890.0,0.0026
2889.0,0.0028
2888.0,0.003
2887.0,0.0032
2886.0,0.0035
2885.0,0.0037
2884.0,0.0038
2883.0,0.0039
2882.0,0.004
2881.0,0.004
2880.0,0.004
2879.0,0.0039
2878.0,0.0038
2877.0,0.0035
2876.0,0.0032
2875.0,0.0028
2874.0,0.0025
2873.0,0.0021
2872.0,0.0016
2871.0,0.0013
2870.0,0.001
2869.0,0.0008
2868.0,0.0006
2867.0,0.0005
2866.0,0.0004
2865.0,0.0002
2864.0,0.0001
2863.0,0.0001
2862.0,0.0
2861.0,-0.0
2860.0,-0.0
2859.0,-0.0
2858.0,0.0
2857.0,0.0
2856.0,0.0
2855.0,-0.0
2854.0,-0.0
2853.0,-0.0
2852.0,-0.0001
2851.0,-0.0001
2850.0,-0.0002
2849.0,-0.0003
2848.0,-0.0005
2847.0,-0.0007
2846.0,-0.0009
2845.0,-0.001
2844.0,-0.001
2843.0,-0.0009
2842.0,-0.0009
2841.0,-0.0008
2840.0,-0.0008
2839.0,-0.0009
2838.0,-0.0009
2837.0,-0.001
2836.0,-0.001
2835.0,-0.0011
2834.0,-0.0011
2833.0,-0.0011
2832.0,-0.0011
2831.0,-0.0012
2830.0,-0.0012
2829.0,-0.0012
2828.0,-0.0011
2827.0,-0.0011
2826.0,-0.0011
2825.0,-0.0011
2824.0,-0.0012
2823.0,-0.0012
2822.0,-0.0013
2821.0,-0.0013
2820.0,-0.0014
2819.0,-0.0014
2818.0,-0.0015
2817.0,-0.0015
2816.0,-0.0015
2815.0,-0.0015
2814.0,-0.0016
2813.0,-0.0016
2812.0,-0.0017
2811.0,-0.0017
2810.0,-0.0018
2809.0,-0.0018
2808.0,-0.0018
2807.0,-0.0018
2806.0,-0.0017
2805.0,-0.0017
2804.0,-0.0018
2803.0,-0.0018
2802.0,-0.0019
2801.0,-0.0019
2800.0,-0.0019
2799.0,-0.0019
2798.0,-0.0019
2797.0,-0.0019
2796.0,-0.002
2795.0,-0.0021
2794.0,-0.0022
2793.0,-0.0022
2792.0,-0.0023
2791.0,-0.0023
2790.0,-0.0023
2789.0,-0.0023
2788.0,-0.0023
2787.0,-0.0022
2786.0,-0.0021
2785.0,-0.0021
2784.0,-0.0021
2783.0,-0.0022
2782.0,-0.0022
2781.0,-0.0023
2780.0,-0.0022
2779.0,-0.0022
2778.0,-0.0021
2777.0,-0.0021
2776.0,-0.0022
2775.0,-0.0022
2774.0,-0.0023
2773.0,-0.0024
2772.0,-0.0024
2771.0,-0.0025
2770.0,-0.0025
2769.0,-0.0025
2768.0,-0.0026
2767.0,-0.0026
2766.0,-0.0026
2765.0,-0.0025
2764.0,-0.0025
2763.0,-0.0024
2762.0,-0.0023
2761.0,-0.0023
2760.0,-0.0023
2759.0,-0.0024
2758.0,-0.0024
2757.0,-0.0024
2756.0,-0.0024
2755.0,-0.0024
2754.0,-0.0023
2753.0,-0.0023
2752.0,-0.0023
2751.0,-0.0023
2750.0,-0.0024
2749.0,-0.0024
2748.0,-0.0024
2747.0,-0.0024
2746.0,-0.0024
2745.0,-0.0023
2744.0,-0.0022
2743.0,-0.0023
2742.0,-0.0023
2741.0,-0.0023
2740.0,-0.0023
2739.0,-0.0022
2738.0,-0.0022
2737.0,-0.0022
2736.0,-0.0023
2735.0,-0.0024
2734.0,-0.0025
2733.0,-0.0025
2732.0,-0.0025
2731.0,-0.0024
2730.0,-0.0024
2729.0,-0.0025
2728.0,-0.0025
2727.0,-0.0025
2726.0,-0.0025
2725.0,-0.0025
2724.0,-0.0024
2723.0,-0.0024
2722.0,-0.0024
2721.0,-0.0024
2720.0,-0.0024
2719.0,-0.0024
2718.0,-0.0024
2717.0,-0.0024
2716.0,-0.0024
2715.0,-0.0024
2714.0,-0.0024
2713.0,-0.0025
2712.0,-0.0025
2711.0,-0.0025
2710.0,-0.0024
2709.0,-0.0024
2708.0,-0.0024
2707.0,-0.0024
2706.0,-0.0024
2705.0,-0.0024
2704.0,-0.0024
2703.0,-0.0025
2702.0,-0.0025
2701.0,-0.0025
2700.0,-0.0025
2699.0,-0.0025
2698.0,-0.0024
2697.0,-0.0024
2696.0,-0.0024
2695.0,-0.0024
2694.0,-0.0024
2693.0,-0.0024
2692.0,-0.0024
2691.0,-0.0025
2690.0,-0.0025
2689.0,-0.0025
2688.0,-0.0025
2687.0,-0.0024
2686.0,-0.0024
2685.0,-0.0023
2684.0,-0.0023
2683.0,-0.0023
2682.0,-0.0023
2681.0,-0.0023
2680.0,-0.0023
2679.0,-0.0024
2678.0,-0.0024
2677.0,-0.0023
2676.0,-0.0023
2675.0,-0.0023
2674.0,-0.0023
2673.0,-0.0023
2672.0,-0.0024
2671.0,-0.0024
2670.0,-0.0024
2669.0,-0.0023
2668.0,-0.0023
2667.0,-0.0023
2666.0,-0.0022
2665.0,-0.0022
2664.0,-0.0022
2663.0,-0.0022
2662.0,-0.0022
2661.0,-0.0022
2660.0,-0.0022
2659.0,-0.0022
2658.0,-0.0022
2657.0,-0.0022
2656.0,-0.0021
2655.0,-0.0021
2654.0,-0.0021
2653.0,-0.0021
2652.0,-0.0021
2651.0,-0.0022
2650.0,-0.0022
2649.0,-0.0023
2648.0,-0.0022
2647.0,-0.0022
2646.0,-0.0022
2645.0,-0.0022
2644.0,-0.0022
2643.0,-0.0022
2642.0,-0.0022
2641.0,-0.0021
2640.0,-0.0021
2639.0,-0.0021
2638.0,-0.0021
2637.0,-0.0022
2636.0,-0.0022
2635.0,-0.0022
2634.0,-0.0023
2633.0,-0.0023
2632.0,-0.0022
2631.0,-0.0022
2630.0,-0.0022
2629.0,-0.0021
2628.0,-0.0021
2627.0,-0.0021
2626.0,-0.0021
2625.0,-0.0022
2624.0,-0.0022
2623.0,-0.0022
2622.0,-0.0023
2621.0,-0.0023
2620.0,-0.0023
2619.0,-0.0022
2618.0,-0.0022
2617.0,-0.0023
2616.0,-0.0023
2615.0,-0.0024
2614.0,-0.0024
2613.0,-0.0024
2612.0,-0.0024
2611.0,-0.0023
2610.0,-0.0023
2609.0,-0.0023
2608.0,-0.0023
2607.0,-0.0023
2606.0,-0.0023
2605.0,-0.0023
2604.0,-0.0023
2603.0,-0.0023
2602.0,-0.0024
2601.0,-0.0024
2600.0,-0.0024
2599.0,-0.0024
2598.0,-0.0024
2597.0,-0.0025
2596.0,-0.0025
2595.0,-0.0025
2594.0,-0.0025
2593.0,-0.0025
2592.0,-0.0024
2591.0,-0.0024
2590.0,-0.0024
2589.0,-0.0024
2588.0,-0.0024
2587.0,-0.0024
2586.0,-0.0024
2585.0,-0.0024
2584.0,-0.0024
2583.0,-0.0024
2582.0,-0.0025
2581.0,-0.0025
2580.0,-0.0026
2579.0,-0.0026
2578.0,-0.0025
2577.0,-0.0024
2576.0,-0.0024
2575.0,-0.0024
2574.0,-0.0025
2573.0,-0.0025
2572.0,-0.0025
2571.0,-0.0025
2570.0,-0.0025
2569.0,-0.0025
2568.0,-0.0025
2567.0,-0.0025
2566.0,-0.0026
2565.0,-0.0026
2564.0,-0.0026
2563.0,-0.0026
2562.0,-0.0026
2561.0,-0.0027
2560.0,-0.0027
2559.0,-0.0026
2558.0,-0.0026
2557.0,-0.0027
2556.0,-0.0027
2555.0,-0.0027
2554.0,-0.0027
2553.0,-0.0027
2552.0,-0.0027
2551.0,-0.0027
2550.0,-0.0027
2549.0,-0.0027
2548.0,-0.0026
2547.0,-0.0026
2546.0,-0.0026
2545.0,-0.0026
2544.0,-0.0026
2543.0,-0.0026
2542.0,-0.0026
2541.0,-0.0025
2540.0,-0.0025
2539.0,-0.0025
2538.0,-0.0026
2537.0,-0.0026
2536.0,-0.0027
2535.0,-0.0027
2534.0,-0.0027
2533.0,-0.0027
2532.0,-0.0027
2531.0,-0.0027
2530.0,-0.0027
2529.0,-0.0027
2528.0,-0.0026
2527.0,-0.0027
2526.0,-0.0027
2525.0,-0.0028
2524.0,-0.0027
2523.0,-0.0027
2522.0,-0.0026
2521.0,-0.0026
2520.0,-0.0026
2519.0,-0.0026
2518.0,-0.0026
2517.0,-0.0026
2516.0,-0.0026
2515.0,-0.0026
2514.0,-0.0026
2513.0,-0.0027
2512.0,-0.0028
2511.0,-0.0028
2510.0,-0.0028
2509.0,-0.0028
2508.0,-0.0028
2507.0,-0.0028
2506.0,-0.0028
2505.0,-0.0027
2504.0,-0.0026
2503.0,-0.0026
2502.0,-0.0026
2501.0,-0.0027
2500.0,-0.0027
2499.0,-0.0028
2498.0,-0.0028
2497.0,-0.0028
2496.0,-0.0027
2495.0,-0.0027
2494.0,-0.0027
2493.0,-0.0028
2492.0,-0.0028
2491.0,-0.0028
2490.0,-0.0029
2489.0,-0.0029
2488.0,-0.0029
2487.0,-0.0029
2486.0,-0.0029
2485.0,-0.0029
2484.0,-0.0029
2483.0,-0.0028
2482.0,-0.0028
2481.0,-0.0028
2480.0,-0.0028
2479.0,-0.0029
2478.0,-0.0029
2477.0,-0.003
2476.0,-0.003
2475.0,-0.003
2474.0,-0.003
2473.0,-0.003
2472.0,-0.003
2471.0,-0.003
2470.0,-0.0031
2469.0,-0.0031
2468.0,-0.0031
2467.0,-0.0031
2466.0,-0.0031
2465.0,-0.0031
2464.0,-0.0031
2463.0,-0.0031
2462.0,-0.0031
2461.0,-0.0031
2460.0,-0.0031
2459.0,-0.0031
2458.0,-0.0031
2457.0,-0.0031
2456.0,-0.0031
2455.0,-0.0031
2454.0,-0.0031
2453.0,-0.0032
2452.0,-0.0032
2451.0,-0.0032
2450.0,-0.0032
2449.0,-0.0033
2448.0,-0.0033
2447.0,-0.0032
2446.0,-0.0031
2445.0,-0.003
2444.0,-0.0029
2443.0,-0.0028
2442.0,-0.0027
2441.0,-0.0027
2440.0,-0.0028
2439.0,-0.0029
2438.0,-0.003
2437.0,-0.003
2436.0,-0.0029
2435.0,-0.0029
2434.0,-0.0029
2433.0,-0.0028
2432.0,-0.0028
2431.0,-0.0028
2430.0,-0.0027
2429.0,-0.0026
2428.0,-0.0026
2427.0,-0.0026
2426.0,-0.0025
2425.0,-0.0025
2424.0,-0.0025
2423.0,-0.0025
2422.0,-0.0026
2421.0,-0.0026
2420.0,-0.0026
2419.0,-0.0025
2418.0,-0.0025
2417.0,-0.0025
2416.0,-0.0024
2415.0,-0.0024
2414.0,-0.0023
2413.0,-0.0023
2412.0,-0.0023
2411.0,-0.0023
2410.0,-0.0024
2409.0,-0.0024
2408.0,-0.0024
2407.0,-0.0024
2406.0,-0.0023
2405.0,-0.0022
2404.0,-0.0022
2403.0,-0.0022
2402.0,-0.0022
2401.0,-0.0022
2400.0,-0.0022
2399.0,-0.0023
2398.0,-0.0023
2397.0,-0.0023
2396.0,-0.0023
2395.0,-0.0023
2394.0,-0.0023
2393.0,-0.0023
2392.0,-0.0023
2391.0,-0.0023
2390.0,-0.0023
2389.0,-0.0025
2388.0,-0.0027
2387.0,-0.0031
2386.0,-0.0035
2385.0,-0.0039
2384.0,-0.0044
2383.0,-0.0048
2382.0,-0.0052
2381.0,-0.0054
2380.0,-0.0056
2379.0,-0.0057
2378.0,-0.0059
2377.0,-0.006
2376.0,-0.0062
2375.0,-0.0063
2374.0,-0.0066
2373.0,-0.0069
2372.0,-0.0073
2371.0,-0.0077
2370.0,-0.0083
2369.0,-0.0088
2368.0,-0.009
2367.0,-0.0088
2366.0,-0.0084
2365.0,-0.0083
2364.0,-0.0087
2363.0,-0.0092
2362.0,-0.009
2361.0,-0.0082
2360.0,-0.0078
2359.0,-0.0086
2358.0,-0.0098
2357.0,-0.0106
2356.0,-0.0114
2355.0,-0.0126
2354.0,-0.0135
2353.0,-0.0133
2352.0,-0.0121
2351.0,-0.011
2350.0,-0.0105
2349.0,-0.0108
2348.0,-0.0115
2347.0,-0.0122
2346.0,-0.0124
2345.0,-0.0123
2344.0,-0.0121
2343.0,-0.012
2342.0,-0.0118
2341.0,-0.0114
2340.0,-0.0108
2339.0,-0.0104
2338.0,-0.0102
2337.0,-0.0101
2336.0,-0.0103
2335.0,-0.0105
2334.0,-0.0107
2333.0,-0.0108
2332.0,-0.0109
2331.0,-0.0112
2330.0,-0.0114
2329.0,-0.0114
2328.0,-0.0111
2327.0,-0.0107
2326.0,-0.0103
2325.0,-0.0099
2324.0,-0.0095
2323.0,-0.0091
2322.0,-0.0087
2321.0,-0.0082
2320.0,-0.0078
2319.0,-0.0076
2318.0,-0.0077
2317.0,-0.008
2316.0,-0.0082
2315.0,-0.0084
2314.0,-0.0086
2313.0,-0.0089
2312.0,-0.0091
2311.0,-0.0092
2310.0,-0.009
2309.0,-0.0087
2308.0,-0.0083
2307.0,-0.0079
2306.0,-0.0076
2305.0,-0.0073
2304.0,-0.0073
2303.0,-0.0072
2302.0,-0.0072
2301.0,-0.0071
2300.0,-0.0069
2299.0,-0.0068
2298.0,-0.0067
2297.0,-0.0066
2296.0,-0.0064
2295.0,-0.0063
2294.0,-0.0061
2293.0,-0.0059
2292.0,-0.0057
2291.0,-0.0056
2290.0,-0.0054
2289.0,-0.0052
2288.0,-0.005
2287.0,-0.0049
2286.0,-0.0047
2285.0,-0.0045
2284.0,-0.0045
2283.0,-0.0044
2282.0,-0.0045
2281.0,-0.0046
2280.0,-0.0047
2279.0,-0.0047
2278.0,-0.0047
2277.0,-0.0047
2276.0,-0.0047
2275.0,-0.0047
2274.0,-0.0048
2273.0,-0.0048
2272.0,-0.0048
2271.0,-0.0048
2270.0,-0.0048
2269.0,-0.0048
2268.0,-0.0048
2267.0,-0.0048
2266.0,-0.0048
2265.0,-0.0048
2264.0,-0.0048
2263.0,-0.0048
2262.0,-0.0048
2261.0,-0.0047
2260.0,-0.0047
2259.0,-0.0046
2258.0,-0.0046
2257.0,-0.0045
2256.0,-0.0045
2255.0,-0.0045
2254.0,-0.0045
2253.0,-0.0045
2252.0,-0.0045
2251.0,-0.0044
2250.0,-0.0044
2249.0,-0.0044
2248.0,-0.0043
2247.0,-0.0044
2246.0,-0.0044
2245.0,-0.0043
2244.0,-0.0043
2243.0,-0.0044
2242.0,-0.0044
2241.0,-0.0044
2240.0,-0.0045
2239.0,-0.0045
2238.0,-0.0044
2237.0,-0.0044
2236.0,-0.0044
2235.0,-0.0044
2234.0,-0.0045
2233.0,-0.0045
2232.0,-0.0045
2231.0,-0.0045
2230.0,-0.0045
2229.0,-0.0045
2228.0,-0.0046
2227.0,-0.0046
2226.0,-0.0047
2225.0,-0.0047
2224.0,-0.0048
2223.0,-0.0048
2222.0,-0.0048
2221.0,-0.0048
2220.0,-0.0048
2219.0,-0.0048
2218.0,-0.0048
2217.0,-0.0048
2216.0,-0.0048
2215.0,-0.0049
2214.0,-0.0049
2213.0,-0.005
2212.0,-0.005
2211.0,-0.005
2210.0,-0.005
2209.0,-0.005
2208.0,-0.005
2207.0,-0.005
2206.0,-0.005
2205.0,-0.0051
2204.0,-0.0051
2203.0,-0.0051
2202.0,-0.0052
2201.0,-0.0053
2200.0,-0.0054
2199.0,-0.0054
2198.0,-0.0053
2197.0,-0.0053
2196.0,-0.0052
2195.0,-0.0052
2194.0,-0.0051
2193.0,-0.0051
2192.0,-0.0052
2191.0,-0.0052
2190.0,-0.0052
2189.0,-0.0052
2188.0,-0.0052
2187.0,-0.0052
2186.0,-0.0051
2185.0,-0.0051
2184.0,-0.0052
2183.0,-0.0052
2182.0,-0.0052
2181.0,-0.0052
2180.0,-0.0052
2179.0,-0.0052
2178.0,-0.0052
2177.0,-0.0052
2176.0,-0.0052
2175.0,-0.0052
2174.0,-0.0052
2173.0,-0.0052
2172.0,-0.0053
2171.0,-0.0053
2170.0,-0.0053
2169.0,-0.0053
2168.0,-0.0053
2167.0,-0.0053
2166.0,-0.0053
2165.0,-0.0053
2164.0,-0.0053
2163.0,-0.0053
2162.0,-0.0054
2161.0,-0.0054
2160.0,-0.0054
2159.0,-0.0054
2158.0,-0.0054
2157.0,-0.0054
2156.0,-0.0054
2155.0,-0.0053
2154.0,-0.0053
2153.0,-0.0053
2152.0,-0.0053
2151.0,-0.0053
2150.0,-0.0053
2149.0,-0.0053
2148.0,-0.0053
2147.0,-0.0053
2146.0,-0.0052
2145.0,-0.0052
2144.0,-0.0051
2143.0,-0.0051
2142.0,-0.0051
2141.0,-0.0051
2140.0,-0.0051
2139.0,-0.0051
2138.0,-0.005
2137.0,-0.005
2136.0,-0.005
2135.0,-0.005
2134.0,-0.005
2133.0,-0.005
2132.0,-0.005
2131.0,-0.005
2130.0,-0.005
2129.0,-0.0049
2128.0,-0.0049
2127.0,-0.0049
2126.0,-0.0048
2125.0,-0.0048
2124.0,-0.0048
2123.0,-0.0048
2122.0,-0.0048
2121.0,-0.0048
2120.0,-0.0048
2119.0,-0.0048
2118.0,-0.0048
2117.0,-0.0049
2116.0,-0.0049
2115.0,-0.0049
2114.0,-0.005
2113.0,-0.005
2112.0,-0.0051
2111.0,-0.0051
2110.0,-0.0051
2109.0,-0.0052
2108.0,-0.0052
2107.0,-0.0052
2106.0,-0.0051
2105.0,-0.0051
2104.0,-0.0051
2103.0,-0.005
2102.0,-0.005
2101.0,-0.005
2100.0,-0.005
2099.0,-0.005
2098.0,-0.005
2097.0,-0.0049
2096.0,-0.0049
2095.0,-0.0048
2094.0,-0.0048
2093.0,-0.0047
2092.0,-0.0047
2091.0,-0.0048
2090.0,-0.0048
2089.0,-0.0047
2088.0,-0.0047
2087.0,-0.0047
2086.0,-0.0047
2085.0,-0.0047
2084.0,-0.0048
2083.0,-0.0048
2082.0,-0.0048
2081.0,-0.0049
2080.0,-0.0049
2079.0,-0.0049
2078.0,-0.005
2077.0,-0.005
2076.0,-0.0051
2075.0,-0.0051
2074.0,-0.0051
2073.0,-0.0051
2072.0,-0.0051
2071.0,-0.0051
2070.0,-0.0052
2069.0,-0.0052
2068.0,-0.0053
2067.0,-0.0054
2066.0,-0.0054
2065.0,-0.0054
2064.0,-0.0054
2063.0,-0.0055
2062.0,-0.0055
2061.0,-0.0055
2060.0,-0.0056
2059.0,-0.0057
2058.0,-0.0057
2057.0,-0.0058
2056.0,-0.0058
2055.0,-0.0059
2054.0,-0.0059
2053.0,-0.0059
2052.0,-0.006
2051.0,-0.0061
2050.0,-0.0062
2049.0,-0.0063
2048.0,-0.0064
2047.0,-0.0065
2046.0,-0.0065
2045.0,-0.0066
2044.0,-0.0066
2043.0,-0.0067
2042.0,-0.0068
2041.0,-0.0068
2040.0,-0.0068
2039.0,-0.0069
2038.0,-0.0069
2037.0,-0.007
2036.0,-0.007
2035.0,-0.007
2034.0,-0.007
2033.0,-0.007
2032.0,-0.0071
2031.0,-0.0071
2030.0,-0.0071
2029.0,-0.0071
2028.0,-0.0071
2027.0,-0.0071
2026.0,-0.0071
2025.0,-0.007
2024.0,-0.0071
2023.0,-0.0071
2022.0,-0.0071
2021.0,-0.0071
2020.0,-0.0071
2019.0,-0.0071
2018.0,-0.0071
2017.0,-0.0071
2016.0,-0.0071
2015.0,-0.0071
2014.0,-0.0071
2013.0,-0.0071
2012.0,-0.007
2011.0,-0.007
2010.0,-0.0069
2009.0,-0.0069
2008.0,-0.0069
2007.0,-0.0069
2006.0,-0.0069
2005.0,-0.007
2004.0,-0.007
2003.0,-0.007
2002.0,-0.0069
2001.0,-0.0069
2000.0,-0.0069
1999.0,-0.0069
1998.0,-0.0069
1997.0,-0.0069
1996.0,-0.007
1995.0,-0.007
1994.0,-0.007
1993.0,-0.007
1992.0,-0.0071
1991.0,-0.0071
1990.0,-0.0071
1989.0,-0.0071
1988.0,-0.0071
1987.0,-0.0071
1986.0,-0.0071
1985.0,-0.007
1984.0,-0.007
1983.0,-0.007
1982.0,-0.007
1981.0,-0.007
1980.0,-0.007
1979.0,-0.007
1978.0,-0.0069
1977.0,-0.0069
1976.0,-0.0068
1975.0,-0.0068
1974.0,-0.0068
1973.0,-0.0068
1972.0,-0.0068
1971.0,-0.0068
1970.0,-0.0068
1969.0,-0.0068
1968.0,-0.0068
1967.0,-0.0068
1966.0,-0.0069
1965.0,-0.0069
1964.0,-0.0069
1963.0,-0.007
1962.0,-0.007
1961.0,-0.007
1960.0,-0.0071
1959.0,-0.0071
1958.0,-0.0071
1957.0,-0.0072
1956.0,-0.0073
1955.0,-0.0074
1954.0,-0.0074
1953.0,-0.0075
1952.0,-0.0075
1951.0,-0.0075
1950.0,-0.0075
1949.0,-0.0076
1948.0,-0.0076
1947.0,-0.0077
1946.0,-0.0078
1945.0,-0.0079
1944.0,-0.008
1943.0,-0.0081
1942.0,-0.0082
1941.0,-0.0082
1940.0,-0.0082
1939.0,-0.0082
1938.0,-0.0083
1937.0,-0.0083
1936.0,-0.0084
1935.0,-0.0084
1934.0,-0.0084
1933.0,-0.0084
1932.0,-0.0084
1931.0,-0.0084
1930.0,-0.0084
1929.0,-0.0084
1928.0,-0.0084
1927.0,-0.0084
1926.0,-0.0084
1925.0,-0.0084
1924.0,-0.0085
1923.0,-0.0085
1922.0,-0.0085
1921.0,-0.0085
1920.0,-0.0084
1919.0,-0.0084
1918.0,-0.0085
1917.0,-0.0085
1916.0,-0.0085
1915.0,-0.0084
1914.0,-0.0084
1913.0,-0.0084
1912.0,-0.0084
1911.0,-0.0084
1910.0,-0.0085
1909.0,-0.0085
1908.0,-0.0086
1907.0,-0.0086
1906.0,-0.0086
1905.0,-0.0085
1904.0,-0.0085
1903.0,-0.0085
1902.0,-0.0085
1901.0,-0.0085
1900.0,-0.0086
1899.0,-0.0086
1898.0,-0.0086
1897.0,-0.0087
1896.0,-0.0087
1895.0,-0.0087
1894.0,-0.0088
1893.0,-0.0088
1892.0,-0.0087
1891.0,-0.0088
1890.0,-0.0088
1889.0,-0.0088
1888.0,-0.0088
1887.0,-0.0087
1886.0,-0.0087
1885.0,-0.0087
1884.0,-0.0088
1883.0,-0.0088
1882.0,-0.0088
1881.0,-0.0087
1880.0,-0.0087
1879.0,-0.0087
1878.0,-0.0088
1877.0,-0.0088
1876.0,-0.0088
1875.0,-0.0088
1874.0,-0.0088
1873.0,-0.0088
1872.0,-0.0088
1871.0,-0.0088
1870.0,-0.0088
1869.0,-0.0088
1868.0,-0.0088
1867.0,-0.0087
1866.0,-0.0087
1865.0,-0.0086
1864.0,-0.0085
1863.0,-0.0085
1862.0,-0.0084
1861.0,-0.0083
1860.0,-0.0082
1859.0,-0.0081
1858.0,-0.0081
1857.0,-0.0081
1856.0,-0.008
1855.0,-0.0079
1854.0,-0.0079
1853.0,-0.0078
1852.0,-0.0076
1851.0,-0.0075
1850.0,-0.0074
1849.0,-0.0073
1848.0,-0.0071
1847.0,-0.007
1846.0,-0.0069
1845.0,-0.0069
1844.0,-0.0068
1843.0,-0.0067
1842.0,-0.0065
1841.0,-0.0062
1840.0,-0.006
1839.0,-0.0058
1838.0,-0.0057
1837.0,-0.0054
1836.0,-0.0051
1835.0,-0.0048
1834.0,-0.0045
1833.0,-0.0042
1832.0,-0.0039
1831.0,-0.0037
1830.0,-0.0036
1829.0,-0.0034
1828.0,-0.0031
1827.0,-0.0027
1826.0,-0.0025
1825.0,-0.0022
1824.0,-0.0018
1823.0,-0.0015
1822.0,-0.0013
1821.0,-0.0011
1820.0,-0.0008
1819.0,-0.0005
1818.0,-0.0004
1817.0,-0.0001
1816.0,0.0002
1815.0,0.0005
1814.0,0.0008
1813.0,0.0011
1812.0,0.0015
1811.0,0.0018
1810.0,0.002
1809.0,0.0024
1808.0,0.0028
1807.0,0.0032
1806.0,0.0035
1805.0,0.0039
1804.0,0.0044
1803.0,0.0049
1802.0,0.0054
1801.0,0.0062
1800.0,0.0072
1799.0,0.008
1798.0,0.0087
1797.0,0.0096
1796.0,0.0107
1795.0,0.0119
1794.0,0.0131
1793.0,0.015
1792.0,0.0178
1791.0,0.0206
1790.0,0.0233
1789.0,0.0262
1788.0,0.0295
1787.0,0.0334
1786.0,0.038
1785.0,0.0435
1784.0,0.0492
1783.0,0.0547
1782.0,0.0605
1781.0,0.0675
1780.0,0.0749
1779.0,0.0816
1778.0,0.0874
1777.0,0.0932
1776.0,0.0991
1775.0,0.1046
1774.0,0.1106
1773.0,0.119
1772.0,0.129
1771.0,0.1375
1770.0,0.1447
1769.0,0.1533
1768.0,0.1642
1767.0,0.1756
1766.0,0.1862
1765.0,0.1968
1764.0,0.2095
1763.0,0.226
1762.0,0.2465
1761.0,0.2674
1760.0,0.2849
1759.0,0.3
1758.0,0.3167
1757.0,0.3367
1756.0,0.3551
1755.0,0.3672
1754.0,0.3749
1753.0,0.3824
1752.0,0.3909
1751.0,0.398
1750.0,0.4026
1749.0,0.4053
1748.0,0.4045
1747.0,0.399
1746.0,0.3903
1745.0,0.3792
1744.0,0.3649
1743.0,0.3478
1742.0,0.3292
1741.0,0.3084
1740.0,0.2843
1739.0,0.261
1738.0,0.243
1737.0,0.2288
1736.0,0.2135
1735.0,0.1926
1734.0,0.1707
1733.0,0.1558
1732.0,0.146
1731.0,0.1373
1730.0,0.129
1729.0,0.1215
1728.0,0.115
1727.0,0.1095
1726.0,0.1048
1725.0,0.1004
1724.0,0.0961
1723.0,0.0922
1722.0,0.0892
1721.0,0.0867
1720.0,0.0837
1719.0,0.0802
1718.0,0.0768
1717.0,0.0737
1716.0,0.0706
1715.0,0.0677
1714.0,0.0653
1713.0,0.0631
1712.0,0.0606
1711.0,0.0581
1710.0,0.0559
1709.0,0.0539
1708.0,0.0518
1707.0,0.0496
1706.0,0.0474
1705.0,0.0456
1704.0,0.0439
1703.0,0.0424
1702.0,0.0409
1701.0,0.0394
1700.0,0.0377
1699.0,0.0365
1698.0,0.0358
1697.0,0.0349
1696.0,0.0337
1695.0,0.0326
1694.0,0.0319
1693.0,0.0313
1692.0,0.0305
1691.0,0.0296
1690.0,0.0288
1689.0,0.0281
1688.0,0.0275
1687.0,0.0269
1686.0,0.0264
1685.0,0.0259
1684.0,0.0255
1683.0,0.0251
1682.0,0.0247
1681.0,0.0243
1680.0,0.0238
1679.0,0.0232
1678.0,0.0228
1677.0,0.0224
1676.0,0.0219
1675.0,0.0215
1674.0,0.0213
1673.0,0.021
1672.0,0.0206
1671.0,0.0202
1670.0,0.02
1669.0,0.0198
1668.0,0.0195
1667.0,0.0191
1666.0,0.0188
1665.0,0.0185
1664.0,0.0181
1663.0,0.0177
1662.0,0.0175
1661.0,0.0173
1660.0,0.0169
1659.0,0.0164
1658.0,0.0161
1657.0,0.0157
1656.0,0.0155
1655.0,0.0152
1654.0,0.015
1653.0,0.0151
1652.0,0.0149
1651.0,0.0146
1650.0,0.0145
1649.0,0.0144
1648.0,0.0142
1647.0,0.0141
1646.0,0.0142
1645.0,0.0142
1644.0,0.014
1643.0,0.0138
1642.0,0.0137
1641.0,0.0135
1640.0,0.0133
1639.0,0.0129
1638.0,0.0125
1637.0,0.0119
1636.0,0.0112
1635.0,0.0109
1634.0,0.0107
1633.0,0.0105
1632.0,0.0103
1631.0,0.01
1630.0,0.0097
1629.0,0.0095
1628.0,0.0093
1627.0,0.0091
1626.0,0.0089
1625.0,0.0087
1624.0,0.0085
1623.0,0.0083
1622.0,0.0082
1621.0,0.0081
1620.0,0.008
1619.0,0.0078
1618.0,0.0076
1617.0,0.0074
1616.0,0.0072
1615.0,0.0071
1614.0,0.007
1613.0,0.0069
1612.0,0.0068
1611.0,0.0066
1610.0,0.0065
1609.0,0.0063
1608.0,0.0062
1607.0,0.006
1606.0,0.006
1605.0,0.0058
1604.0,0.0057
1603.0,0.0055
1602.0,0.0054
1601.0,0.0052
1600.0,0.0051
1599.0,0.005
1598.0,0.0049
1597.0,0.0049
1596.0,0.0047
1595.0,0.0046
1594.0,0.0045
1593.0,0.0044
1592.0,0.0043
1591.0,0.0042
1590.0,0.0041
1589.0,0.004
1588.0,0.004
1587.0,0.0039
1586.0,0.0038
1585.0,0.0037
1584.0,0.0036
1583.0,0.0035
1582.0,0.0034
1581.0,0.0033
1580.0,0.0032
1579.0,0.0032
1578.0,0.003
1577.0,0.0029
1576.0,0.0027
1575.0,0.0026
1574.0,0.0025
1573.0,0.0025
1572.0,0.0024
1571.0,0.0023
1570.0,0.0022
1569.0,0.0021
1568.0,0.0021
1567.0,0.0021
1566.0,0.0021
1565.0,0.0021
1564.0,0.002
1563.0,0.002
1562.0,0.002
1561.0,0.002
1560.0,0.0021
1559.0,0.002
1558.0,0.0016
1557.0,0.0014
1556.0,0.0014
1555.0,0.0014
1554.0,0.0014
1553.0,0.0014
1552.0,0.0014
1551.0,0.0013
1550.0,0.0013
1549.0,0.0013
1548.0,0.0013
1547.0,0.0012
1546.0,0.0012
1545.0,0.0011
1544.0,0.0012
1543.0,0.0012
1542.0,0.0011
1541.0,0.0011
1540.0,0.0012
1539.0,0.0012
1538.0,0.0011
1537.0,0.001
1536.0,0.001
1535.0,0.001
1534.0,0.0008
1533.0,0.0009
1532.0,0.001
1531.0,0.001
1530.0,0.0009
1529.0,0.0009
1528.0,0.0008
1527.0,0.0007
1526.0,0.0005
1525.0,0.0005
1524.0,0.0005
1523.0,0.0005
1522.0,0.0004
1521.0,0.0003
1520.0,0.0004
1519.0,0.0003
1518.0,0.0002
1517.0,0.0002
1516.0,0.0003
1515.0,0.0003
1514.0,0.0002
1513.0,0.0001
1512.0,0.0001
1511.0,0.0001
1510.0,-0.0
1509.0,-0.0
1508.0,-0.0
1507.0,-0.0001
1506.0,-0.0003
1505.0,-0.0002
1504.0,-0.0
1503.0,0.0001
1502.0,0.0
1501.0,0.0
1500.0,0.0001
1499.0,0.0
1498.0,-0.0001
1497.0,-0.0001
1496.0,-0.0001
1495.0,-0.0001
1494.0,-0.0001
1493.0,-0.0001
1492.0,0.0
1491.0,-0.0
1490.0,-0.0002
1489.0,-0.0002
1488.0,-0.0
1487.0,0.0001
1486.0,0.0001
1485.0,0.0003
1484.0,0.0006
1483.0,0.0008
1482.0,0.001
1481.0,0.0014
1480.0,0.0018
1479.0,0.0022
1478.0,0.0026
1477.0,0.0033
1476.0,0.0042
1475.0,0.0051
1474.0,0.0064
1473.0,0.0089
1472.0,0.0121
1471.0,0.0149
1470.0,0.0176
1469.0,0.0206
1468.0,0.024
1467.0,0.0283
1466.0,0.0341
1465.0,0.0418
1464.0,0.0498
1463.0,0.0562
1462.0,0.0615
1461.0,0.0663
1460.0,0.0712
1459.0,0.0768
1458.0,0.0849
1457.0,0.0943
1456.0,0.1002
1455.0,0.1027
1454.0,0.1041
1453.0,0.1052
1452.0,0.1057
1451.0,0.1054
1450.0,0.1045
1449.0,0.1024
1448.0,0.099
1447.0,0.0945
1446.0,0.0894
1445.0,0.0836
1444.0,0.0768
1443.0,0.0692
1442.0,0.0616
1441.0,0.0545
1440.0,0.0482
1439.0,0.0426
1438.0,0.0371
1437.0,0.0312
1436.0,0.0261
1435.0,0.0231
1434.0,0.0211
1433.0,0.0193
1432.0,0.0175
1431.0,0.0158
1430.0,0.0143
1429.0,0.013
1428.0,0.0119
1427.0,0.0112
1426.0,0.0105
1425.0,0.0096
1424.0,0.0088
1423.0,0.0082
1422.0,0.0077
1421.0,0.0072
1420.0,0.0066
1419.0,0.0062
1418.0,0.006
1417.0,0.0058
1416.0,0.0056
1415.0,0.0056
1414.0,0.0055
1413.0,0.0053
1412.0,0.0052
1411.0,0.0052
1410.0,0.0053
1409.0,0.0053
1408.0,0.0054
1407.0,0.0056
1406.0,0.006
1405.0,0.0063
1404.0,0.0068
1403.0,0.0075
1402.0,0.0082
1401.0,0.009
1400.0,0.0104
1399.0,0.0124
1398.0,0.0147
1397.0,0.0173
1396.0,0.021
1395.0,0.0261
1394.0,0.0318
1393.0,0.0371
1392.0,0.0421
1391.0,0.0472
1390.0,0.0525
1389.0,0.0583
1388.0,0.0652
1387.0,0.0725
1386.0,0.0786
1385.0,0.083
1384.0,0.0861
1383.0,0.0882
1382.0,0.089
1381.0,0.0883
1380.0,0.0861
1379.0,0.0828
1378.0,0.0788
1377.0,0.0748
1376.0,0.0714
1375.0,0.0692
1374.0,0.0687
1373.0,0.07
1372.0,0.0721
1371.0,0.0747
1370.0,0.0774
1369.0,0.08
1368.0,0.0822
1367.0,0.0838
1366.0,0.0849
1365.0,0.0857
1364.0,0.0866
1363.0,0.0878
1362.0,0.0889
1361.0,0.0898
1360.0,0.0903
1359.0,0.0904
1358.0,0.0901
1357.0,0.0894
1356.0,0.0881
1355.0,0.0865
1354.0,0.0845
1353.0,0.0823
1352.0,0.0798
1351.0,0.0771
1350.0,0.0743
1349.0,0.0714
1348.0,0.0687
1347.0,0.0662
1346.0,0.0638
1345.0,0.0615
1344.0,0.0594
1343.0,0.0574
1342.0,0.0555
1341.0,0.0537
1340.0,0.052
1339.0,0.0505
1338.0,0.0493
1337.0,0.0482
1336.0,0.0472
1335.0,0.0462
1334.0,0.0453
1333.0,0.0444
1332.0,0.0436
1331.0,0.0429
1330.0,0.0422
1329.0,0.0417
1328.0,0.0414
1327.0,0.0411
1326.0,0.0409
1325.0,0.0408
1324.0,0.0407
1323.0,0.0407
1322.0,0.0406
1321.0,0.0405
1320.0,0.0405
1319.0,0.0405
1318.0,0.0404
1317.0,0.0404
1316.0,0.0403
1315.0,0.0404
1314.0,0.0404
1313.0,0.0404
1312.0,0.0405
1311.0,0.0406
1310.0,0.0406
1309.0,0.0407
1308.0,0.0408
1307.0,0.0408
1306.0,0.0407
1305.0,0.0406
1304.0,0.0405
1303.0,0.0403
1302.0,0.0401
1301.0,0.0397
1300.0,0.0393
1299.0,0.0386
1298.0,0.0378
1297.0,0.0368
1296.0,0.0357
1295.0,0.0345
1294.0,0.0333
1293.0,0.0323
1292.0,0.0316
1291.0,0.0313
1290.0,0.0315
1289.0,0.0322
1288.0,0.0335
1287.0,0.0355
1286.0,0.038
1285.0,0.0409
1284.0,0.0442
1283.0,0.0478
1282.0,0.0517
1281.0,0.0556
1280.0,0.0596
1279.0,0.0636
1278.0,0.0675
1277.0,0.0712
1276.0,0.0747
1275.0,0.0779
1274.0,0.0808
1273.0,0.0834
1272.0,0.0857
1271.0,0.0877
1270.0,0.0892
1269.0,0.0904
1268.0,0.0911
1267.0,0.0915
1266.0,0.0914
1265.0,0.091
1264.0,0.0903
1263.0,0.0894
1262.0,0.0883
1261.0,0.0869
1260.0,0.0855
1259.0,0.0839
1258.0,0.0823
1257.0,0.0806
1256.0,0.0791
1255.0,0.0776
1254.0,0.0763
1253.0,0.0751
1252.0,0.0741
1251.0,0.0732
1250.0,0.0724
1249.0,0.0718
1248.0,0.0714
1247.0,0.0712
1246.0,0.0712
1245.0,0.0713
1244.0,0.0715
1243.0,0.0719
1242.0,0.0724
1241.0,0.073
1240.0,0.0738
1239.0,0.0748
1238.0,0.0759
1237.0,0.0772
1236.0,0.0786
1235.0,0.0803
1234.0,0.0821
1233.0,0.0842
1232.0,0.0866
1231.0,0.0894
1230.0,0.0925
1229.0,0.0958
1228.0,0.0994
1227.0,0.1033
1226.0,0.1075
1225.0,0.1119
1224.0,0.1167
1223.0,0.1217
1222.0,0.1269
1221.0,0.1322
1220.0,0.1377
1219.0,0.1433
1218.0,0.1489
1217.0,0.1545
1216.0,0.1599
1215.0,0.1652
1214.0,0.1701
1213.0,0.1746
1212.0,0.1786
1211.0,0.1821
1210.0,0.1851
1209.0,0.1875
1208.0,0.1895
1207.0,0.1912
1206.0,0.1927
1205.0,0.1939
1204.0,0.1951
1203.0,0.1965
1202.0,0.1982
1201.0,0.2002
1200.0,0.2026
1199.0,0.2057
1198.0,0.2094
1197.0,0.2138
1196.0,0.2191
1195.0,0.2253
1194.0,0.2326
1193.0,0.2409
1192.0,0.2506
1191.0,0.2618
1190.0,0.2744
1189.0,0.2884
1188.0,0.3036
1187.0,0.3201
1186.0,0.3372
1185.0,0.3541
1184.0,0.3697
1183.0,0.3828
1182.0,0.3913
1181.0,0.3935
1180.0,0.3882
1179.0,0.3749
1178.0,0.3547
1177.0,0.3294
1176.0,0.3014
1175.0,0.2729
1174.0,0.2455
1173.0,0.2203
1172.0,0.1977
1171.0,0.1778
1170.0,0.1604
1169.0,0.1453
1168.0,0.1322
1167.0,0.121
1166.0,0.1113
1165.0,0.1029
1164.0,0.0956
1163.0,0.0893
1162.0,0.0838
1161.0,0.079
1160.0,0.0747
1159.0,0.0711
1158.0,0.0682
1157.0,0.0658
1156.0,0.0639
1155.0,0.0625
1154.0,0.0617
1153.0,0.0615
1152.0,0.062
1151.0,0.0633
1150.0,0.0655
1149.0,0.0688
1148.0,0.0731
1147.0,0.0786
1146.0,0.0854
1145.0,0.0935
1144.0,0.1029
1143.0,0.1134
1142.0,0.1249
1141.0,0.1372
1140.0,0.1498
1139.0,0.1625
1138.0,0.1751
1137.0,0.1872
1136.0,0.1986
1135.0,0.2091
1134.0,0.2186
1133.0,0.2271
1132.0,0.2347
1131.0,0.2412
1130.0,0.2465
1129.0,0.2501
1128.0,0.2517
1127.0,0.2512
1126.0,0.2485
1125.0,0.2438
1124.0,0.2378
1123.0,0.2311
1122.0,0.2244
1121.0,0.218
1120.0,0.2125
1119.0,0.2079
1118.0,0.2042
1117.0,0.2014
1116.0,0.1995
1115.0,0.1986
1114.0,0.1987
1113.0,0.2001
1112.0,0.2028
1111.0,0.207
1110.0,0.2128
1109.0,0.22
1108.0,0.2285
1107.0,0.2383
1106.0,0.2489
1105.0,0.2603
1104.0,0.2722
1103.0,0.2845
1102.0,0.2972
1101.0,0.3101
1100.0,0.3233
1099.0,0.3367
1098.0,0.3503
1097.0,0.364
1096.0,0.378
1095.0,0.3922
1094.0,0.4067
1093.0,0.4216
1092.0,0.4367
1091.0,0.4519
1090.0,0.467
1089.0,0.4815
1088.0,0.4952
1087.0,0.5079
1086.0,0.5189
1085.0,0.5274
1084.0,0.5329
1083.0,0.5351
1082.0,0.5343
1081.0,0.5303
1080.0,0.5234
1079.0,0.514
1078.0,0.5022
1077.0,0.4881
1076.0,0.4719
1075.0,0.4541
1074.0,0.4351
1073.0,0.4152
1072.0,0.3948
1071.0,0.3744
1070.0,0.3543
1069.0,0.3349
1068.0,0.3165
1067.0,0.2997
1066.0,0.2847
1065.0,0.2717
1064.0,0.261
1063.0,0.2526
1062.0,0.2466
1061.0,0.2431
1060.0,0.2417
1059.0,0.242
1058.0,0.2437
1057.0,0.2462
1056.0,0.2493
1055.0,0.2526
1054.0,0.256
1053.0,0.2596
1052.0,0.2633
1051.0,0.2672
1050.0,0.2712
1049.0,0.2754
1048.0,0.2794
1047.0,0.2829
1046.0,0.2858
1045.0,0.2877
1044.0,0.2885
1043.0,0.2879
1042.0,0.2859
1041.0,0.2824
1040.0,0.2774
1039.0,0.2712
1038.0,0.264
1037.0,0.2561
1036.0,0.2478
1035.0,0.2395
1034.0,0.2314
1033.0,0.224
1032.0,0.2172
1031.0,0.2111
1030.0,0.2058
1029.0,0.201
1028.0,0.1966
1027.0,0.1925
1026.0,0.1886
1025.0,0.1846
1024.0,0.1803
1023.0,0.1756
1022.0,0.1705
1021.0,0.165
1020.0,0.1593
1019.0,0.1533
1018.0,0.1474
1017.0,0.1416
1016.0,0.136
1015.0,0.1307
1014.0,0.1257
1013.0,0.121
1012.0,0.1167
1011.0,0.1128
1010.0,0.1091
1009.0,0.1058
1008.0,0.1028
1007.0,0.1002
1006.0,0.0978
1005.0,0.0956
1004.0,0.0935
1003.0,0.0916
1002.0,0.0898
1001.0,0.0881
1000.0,0.0866
999.0,0.0852
998.0,0.0839
997.0,0.0827
996.0,0.0815
995.0,0.0804
994.0,0.0793
993.0,0.0783
992.0,0.0772
991.0,0.0762
990.0,0.0752
989.0,0.0742
988.0,0.0733
987.0,0.0725
986.0,0.0716
985.0,0.0708
984.0,0.0699
983.0,0.0691
982.0,0.0683
981.0,0.0676
980.0,0.0669
979.0,0.0662
978.0,0.0655
977.0,0.0648
976.0,0.0642
975.0,0.0635
974.0,0.0629
973.0,0.0623
972.0,0.0617
971.0,0.0612
970.0,0.0607
969.0,0.0603
968.0,0.06
967.0,0.0599
966.0,0.0601
965.0,0.0607
964.0,0.0616
963.0,0.0628
962.0,0.0643
961.0,0.066
960.0,0.0678
959.0,0.0695
958.0,0.0708
957.0,0.0716
956.0,0.0719
955.0,0.0717
954.0,0.0711
953.0,0.0703
952.0,0.0693
951.0,0.0683
950.0,0.0672
949.0,0.0662
948.0,0.0653
947.0,0.0644
946.0,0.0636
945.0,0.0628
944.0,0.0621
943.0,0.0615
942.0,0.0609
941.0,0.0604
940.0,0.06
939.0,0.0596
938.0,0.0592
937.0,0.0589
936.0,0.0586
935.0,0.0584
934.0,0.0582
933.0,0.0581
932.0,0.0579
931.0,0.0578
930.0,0.0576
929.0,0.0575
928.0,0.0574
927.0,0.0575
926.0,0.0575
925.0,0.0577
924.0,0.0577
923.0,0.0578
922.0,0.0578
921.0,0.0578
920.0,0.0579
919.0,0.0579
918.0,0.0578
917.0,0.0578
916.0,0.0577
915.0,0.0576
914.0,0.0574
913.0,0.0572
912.0,0.057
911.0,0.0568
910.0,0.0566
909.0,0.0565
908.0,0.0564
907.0,0.0564
906.0,0.0564
905.0,0.0565
904.0,0.0565
903.0,0.0565
902.0,0.0565
901.0,0.0566
900.0,0.0566
899.0,0.0567
898.0,0.0567
897.0,0.0567
896.0,0.0568
895.0,0.0567
894.0,0.0566
893.0,0.0563
892.0,0.0558
891.0,0.0551
890.0,0.0542
889.0,0.0534
888.0,0.0526
887.0,0.052
886.0,0.0518
885.0,0.0521
884.0,0.053
883.0,0.0545
882.0,0.0566
881.0,0.0594
880.0,0.0628
879.0,0.0666
878.0,0.0708
877.0,0.0752
876.0,0.0797
875.0,0.084
874.0,0.088
873.0,0.0915
872.0,0.0946
871.0,0.097
870.0,0.0989
869.0,0.1001
868.0,0.1008
867.0,0.101
866.0,0.1006
865.0,0.0999
864.0,0.0986
863.0,0.0969
862.0,0.0946
861.0,0.0918
860.0,0.0885
859.0,0.0847
858.0,0.0805
857.0,0.0763
856.0,0.0722
855.0,0.0686
854.0,0.0657
853.0,0.0634
852.0,0.0618
851.0,0.0607
850.0,0.0601
849.0,0.0596
848.0,0.0591
847.0,0.0582
846.0,0.057
845.0,0.0555
844.0,0.054
843.0,0.0524
842.0,0.0509
841.0,0.0494
840.0,0.0481
839.0,0.0471
838.0,0.0461
837.0,0.0453
836.0,0.0445
835.0,0.0438
834.0,0.0432
833.0,0.0427
832.0,0.0423
831.0,0.0418
830.0,0.0413
829.0,0.0409
828.0,0.0405
827.0,0.0403
826.0,0.04
825.0,0.0397
824.0,0.0393
823.0,0.0389
822.0,0.0386
821.0,0.0383
820.0,0.038
819.0,0.0378
818.0,0.0375
817.0,0.0372
816.0,0.0369
815.0,0.0367
814.0,0.0365
813.0,0.0364
812.0,0.0363
811.0,0.0361
810.0,0.0359
809.0,0.0357
808.0,0.0355
807.0,0.0353
806.0,0.0352
805.0,0.0351
804.0,0.0349
803.0,0.0348
802.0,0.0347
801.0,0.0347
800.0,0.0346
799.0,0.0344
798.0,0.0343
797.0,0.0343
796.0,0.0345
795.0,0.0347
794.0,0.0349
793.0,0.0351
792.0,0.0353
791.0,0.0358
790.0,0.0364
789.0,0.0372
788.0,0.038
787.0,0.0389
786.0,0.0398
785.0,0.0407
784.0,0.0415
783.0,0.0424
782.0,0.0433
781.0,0.0444
780.0,0.0454
779.0,0.0464
778.0,0.0475
777.0,0.0488
776.0,0.0501
775.0,0.0515
774.0,0.0531
773.0,0.0547
772.0,0.0565
771.0,0.0584
770.0,0.0604
769.0,0.0626
768.0,0.065
767.0,0.0675
766.0,0.07
765.0,0.0728
764.0,0.0758
763.0,0.079
762.0,0.0822
761.0,0.0855
760.0,0.0886
759.0,0.0916
758.0,0.0943
757.0,0.0964
756.0,0.0979
755.0,0.0987
754.0,0.0988
753.0,0.0984
752.0,0.0976
751.0,0.0965
750.0,0.0953
749.0,0.094
748.0,0.0928
747.0,0.0918
746.0,0.0908
745.0,0.0899
744.0,0.0888
743.0,0.0876
742.0,0.0862
741.0,0.0846
740.0,0.0829
739.0,0.081
738.0,0.0789
737.0,0.0763
736.0,0.0734
735.0,0.0702
734.0,0.0668
733.0,0.0635
732.0,0.0604
731.0,0.0577
730.0,0.0555
729.0,0.0539
728.0,0.0531
727.0,0.0528
726.0,0.0531
725.0,0.0537
724.0,0.0544
723.0,0.055
722.0,0.0557
721.0,0.057
720.0,0.0588
719.0,0.061
718.0,0.0633
717.0,0.0655
716.0,0.0675
715.0,0.069
714.0,0.0701
713.0,0.0709
712.0,0.0717
711.0,0.0724
710.0,0.0732
709.0,0.074
708.0,0.0748
707.0,0.0754
706.0,0.0756
705.0,0.0755
704.0,0.0753
703.0,0.075
702.0,0.0746
701.0,0.0743
700.0,0.0742
699.0,0.0742
698.0,0.074
697.0,0.0734
696.0,0.0729
695.0,0.0725
694.0,0.0721
693.0,0.0714
692.0,0.0708
691.0,0.0705
690.0,0.0703
689.0,0.07
688.0,0.0698
687.0,0.0701
686.0,0.0709
685.0,0.0716
684.0,0.0716
683.0,0.0708
682.0,0.0696
681.0,0.0684
680.0,0.0674
679.0,0.0666
678.0,0.0659
677.0,0.0651
676.0,0.0644
675.0,0.0641
674.0,0.0643
673.0,0.065
672.0,0.0661
671.0,0.0679
670.0,0.0702
669.0,0.0726
668.0,0.0745
667.0,0.0735
666.0,0.0697
665.0,0.0663
664.0,0.0646
663.0,0.0641
662.0,0.0637
661.0,0.0631
660.0,0.0625
659.0,0.062
658.0,0.0617
657.0,0.0614
656.0,0.0612
655.0,0.0614
654.0,0.0615
653.0,0.0613
652.0,0.0605
651.0,0.0595
650.0,0.0584
649.0,0.0575
648.0,0.0569
647.0,0.0566
646.0,0.0564
645.0,0.0564
644.0,0.0564
643.0,0.0566
642.0,0.0566
641.0,0.0568
640.0,0.0572
639.0,0.0582
638.0,0.0597
637.0,0.0614
636.0,0.063
635.0,0.064
634.0,0.064
633.0,0.063
632.0,0.0618
631.0,0.0605
630.0,0.059
629.0,0.0573
628.0,0.0558
627.0,0.0546
626.0,0.0538
625.0,0.0532
624.0,0.0525
623.0,0.0518
622.0,0.051
621.0,0.0503
620.0,0.0495
619.0,0.0488
618.0,0.0484
617.0,0.0485
616.0,0.0491
615.0,0.0495
614.0,0.0492
613.0,0.0482
612.0,0.0471
611.0,0.0461
610.0,0.0451
609.0,0.0438
608.0,0.0425
607.0,0.0415
606.0,0.0408
605.0,0.0406
604.0,0.0414
603.0,0.0428
602.0,0.044
601.0,0.0447
600.0,0.0449
