cm-1,A
4000.0,-0.0022
3999.0,-0.0023
3998.0,-0.0023
3997.0,-0.0024
3996.0,-0.0025
3995.0,-0.0025
3994.0,-0.0026
3993.0,-0.0026
3992.0,-0.0025
3991.0,-0.0025
3990.0,-0.0024
3989.0,-0.0024
3988.0,-0.0024
3987.0,-0.0023
3986.0,-0.0023
3985.0,-0.0023
3984.0,-0.0022
3983.0,-0.0023
3982.0,-0.0023
3981.0,-0.0023
3980.0,-0.0023
3979.0,-0.0022
3978.0,-0.0022
3977.0,-0.0022
3976.0,-0.0022
3975.0,-0.0022
3974.0,-0.0022
3973.0,-0.0022
3972.0,-0.0022
3971.0,-0.0022
3970.0,-0.0022
3969.0,-0.0022
3968.0,-0.0022
3967.0,-0.0023
3966.0,-0.0023
3965.0,-0.0023
3964.0,-0.0023
3963.0,-0.0024
3962.0,-0.0024
3961.0,-0.0025
3960.0,-0.0024
3959.0,-0.0024
3958.0,-0.0024
3957.0,-0.0024
3956.0,-0.0025
3955.0,-0.0025
3954.0,-0.0025
3953.0,-0.0025
3952.0,-0.0025
3951.0,-0.0025
3950.0,-0.0026
3949.0,-0.0027
3948.0,-0.0027
3947.0,-0.0027
3946.0,-0.0026
3945.0,-0.0024
3944.0,-0.0023
3943.0,-0.0023
3942.0,-0.0022
3941.0,-0.0022
3940.0,-0.0023
3939.0,-0.0023
3938.0,-0.0023
3937.0,-0.0023
3936.0,-0.0023
3935.0,-0.0023
3934.0,-0.0023
3933.0,-0.0023
3932.0,-0.0023
3931.0,-0.0023
3930.0,-0.0023
3929.0,-0.0024
3928.0,-0.0025
3927.0,-0.0025
3926.0,-0.0026
3925.0,-0.0025
3924.0,-0.0024
3923.0,-0.0024
3922.0,-0.0024
3921.0,-0.0025
3920.0,-0.0025
3919.0,-0.0025
3918.0,-0.0025
3917.0,-0.0025
3916.0,-0.0025
3915.0,-0.0025
3914.0,-0.0025
3913.0,-0.0024
3912.0,-0.0024
3911.0,-0.0024
3910.0,-0.0024
3909.0,-0.0024
3908.0,-0.0024
3907.0,-0.0024
3906.0,-0.0024
3905.0,-0.0024
3904.0,-0.0025
3903.0,-0.0026
3902.0,-0.0027
3901.0,-0.0028
3900.0,-0.0028
3899.0,-0.0028
3898.0,-0.0027
3897.0,-0.0026
3896.0,-0.0025
3895.0,-0.0025
3894.0,-0.0025
3893.0,-0.0025
3892.0,-0.0024
3891.0,-0.0024
3890.0,-0.0024
3889.0,-0.0024
3888.0,-0.0024
3887.0,-0.0024
3886.0,-0.0024
3885.0,-0.0024
3884.0,-0.0024
3883.0,-0.0023
3882.0,-0.0023
3881.0,-0.0022
3880.0,-0.0023
3879.0,-0.0024
3878.0,-0.0025
3877.0,-0.0025
3876.0,-0.0025
3875.0,-0.0025
3874.0,-0.0026
3873.0,-0.0026
3872.0,-0.0026
3871.0,-0.0026
3870.0,-0.0026
3869.0,-0.0026
3868.0,-0.0027
3867.0,-0.0027
3866.0,-0.0026
3865.0,-0.0024
3864.0,-0.0022
3863.0,-0.0021
3862.0,-0.0021
3861.0,-0.0022
3860.0,-0.0023
3859.0,-0.0024
3858.0,-0.0026
3857.0,-0.0027
3856.0,-0.0028
3855.0,-0.0028
3854.0,-0.0029
3853.0,-0.003
3852.0,-0.003
3851.0,-0.0029
3850.0,-0.0027
3849.0,-0.0026
3848.0,-0.0026
3847.0,-0.0025
3846.0,-0.0024
3845.0,-0.0023
3844.0,-0.0023
3843.0,-0.0023
3842.0,-0.0025
3841.0,-0.0027
3840.0,-0.0028
3839.0,-0.0029
3838.0,-0.0029
3837.0,-0.0029
3836.0,-0.0029
3835.0,-0.0028
3834.0,-0.0027
3833.0,-0.0027
3832.0,-0.0027
3831.0,-0.0027
3830.0,-0.0027
3829.0,-0.0027
3828.0,-0.0026
3827.0,-0.0026
3826.0,-0.0026
3825.0,-0.0027
3824.0,-0.0027
3823.0,-0.0027
3822.0,-0.0027
3821.0,-0.0027
3820.0,-0.0027
3819.0,-0.0027
3818.0,-0.0027
3817.0,-0.0026
3816.0,-0.0026
3815.0,-0.0025
3814.0,-0.0025
3813.0,-0.0024
3812.0,-0.0024
3811.0,-0.0024
3810.0,-0.0024
3809.0,-0.0024
3808.0,-0.0024
3807.0,-0.0024
3806.0,-0.0025
3805.0,-0.0025
3804.0,-0.0025
3803.0,-0.0025
3802.0,-0.0025
3801.0,-0.0025
3800.0,-0.0026
3799.0,-0.0025
3798.0,-0.0025
3797.0,-0.0025
3796.0,-0.0026
3795.0,-0.0026
3794.0,-0.0026
3793.0,-0.0026
3792.0,-0.0026
3791.0,-0.0026
3790.0,-0.0026
3789.0,-0.0026
3788.0,-0.0026
3787.0,-0.0025
3786.0,-0.0024
3785.0,-0.0024
3784.0,-0.0024
3783.0,-0.0024
3782.0,-0.0023
3781.0,-0.0023
3780.0,-0.0023
3779.0,-0.0023
3778.0,-0.0024
3777.0,-0.0024
3776.0,-0.0023
3775.0,-0.0023
3774.0,-0.0023
3773.0,-0.0023
3772.0,-0.0023
3771.0,-0.0023
3770.0,-0.0023
3769.0,-0.0023
3768.0,-0.0023
3767.0,-0.0022
3766.0,-0.0022
3765.0,-0.0022
3764.0,-0.0022
3763.0,-0.0023
3762.0,-0.0023
3761.0,-0.0023
3760.0,-0.0023
3759.0,-0.0024
3758.0,-0.0024
3757.0,-0.0025
3756.0,-0.0026
3755.0,-0.0027
3754.0,-0.0028
3753.0,-0.0028
3752.0,-0.0029
3751.0,-0.0029
3750.0,-0.003
3749.0,-0.0029
3748.0,-0.0028
3747.0,-0.0028
3746.0,-0.0027
3745.0,-0.0026
3744.0,-0.0026
3743.0,-0.0026
3742.0,-0.0025
3741.0,-0.0025
3740.0,-0.0026
3739.0,-0.0027
3738.0,-0.0028
3737.0,-0.0028
3736.0,-0.0028
3735.0,-0.0027
3734.0,-0.0026
3733.0,-0.0025
3732.0,-0.0025
3731.0,-0.0026
3730.0,-0.0027
3729.0,-0.0027
3728.0,-0.0028
3727.0,-0.0027
3726.0,-0.0026
3725.0,-0.0025
3724.0,-0.0024
3723.0,-0.0024
3722.0,-0.0024
3721.0,-0.0024
3720.0,-0.0025
3719.0,-0.0025
3718.0,-0.0024
3717.0,-0.0024
3716.0,-0.0024
3715.0,-0.0024
3714.0,-0.0024
3713.0,-0.0024
3712.0,-0.0025
3711.0,-0.0026
3710.0,-0.0026
3709.0,-0.0025
3708.0,-0.0025
3707.0,-0.0025
3706.0,-0.0025
3705.0,-0.0024
3704.0,-0.0024
3703.0,-0.0024
3702.0,-0.0024
3701.0,-0.0024
3700.0,-0.0024
3699.0,-0.0024
3698.0,-0.0024
3697.0,-0.0023
3696.0,-0.0023
3695.0,-0.0022
3694.0,-0.0022
3693.0,-0.0021
3692.0,-0.002
3691.0,-0.0019
3690.0,-0.002
3689.0,-0.0021
3688.0,-0.0021
3687.0,-0.0021
3686.0,-0.002
3685.0,-0.002
3684.0,-0.002
3683.0,-0.0019
3682.0,-0.0019
3681.0,-0.0019
3680.0,-0.002
3679.0,-0.0021
3678.0,-0.0022
3677.0,-0.002
3676.0,-0.0019
3675.0,-0.0019
3674.0,-0.002
3673.0,-0.0022
3672.0,-0.0023
3671.0,-0.0023
3670.0,-0.0022
3669.0,-0.0021
3668.0,-0.002
3667.0,-0.0019
3666.0,-0.0018
3665.0,-0.0017
3664.0,-0.0016
3663.0,-0.0016
3662.0,-0.0016
3661.0,-0.0015
3660.0,-0.0015
3659.0,-0.0014
3658.0,-0.0013
3657.0,-0.0013
3656.0,-0.0013
3655.0,-0.0013
3654.0,-0.0014
3653.0,-0.0014
3652.0,-0.0014
3651.0,-0.0014
3650.0,-0.0014
3649.0,-0.0013
3648.0,-0.0013
3647.0,-0.0013
3646.0,-0.0013
3645.0,-0.0013
3644.0,-0.0012
3643.0,-0.0011
3642.0,-0.0009
3641.0,-0.0008
3640.0,-0.0008
3639.0,-0.0008
3638.0,-0.0008
3637.0,-0.0008
3636.0,-0.0008
3635.0,-0.0008
3634.0,-0.0008
3633.0,-0.0008
3632.0,-0.0009
3631.0,-0.0009
3630.0,-0.0008
3629.0,-0.0008
3628.0,-0.0007
3627.0,-0.0006
3626.0,-0.0005
3625.0,-0.0005
3624.0,-0.0005
3623.0,-0.0005
3622.0,-0.0005
3621.0,-0.0004
3620.0,-0.0002
3619.0,-0.0
3618.0,0.0001
3617.0,0.0001
3616.0,0.0001
3615.0,0.0002
3614.0,0.0002
3613.0,0.0002
3612.0,0.0001
3611.0,0.0001
3610.0,0.0001
3609.0,0.0001
3608.0,0.0003
3607.0,0.0005
3606.0,0.0006
3605.0,0.0006
3604.0,0.0006
3603.0,0.0007
3602.0,0.0008
3601.0,0.001
3600.0,0.0011
3599.0,0.0012
3598.0,0.0013
3597.0,0.0013
3596.0,0.0012
3595.0,0.0012
3594.0,0.0012
3593.0,0.0013
3592.0,0.0014
3591.0,0.0015
3590.0,0.0015
3589.0,0.0015
3588.0,0.0015
3587.0,0.0015
3586.0,0.0016
3585.0,0.0017
3584.0,0.0017
3583.0,0.0017
3582.0,0.0018
3581.0,0.0018
3580.0,0.0019
3579.0,0.0019
3578.0,0.002
3577.0,0.0022
3576.0,0.0023
3575.0,0.0024
3574.0,0.0025
3573.0,0.0025
3572.0,0.0026
3571.0,0.0027
3570.0,0.0027
3569.0,0.0026
3568.0,0.0025
3567.0,0.0024
3566.0,0.0025
3565.0,0.0027
3564.0,0.003
3563.0,0.0032
3562.0,0.0034
3561.0,0.0035
3560.0,0.0035
3559.0,0.0035
3558.0,0.0035
3557.0,0.0035
3556.0,0.0036
3555.0,0.0037
3554.0,0.0039
3553.0,0.004
3552.0,0.004
3551.0,0.004
3550.0,0.004
3549.0,0.004
3548.0,0.0041
3547.0,0.0042
3546.0,0.0042
3545.0,0.0043
3544.0,0.0043
3543.0,0.0044
3542.0,0.0046
3541.0,0.0048
3540.0,0.005
3539.0,0.0051
3538.0,0.0052
3537.0,0.0051
3536.0,0.0051
3535.0,0.0051
3534.0,0.0051
3533.0,0.0051
3532.0,0.0052
3531.0,0.0052
3530.0,0.0054
3529.0,0.0055
3528.0,0.0057
3527.0,0.0057
3526.0,0.0057
3525.0,0.0058
3524.0,0.0059
3523.0,0.0061
3522.0,0.0063
3521.0,0.0064
3520.0,0.0064
3519.0,0.0065
3518.0,0.0065
3517.0,0.0066
3516.0,0.0067
3515.0,0.0067
3514.0,0.0068
3513.0,0.0068
3512.0,0.007
3511.0,0.0072
3510.0,0.0074
3509.0,0.0076
3508.0,0.0077
3507.0,0.0078
3506.0,0.0078
3505.0,0.0078
3504.0,0.0078
3503.0,0.0079
3502.0,0.008
3501.0,0.008
3500.0,0.0081
3499.0,0.0081
3498.0,0.0083
3497.0,0.0085
3496.0,0.0087
3495.0,0.0088
3494.0,0.009
3493.0,0.0091
3492.0,0.0092
3491.0,0.0093
3490.0,0.0094
3489.0,0.0095
3488.0,0.0097
3487.0,0.0099
3486.0,0.0101
3485.0,0.0102
3484.0,0.0103
3483.0,0.0104
3482.0,0.0105
3481.0,0.0107
3480.0,0.0109
3479.0,0.0111
3478.0,0.0112
3477.0,0.0113
3476.0,0.0115
3475.0,0.0116
3474.0,0.0117
3473.0,0.0118
3472.0,0.012
3471.0,0.0121
3470.0,0.0123
3469.0,0.0125
3468.0,0.0127
3467.0,0.0128
3466.0,0.0128
3465.0,0.0129
3464.0,0.013
3463.0,0.0132
3462.0,0.0135
3461.0,0.0137
3460.0,0.0138
3459.0,0.014
3458.0,0.0141
3457.0,0.0142
3456.0,0.0143
3455.0,0.0145
3454.0,0.0146
3453.0,0.0148
3452.0,0.0151
3451.0,0.0153
3450.0,0.0155
3449.0,0.0157
3448.0,0.0158
3447.0,0.0159
3446.0,0.0161
3445.0,0.0163
3444.0,0.0164
3443.0,0.0165
3442.0,0.0166
3441.0,0.0167
3440.0,0.0169
3439.0,0.0171
3438.0,0.0174
3437.0,0.0177
3436.0,0.018
3435.0,0.0182
3434.0,0.0184
3433.0,0.0187
3432.0,0.019
3431.0,0.0193
3430.0,0.0196
3429.0,0.0198
3428.0,0.02
3427.0,0.0203
3426.0,0.0205
3425.0,0.0207
3424.0,0.0208
3423.0,0.021
3422.0,0.0212
3421.0,0.0214
3420.0,0.0217
3419.0,0.0219
3418.0,0.022
3417.0,0.0221
3416.0,0.0221
3415.0,0.0222
3414.0,0.0224
3413.0,0.0227
3412.0,0.0229
3411.0,0.0232
3410.0,0.0234
3409.0,0.0237
3408.0,0.0239
3407.0,0.0241
3406.0,0.0242
3405.0,0.0243
3404.0,0.0243
3403.0,0.0245
3402.0,0.0247
3401.0,0.0249
3400.0,0.025
3399.0,0.0251
3398.0,0.0252
3397.0,0.0253
3396.0,0.0255
3395.0,0.0256
3394.0,0.0258
3393.0,0.0258
3392.0,0.0257
3391.0,0.0256
3390.0,0.0255
3389.0,0.0255
3388.0,0.0254
3387.0,0.0254
3386.0,0.0255
3385.0,0.0255
3384.0,0.0256
3383.0,0.0256
3382.0,0.0255
3381.0,0.0254
3380.0,0.0253
3379.0,0.0251
3378.0,0.025
3377.0,0.0249
3376.0,0.0248
3375.0,0.0247
3374.0,0.0245
3373.0,0.0243
3372.0,0.0242
3371.0,0.0241
3370.0,0.0239
3369.0,0.0236
3368.0,0.0233
3367.0,0.0231
3366.0,0.023
3365.0,0.0229
3364.0,0.0229
3363.0,0.0228
3362.0,0.0227
3361.0,0.0225
3360.0,0.0223
3359.0,0.0221
3358.0,0.0218
3357.0,0.0216
3356.0,0.0214
3355.0,0.0213
3354.0,0.0212
3353.0,0.021
3352.0,0.0207
3351.0,0.0204
3350.0,0.0202
3349.0,0.0202
3348.0,0.0201
3347.0,0.0201
3346.0,0.0201
3345.0,0.02
3344.0,0.0199
3343.0,0.0198
3342.0,0.0197
3341.0,0.0196
3340.0,0.0195
3339.0,0.0194
3338.0,0.0192
3337.0,0.019
3336.0,0.0188
3335.0,0.0186
3334.0,0.0185
3333.0,0.0184
3332.0,0.0182
3331.0,0.0179
3330.0,0.0177
3329.0,0.0175
3328.0,0.0175
3327.0,0.0175
3326.0,0.0175
3325.0,0.0174
3324.0,0.0172
3323.0,0.017
3322.0,0.0168
3321.0,0.0168
3320.0,0.0167
3319.0,0.0167
3318.0,0.0166
3317.0,0.0165
3316.0,0.0163
3315.0,0.0162
3314.0,0.0159
3313.0,0.0158
3312.0,0.0156
3311.0,0.0156
3310.0,0.0156
3309.0,0.0156
3308.0,0.0155
3307.0,0.0154
3306.0,0.0153
3305.0,0.0151
3304.0,0.015
3303.0,0.015
3302.0,0.0149
3301.0,0.0148
3300.0,0.0147
3299.0,0.0146
3298.0,0.0146
3297.0,0.0145
3296.0,0.0145
3295.0,0.0144
3294.0,0.0142
3293.0,0.014
3292.0,0.0138
3291.0,0.0137
3290.0,0.0136
3289.0,0.0137
3288.0,0.0137
3287.0,0.0138
3286.0,0.0139
3285.0,0.0138
3284.0,0.0137
3283.0,0.0137
3282.0,0.0136
3281.0,0.0137
3280.0,0.0136
3279.0,0.0135
3278.0,0.0133
3277.0,0.0131
3276.0,0.013
3275.0,0.013
3274.0,0.013
3273.0,0.013
3272.0,0.013
3271.0,0.013
3270.0,0.0129
3269.0,0.0127
3268.0,0.0127
3267.0,0.0127
3266.0,0.0127
3265.0,0.0127
3264.0,0.0128
3263.0,0.0128
3262.0,0.0128
3261.0,0.0129
3260.0,0.013
3259.0,0.0132
3258.0,0.0134
3257.0,0.0135
3256.0,0.0135
3255.0,0.0135
3254.0,0.0134
3253.0,0.0133
3252.0,0.0133
3251.0,0.0133
3250.0,0.0133
3249.0,0.0132
3248.0,0.0132
3247.0,0.0133
3246.0,0.0133
3245.0,0.0134
3244.0,0.0134
3243.0,0.0133
3242.0,0.0132
3241.0,0.0131
3240.0,0.0131
3239.0,0.0131
3238.0,0.013
3237.0,0.0129
3236.0,0.0127
3235.0,0.0125
3234.0,0.0124
3233.0,0.0124
3232.0,0.0124
3231.0,0.0123
3230.0,0.0123
3229.0,0.0121
3228.0,0.012
3227.0,0.0119
3226.0,0.0118
3225.0,0.0118
3224.0,0.0118
3223.0,0.0116
3222.0,0.0114
3221.0,0.0111
3220.0,0.0109
3219.0,0.0108
3218.0,0.0108
3217.0,0.0107
3216.0,0.0106
3215.0,0.0104
3214.0,0.0103
3213.0,0.0101
3212.0,0.01
3211.0,0.0099
3210.0,0.0098
3209.0,0.0096
3208.0,0.0095
3207.0,0.0093
3206.0,0.0091
3205.0,0.0089
3204.0,0.0089
3203.0,0.009
3202.0,0.009
3201.0,0.009
3200.0,0.0089
3199.0,0.0088
3198.0,0.0087
3197.0,0.0087
3196.0,0.0088
3195.0,0.0087
3194.0,0.0087
3193.0,0.0085
3192.0,0.0084
3191.0,0.0082
3190.0,0.0081
3189.0,0.0079
3188.0,0.0079
3187.0,0.0079
3186.0,0.0079
3185.0,0.0079
3184.0,0.0079
3183.0,0.0077
3182.0,0.0075
3181.0,0.0074
3180.0,0.0073
3179.0,0.0073
3178.0,0.0073
3177.0,0.0073
3176.0,0.0072
3175.0,0.0071
3174.0,0.007
3173.0,0.0069
3172.0,0.0069
3171.0,0.0068
3170.0,0.0067
3169.0,0.0066
3168.0,0.0065
3167.0,0.0064
3166.0,0.0063
3165.0,0.0063
3164.0,0.0062
3163.0,0.0062
3162.0,0.0061
3161.0,0.0061
3160.0,0.006
3159.0,0.0059
3158.0,0.0059
3157.0,0.0058
3156.0,0.0058
3155.0,0.0058
3154.0,0.0057
3153.0,0.0055
3152.0,0.0053
3151.0,0.0052
3150.0,0.0052
3149.0,0.0052
3148.0,0.0052
3147.0,0.0052
3146.0,0.0052
3145.0,0.0052
3144.0,0.0051
3143.0,0.0051
3142.0,0.0051
3141.0,0.0051
3140.0,0.005
3139.0,0.0049
3138.0,0.0048
3137.0,0.0047
3136.0,0.0047
3135.0,0.0047
3134.0,0.0046
3133.0,0.0046
3132.0,0.0046
3131.0,0.0046
3130.0,0.0045
3129.0,0.0045
3128.0,0.0045
3127.0,0.0045
3126.0,0.0044
3125.0,0.0043
3124.0,0.0042
3123.0,0.0041
3122.0,0.004
3121.0,0.0039
3120.0,0.0039
3119.0,0.0038
3118.0,0.0038
3117.0,0.0037
3116.0,0.0037
3115.0,0.0037
3114.0,0.0036
3113.0,0.0036
3112.0,0.0035
3111.0,0.0034
3110.0,0.0034
3109.0,0.0035
3108.0,0.0035
3107.0,0.0035
3106.0,0.0035
3105.0,0.0034
3104.0,0.0034
3103.0,0.0034
3102.0,0.0033
3101.0,0.0033
3100.0,0.0032
3099.0,0.0031
3098.0,0.003
3097.0,0.003
3096.0,0.0031
3095.0,0.003
3094.0,0.0029
3093.0,0.0028
3092.0,0.0027
3091.0,0.0026
3090.0,0.0026
3089.0,0.0026
3088.0,0.0026
3087.0,0.0025
3086.0,0.0025
3085.0,0.0025
3084.0,0.0026
3083.0,0.0026
3082.0,0.0026
3081.0,0.0026
3080.0,0.0025
3079.0,0.0025
3078.0,0.0025
3077.0,0.0024
3076.0,0.0024
3075.0,0.0023
3074.0,0.0023
3073.0,0.0022
3072.0,0.0022
3071.0,0.0021
3070.0,0.002
3069.0,0.002
3068.0,0.0019
3067.0,0.0019
3066.0,0.0019
3065.0,0.0019
3064.0,0.0018
3063.0,0.0017
3062.0,0.0017
3061.0,0.0018
3060.0,0.0018
3059.0,0.0019
3058.0,0.0019
3057.0,0.0018
3056.0,0.0018
3055.0,0.0017
3054.0,0.0017
3053.0,0.0017
3052.0,0.0016
3051.0,0.0016
3050.0,0.0015
3049.0,0.0015
3048.0,0.0014
3047.0,0.0014
3046.0,0.0014
3045.0,0.0014
3044.0,0.0014
3043.0,0.0013
3042.0,0.0013
3041.0,0.0012
3040.0,0.0012
3039.0,0.0012
3038.0,0.0012
3037.0,0.0012
3036.0,0.0012
3035.0,0.0011
3034.0,0.0011
3033.0,0.001
3032.0,0.001
3031.0,0.0009
3030.0,0.0009
3029.0,0.001
3028.0,0.001
3027.0,0.001
3026.0,0.0009
3025.0,0.0008
3024.0,0.0008
3023.0,0.0008
3022.0,0.0007
3021.0,0.0007
3020.0,0.0008
3019.0,0.0008
3018.0,0.0008
3017.0,0.0008
3016.0,0.0008
3015.0,0.0008
3014.0,0.0008
3013.0,0.0008
3012.0,0.0007
3011.0,0.0007
3010.0,0.0006
3009.0,0.0005
3008.0,0.0005
3007.0,0.0005
3006.0,0.0005
3005.0,0.0005
3004.0,0.0005
3003.0,0.0004
3002.0,0.0004
3001.0,0.0003
3000.0,0.0003
2999.0,0.0003
2998.0,0.0002
2997.0,0.0002
2996.0,0.0001
2995.0,0.0001
2994.0,0.0
2993.0,-0.0
2992.0,-0.0
2991.0,-0.0001
2990.0,-0.0001
2989.0,-0.0001
2988.0,-0.0001
2987.0,-0.0002
2986.0,-0.0002
2985.0,-0.0002
2984.0,-0.0001
2983.0,-0.0001
2982.0,-0.0001
2981.0,-0.0001
2980.0,-0.0001
2979.0,-0.0001
2978.0,-0.0002
2977.0,-0.0002
2976.0,-0.0003
2975.0,-0.0004
2974.0,-0.0004
2973.0,-0.0004
2972.0,-0.0004
2971.0,-0.0004
2970.0,-0.0004
2969.0,-0.0004
2968.0,-0.0003
2967.0,-0.0003
2966.0,-0.0003
2965.0,-0.0004
2964.0,-0.0004
2963.0,-0.0003
2962.0,-0.0003
2961.0,-0.0003
2960.0,-0.0003
2959.0,-0.0003
2958.0,-0.0003
2957.0,-0.0003
2956.0,-0.0004
2955.0,-0.0004
2954.0,-0.0003
2953.0,-0.0003
2952.0,-0.0003
2951.0,-0.0003
2950.0,-0.0003
2949.0,-0.0003
2948.0,-0.0004
2947.0,-0.0005
2946.0,-0.0006
2945.0,-0.0006
2944.0,-0.0006
2943.0,-0.0006
2942.0,-0.0005
2941.0,-0.0004
2940.0,-0.0003
2939.0,-0.0003
2938.0,-0.0003
2937.0,-0.0004
2936.0,-0.0005
2935.0,-0.0005
2934.0,-0.0005
2933.0,-0.0004
2932.0,-0.0004
2931.0,-0.0004
2930.0,-0.0005
2929.0,-0.0006
2928.0,-0.0007
2927.0,-0.0007
2926.0,-0.0007
2925.0,-0.0007
2924.0,-0.0007
2923.0,-0.0006
2922.0,-0.0006
2921.0,-0.0006
2920.0,-0.0006
2919.0,-0.0006
2918.0,-0.0006
2917.0,-0.0006
2916.0,-0.0006
2915.0,-0.0006
2914.0,-0.0007
2913.0,-0.0008
2912.0,-0.0008
2911.0,-0.0008
2910.0,-0.0008
2909.0,-0.0007
2908.0,-0.0007
2907.0,-0.0007
2906.0,-0.0007
2905.0,-0.0008
2904.0,-0.0008
2903.0,-0.0009
2902.0,-0.0009
2901.0,-0.001
2900.0,-0.001
2899.0,-0.001
2898.0,-0.001
2897.0,-0.0009
2896.0,-0.0008
2895.0,-0.0008
2894.0,-0.0009
2893.0,-0.001
2892.0,-0.001
2891.0,-0.001
2890.0,-0.001
2889.0,-0.0009
2888.0,-0.0009
2887.0,-0.0009
2886.0,-0.0008
2885.0,-0.0008
2884.0,-0.0008
2883.0,-0.0008
2882.0,-0.0009
2881.0,-0.001
2880.0,-0.001
2879.0,-0.0009
2878.0,-0.0009
2877.0,-0.0009
2876.0,-0.0009
2875.0,-0.0009
2874.0,-0.0009
2873.0,-0.0009
2872.0,-0.0009
2871.0,-0.0009
2870.0,-0.0009
2869.0,-0.0009
2868.0,-0.0009
2867.0,-0.0009
2866.0,-0.001
2865.0,-0.001
2864.0,-0.001
2863.0,-0.001
2862.0,-0.001
2861.0,-0.001
2860.0,-0.001
2859.0,-0.001
2858.0,-0.0011
2857.0,-0.001
2856.0,-0.001
2855.0,-0.0009
2854.0,-0.001
2853.0,-0.001
2852.0,-0.0011
2851.0,-0.0011
2850.0,-0.001
2849.0,-0.001
2848.0,-0.001
2847.0,-0.001
2846.0,-0.001
2845.0,-0.001
2844.0,-0.0009
2843.0,-0.0009
2842.0,-0.0009
2841.0,-0.001
2840.0,-0.001
2839.0,-0.001
2838.0,-0.0011
2837.0,-0.0011
2836.0,-0.0011
2835.0,-0.0012
2834.0,-0.0011
2833.0,-0.0011
2832.0,-0.001
2831.0,-0.0009
2830.0,-0.0009
2829.0,-0.0009
2828.0,-0.001
2827.0,-0.001
2826.0,-0.001
2825.0,-0.001
2824.0,-0.001
2823.0,-0.0011
2822.0,-0.0011
2821.0,-0.0011
2820.0,-0.0011
2819.0,-0.0011
2818.0,-0.0011
2817.0,-0.001
2816.0,-0.0009
2815.0,-0.0009
2814.0,-0.0008
2813.0,-0.0008
2812.0,-0.0009
2811.0,-0.001
2810.0,-0.001
2809.0,-0.0011
2808.0,-0.001
2807.0,-0.001
2806.0,-0.001
2805.0,-0.0011
2804.0,-0.0012
2803.0,-0.0013
2802.0,-0.0013
2801.0,-0.0012
2800.0,-0.0012
2799.0,-0.0011
2798.0,-0.0011
2797.0,-0.0011
2796.0,-0.0011
2795.0,-0.0011
2794.0,-0.0011
2793.0,-0.0011
2792.0,-0.0011
2791.0,-0.0011
2790.0,-0.001
2789.0,-0.0011
2788.0,-0.0011
2787.0,-0.0011
2786.0,-0.0011
2785.0,-0.0011
2784.0,-0.001
2783.0,-0.0011
2782.0,-0.0011
2781.0,-0.0012
2780.0,-0.0012
2779.0,-0.0012
2778.0,-0.0012
2777.0,-0.0011
2776.0,-0.0011
2775.0,-0.0011
2774.0,-0.0012
2773.0,-0.0012
2772.0,-0.0012
2771.0,-0.0012
2770.0,-0.0012
2769.0,-0.0012
2768.0,-0.0011
2767.0,-0.0011
2766.0,-0.001
2765.0,-0.001
2764.0,-0.001
2763.0,-0.0011
2762.0,-0.0011
2761.0,-0.0012
2760.0,-0.0012
2759.0,-0.0012
2758.0,-0.0012
2757.0,-0.0011
2756.0,-0.0011
2755.0,-0.0011
2754.0,-0.0011
2753.0,-0.0011
2752.0,-0.0011
2751.0,-0.0011
2750.0,-0.0011
2749.0,-0.0012
2748.0,-0.0012
2747.0,-0.0012
2746.0,-0.0011
2745.0,-0.0011
2744.0,-0.0012
2743.0,-0.0012
2742.0,-0.0012
2741.0,-0.0011
2740.0,-0.0011
2739.0,-0.0011
2738.0,-0.0012
2737.0,-0.0012
2736.0,-0.0012
2735.0,-0.0012
2734.0,-0.0012
2733.0,-0.0012
2732.0,-0.0011
2731.0,-0.0011
2730.0,-0.0011
2729.0,-0.0011
2728.0,-0.0012
2727.0,-0.0012
2726.0,-0.0012
2725.0,-0.0012
2724.0,-0.0011
2723.0,-0.001
2722.0,-0.001
2721.0,-0.0011
2720.0,-0.0012
2719.0,-0.0013
2718.0,-0.0013
2717.0,-0.0012
2716.0,-0.0011
2715.0,-0.0011
2714.0,-0.0012
2713.0,-0.0013
2712.0,-0.0014
2711.0,-0.0015
2710.0,-0.0014
2709.0,-0.0014
2708.0,-0.0014
2707.0,-0.0014
2706.0,-0.0013
2705.0,-0.0012
2704.0,-0.0012
2703.0,-0.0012
2702.0,-0.0012
2701.0,-0.0013
2700.0,-0.0013
2699.0,-0.0012
2698.0,-0.0012
2697.0,-0.0012
2696.0,-0.0012
2695.0,-0.0012
2694.0,-0.0012
2693.0,-0.0011
2692.0,-0.0011
2691.0,-0.0012
2690.0,-0.0012
2689.0,-0.0012
2688.0,-0.0012
2687.0,-0.0012
2686.0,-0.0012
2685.0,-0.0012
2684.0,-0.0012
2683.0,-0.0012
2682.0,-0.0013
2681.0,-0.0013
2680.0,-0.0013
2679.0,-0.0013
2678.0,-0.0013
2677.0,-0.0013
2676.0,-0.0014
2675.0,-0.0014
2674.0,-0.0014
2673.0,-0.0013
2672.0,-0.0013
2671.0,-0.0012
2670.0,-0.0012
2669.0,-0.0012
2668.0,-0.0013
2667.0,-0.0013
2666.0,-0.0012
2665.0,-0.0012
2664.0,-0.0011
2663.0,-0.0012
2662.0,-0.0013
2661.0,-0.0013
2660.0,-0.0013
2659.0,-0.0013
2658.0,-0.0014
2657.0,-0.0014
2656.0,-0.0014
2655.0,-0.0014
2654.0,-0.0014
2653.0,-0.0014
2652.0,-0.0014
2651.0,-0.0013
2650.0,-0.0013
2649.0,-0.0013
2648.0,-0.0013
2647.0,-0.0013
2646.0,-0.0013
2645.0,-0.0013
2644.0,-0.0013
2643.0,-0.0013
2642.0,-0.0012
2641.0,-0.0012
2640.0,-0.0012
2639.0,-0.0013
2638.0,-0.0013
2637.0,-0.0014
2636.0,-0.0014
2635.0,-0.0014
2634.0,-0.0014
2633.0,-0.0014
2632.0,-0.0013
2631.0,-0.0012
2630.0,-0.0012
2629.0,-0.0011
2628.0,-0.0012
2627.0,-0.0012
2626.0,-0.0013
2625.0,-0.0014
2624.0,-0.0014
2623.0,-0.0014
2622.0,-0.0015
2621.0,-0.0014
2620.0,-0.0014
2619.0,-0.0014
2618.0,-0.0014
2617.0,-0.0014
2616.0,-0.0013
2615.0,-0.0013
2614.0,-0.0012
2613.0,-0.0012
2612.0,-0.0012
2611.0,-0.0012
2610.0,-0.0013
2609.0,-0.0014
2608.0,-0.0014
2607.0,-0.0015
2606.0,-0.0015
2605.0,-0.0014
2604.0,-0.0013
2603.0,-0.0013
2602.0,-0.0012
2601.0,-0.0011
2600.0,-0.0011
2599.0,-0.0011
2598.0,-0.0011
2597.0,-0.0012
2596.0,-0.0012
2595.0,-0.0012
2594.0,-0.0013
2593.0,-0.0012
2592.0,-0.0012
2591.0,-0.0012
2590.0,-0.0012
2589.0,-0.0011
2588.0,-0.0011
2587.0,-0.0012
2586.0,-0.0012
2585.0,-0.0013
2584.0,-0.0013
2583.0,-0.0013
2582.0,-0.0013
2581.0,-0.0013
2580.0,-0.0013
2579.0,-0.0012
2578.0,-0.0011
2577.0,-0.0011
2576.0,-0.0012
2575.0,-0.0013
2574.0,-0.0013
2573.0,-0.0013
2572.0,-0.0013
2571.0,-0.0013
2570.0,-0.0013
2569.0,-0.0013
2568.0,-0.0012
2567.0,-0.0012
2566.0,-0.0012
2565.0,-0.0013
2564.0,-0.0014
2563.0,-0.0014
2562.0,-0.0014
2561.0,-0.0013
2560.0,-0.0013
2559.0,-0.0013
2558.0,-0.0013
2557.0,-0.0013
2556.0,-0.0013
2555.0,-0.0013
2554.0,-0.0012
2553.0,-0.0012
2552.0,-0.0012
2551.0,-0.0013
2550.0,-0.0013
2549.0,-0.0013
2548.0,-0.0012
2547.0,-0.0012
2546.0,-0.0012
2545.0,-0.0012
2544.0,-0.0012
2543.0,-0.0012
2542.0,-0.0013
2541.0,-0.0013
2540.0,-0.0013
2539.0,-0.0014
2538.0,-0.0014
2537.0,-0.0014
2536.0,-0.0014
2535.0,-0.0014
2534.0,-0.0013
2533.0,-0.0013
2532.0,-0.0013
2531.0,-0.0013
2530.0,-0.0013
2529.0,-0.0013
2528.0,-0.0013
2527.0,-0.0013
2526.0,-0.0013
2525.0,-0.0012
2524.0,-0.0012
2523.0,-0.0011
2522.0,-0.0011
2521.0,-0.0011
2520.0,-0.0012
2519.0,-0.0012
2518.0,-0.0013
2517.0,-0.0013
2516.0,-0.0013
2515.0,-0.0013
2514.0,-0.0013
2513.0,-0.0013
2512.0,-0.0013
2511.0,-0.0012
2510.0,-0.0012
2509.0,-0.0012
2508.0,-0.0013
2507.0,-0.0013
2506.0,-0.0014
2505.0,-0.0014
2504.0,-0.0013
2503.0,-0.0012
2502.0,-0.0012
2501.0,-0.0012
2500.0,-0.0012
2499.0,-0.0012
2498.0,-0.0012
2497.0,-0.0012
2496.0,-0.0013
2495.0,-0.0013
2494.0,-0.0013
2493.0,-0.0013
2492.0,-0.0013
2491.0,-0.0013
2490.0,-0.0013
2489.0,-0.0013
2488.0,-0.0013
2487.0,-0.0013
2486.0,-0.0013
2485.0,-0.0013
2484.0,-0.0012
2483.0,-0.0012
2482.0,-0.0012
2481.0,-0.0013
2480.0,-0.0013
2479.0,-0.0013
2478.0,-0.0014
2477.0,-0.0014
2476.0,-0.0014
2475.0,-0.0014
2474.0,-0.0014
2473.0,-0.0013
2472.0,-0.0012
2471.0,-0.0012
2470.0,-0.0013
2469.0,-0.0013
2468.0,-0.0013
2467.0,-0.0013
2466.0,-0.0013
2465.0,-0.0013
2464.0,-0.0013
2463.0,-0.0013
2462.0,-0.0013
2461.0,-0.0013
2460.0,-0.0013
2459.0,-0.0013
2458.0,-0.0012
2457.0,-0.0012
2456.0,-0.0012
2455.0,-0.0012
2454.0,-0.0012
2453.0,-0.0012
2452.0,-0.0012
2451.0,-0.0012
2450.0,-0.0012
2449.0,-0.0013
2448.0,-0.0013
2447.0,-0.0013
2446.0,-0.0012
2445.0,-0.0012
2444.0,-0.0012
2443.0,-0.0012
2442.0,-0.0012
2441.0,-0.0011
2440.0,-0.0011
2439.0,-0.001
2438.0,-0.001
2437.0,-0.0011
2436.0,-0.0011
2435.0,-0.0012
2434.0,-0.0012
2433.0,-0.0012
2432.0,-0.0012
2431.0,-0.0012
2430.0,-0.0011
2429.0,-0.0011
2428.0,-0.0011
2427.0,-0.0011
2426.0,-0.0011
2425.0,-0.0011
2424.0,-0.0012
2423.0,-0.0012
2422.0,-0.0013
2421.0,-0.0013
2420.0,-0.0013
2419.0,-0.0012
2418.0,-0.0012
2417.0,-0.0012
2416.0,-0.0011
2415.0,-0.0011
2414.0,-0.0011
2413.0,-0.0011
2412.0,-0.0011
2411.0,-0.0011
2410.0,-0.0012
2409.0,-0.0011
2408.0,-0.0011
2407.0,-0.0011
2406.0,-0.0011
2405.0,-0.0011
2404.0,-0.0011
2403.0,-0.0011
2402.0,-0.0012
2401.0,-0.0012
2400.0,-0.0012
2399.0,-0.0012
2398.0,-0.0011
2397.0,-0.0011
2396.0,-0.0011
2395.0,-0.0012
2394.0,-0.0013
2393.0,-0.0013
2392.0,-0.0012
2391.0,-0.0012
2390.0,-0.0011
2389.0,-0.0011
2388.0,-0.0011
2387.0,-0.0011
2386.0,-0.0011
2385.0,-0.0011
2384.0,-0.0011
2383.0,-0.0012
2382.0,-0.0012
2381.0,-0.0012
2380.0,-0.0011
2379.0,-0.001
2378.0,-0.001
2377.0,-0.0011
2376.0,-0.0014
2375.0,-0.0016
2374.0,-0.0017
2373.0,-0.0014
2372.0,-0.0009
2371.0,-0.0006
2370.0,-0.0008
2369.0,-0.0016
2368.0,-0.0028
2367.0,-0.0038
2366.0,-0.0043
2365.0,-0.0038
2364.0,-0.0021
2363.0,0.0001
2362.0,0.0018
2361.0,0.0021
2360.0,0.0017
2359.0,0.0016
2358.0,0.002
2357.0,0.0021
2356.0,0.0014
2355.0,0.0
2354.0,-0.0016
2353.0,-0.0029
2352.0,-0.0035
2351.0,-0.0033
2350.0,-0.0028
2349.0,-0.0024
2348.0,-0.0025
2347.0,-0.0029
2346.0,-0.0033
2345.0,-0.0032
2344.0,-0.0024
2343.0,-0.0017
2342.0,-0.0016
2341.0,-0.0022
2340.0,-0.0028
2339.0,-0.0031
2338.0,-0.0028
2337.0,-0.0023
2336.0,-0.0021
2335.0,-0.0026
2334.0,-0.0033
2333.0,-0.0036
2332.0,-0.0034
2331.0,-0.0029
2330.0,-0.0024
2329.0,-0.0019
2328.0,-0.0016
2327.0,-0.0016
2326.0,-0.0016
2325.0,-0.0014
2324.0,-0.0011
2323.0,-0.0007
2322.0,-0.0006
2321.0,-0.0006
2320.0,-0.0008
2319.0,-0.001
2318.0,-0.0011
2317.0,-0.0012
2316.0,-0.0013
2315.0,-0.0014
2314.0,-0.0013
2313.0,-0.0013
2312.0,-0.0012
2311.0,-0.0011
2310.0,-0.001
2309.0,-0.0009
2308.0,-0.0008
2307.0,-0.0008
2306.0,-0.0008
2305.0,-0.0008
2304.0,-0.0009
2303.0,-0.0008
2302.0,-0.0008
2301.0,-0.0008
2300.0,-0.0008
2299.0,-0.0007
2298.0,-0.0007
2297.0,-0.0007
2296.0,-0.0007
2295.0,-0.0008
2294.0,-0.0008
2293.0,-0.0008
2292.0,-0.0006
2291.0,-0.0005
2290.0,-0.0005
2289.0,-0.0005
2288.0,-0.0006
2287.0,-0.0006
2286.0,-0.0006
2285.0,-0.0006
2284.0,-0.0006
2283.0,-0.0007
2282.0,-0.0007
2281.0,-0.0007
2280.0,-0.0007
2279.0,-0.0006
2278.0,-0.0005
2277.0,-0.0005
2276.0,-0.0005
2275.0,-0.0005
2274.0,-0.0005
2273.0,-0.0005
2272.0,-0.0004
2271.0,-0.0004
2270.0,-0.0004
2269.0,-0.0005
2268.0,-0.0005
2267.0,-0.0006
2266.0,-0.0006
2265.0,-0.0006
2264.0,-0.0005
2263.0,-0.0005
2262.0,-0.0005
2261.0,-0.0005
2260.0,-0.0005
2259.0,-0.0005
2258.0,-0.0005
2257.0,-0.0005
2256.0,-0.0005
2255.0,-0.0005
2254.0,-0.0005
2253.0,-0.0005
2252.0,-0.0006
2251.0,-0.0006
2250.0,-0.0006
2249.0,-0.0006
2248.0,-0.0006
2247.0,-0.0006
2246.0,-0.0006
2245.0,-0.0007
2244.0,-0.0007
2243.0,-0.0007
2242.0,-0.0007
2241.0,-0.0007
2240.0,-0.0007
2239.0,-0.0006
2238.0,-0.0006
2237.0,-0.0006
2236.0,-0.0007
2235.0,-0.0007
2234.0,-0.0007
2233.0,-0.0006
2232.0,-0.0006
2231.0,-0.0006
2230.0,-0.0006
2229.0,-0.0007
2228.0,-0.0007
2227.0,-0.0007
2226.0,-0.0007
2225.0,-0.0007
2224.0,-0.0007
2223.0,-0.0007
2222.0,-0.0008
2221.0,-0.0008
2220.0,-0.0008
2219.0,-0.0007
2218.0,-0.0007
2217.0,-0.0007
2216.0,-0.0008
2215.0,-0.0008
2214.0,-0.0008
2213.0,-0.0008
2212.0,-0.0008
2211.0,-0.0008
2210.0,-0.0008
2209.0,-0.0008
2208.0,-0.0008
2207.0,-0.0008
2206.0,-0.0008
2205.0,-0.0008
2204.0,-0.0008
2203.0,-0.0009
2202.0,-0.0009
2201.0,-0.0008
2200.0,-0.0008
2199.0,-0.0008
2198.0,-0.0008
2197.0,-0.0008
2196.0,-0.0008
2195.0,-0.0008
2194.0,-0.0008
2193.0,-0.0008
2192.0,-0.0008
2191.0,-0.0008
2190.0,-0.0009
2189.0,-0.0009
2188.0,-0.0008
2187.0,-0.0008
2186.0,-0.0008
2185.0,-0.0009
2184.0,-0.0009
2183.0,-0.0009
2182.0,-0.0009
2181.0,-0.0009
2180.0,-0.0009
2179.0,-0.0009
2178.0,-0.001
2177.0,-0.001
2176.0,-0.0011
2175.0,-0.0011
2174.0,-0.0011
2173.0,-0.0011
2172.0,-0.001
2171.0,-0.001
2170.0,-0.0009
2169.0,-0.0009
2168.0,-0.0009
2167.0,-0.0009
2166.0,-0.0009
2165.0,-0.0009
2164.0,-0.001
2163.0,-0.001
2162.0,-0.0011
2161.0,-0.0011
2160.0,-0.0012
2159.0,-0.0012
2158.0,-0.0011
2157.0,-0.0011
2156.0,-0.0011
2155.0,-0.0011
2154.0,-0.0011
2153.0,-0.0011
2152.0,-0.001
2151.0,-0.001
2150.0,-0.0009
2149.0,-0.0009
2148.0,-0.001
2147.0,-0.001
2146.0,-0.0011
2145.0,-0.0011
2144.0,-0.0012
2143.0,-0.0012
2142.0,-0.0012
2141.0,-0.0011
2140.0,-0.001
2139.0,-0.001
2138.0,-0.001
2137.0,-0.001
2136.0,-0.001
2135.0,-0.001
2134.0,-0.001
2133.0,-0.001
2132.0,-0.001
2131.0,-0.0011
2130.0,-0.0011
2129.0,-0.0011
2128.0,-0.0011
2127.0,-0.0011
2126.0,-0.0011
2125.0,-0.001
2124.0,-0.001
2123.0,-0.001
2122.0,-0.001
2121.0,-0.001
2120.0,-0.0011
2119.0,-0.0011
2118.0,-0.0011
2117.0,-0.0011
2116.0,-0.0011
2115.0,-0.0012
2114.0,-0.0012
2113.0,-0.0012
2112.0,-0.0011
2111.0,-0.0011
2110.0,-0.001
2109.0,-0.001
2108.0,-0.0011
2107.0,-0.0011
2106.0,-0.0012
2105.0,-0.0012
2104.0,-0.0012
2103.0,-0.0012
2102.0,-0.0012
2101.0,-0.0012
2100.0,-0.0012
2099.0,-0.0011
2098.0,-0.0011
2097.0,-0.001
2096.0,-0.0011
2095.0,-0.0011
2094.0,-0.0012
2093.0,-0.0012
2092.0,-0.0012
2091.0,-0.0011
2090.0,-0.001
2089.0,-0.001
2088.0,-0.001
2087.0,-0.0011
2086.0,-0.0012
2085.0,-0.0013
2084.0,-0.0013
2083.0,-0.0013
2082.0,-0.0013
2081.0,-0.0013
2080.0,-0.0013
2079.0,-0.0012
2078.0,-0.0012
2077.0,-0.0012
2076.0,-0.0012
2075.0,-0.0013
2074.0,-0.0014
2073.0,-0.0014
2072.0,-0.0013
2071.0,-0.0012
2070.0,-0.0011
2069.0,-0.0011
2068.0,-0.0011
2067.0,-0.0012
2066.0,-0.0012
2065.0,-0.0012
2064.0,-0.0013
2063.0,-0.0013
2062.0,-0.0013
2061.0,-0.0013
2060.0,-0.0013
2059.0,-0.0013
2058.0,-0.0013
2057.0,-0.0013
2056.0,-0.0013
2055.0,-0.0013
2054.0,-0.0013
2053.0,-0.0013
2052.0,-0.0013
2051.0,-0.0013
2050.0,-0.0013
2049.0,-0.0012
2048.0,-0.0012
2047.0,-0.0012
2046.0,-0.0013
2045.0,-0.0013
2044.0,-0.0014
2043.0,-0.0014
2042.0,-0.0014
2041.0,-0.0013
2040.0,-0.0013
2039.0,-0.0014
2038.0,-0.0014
2037.0,-0.0014
2036.0,-0.0014
2035.0,-0.0014
2034.0,-0.0014
2033.0,-0.0014
2032.0,-0.0014
2031.0,-0.0014
2030.0,-0.0014
2029.0,-0.0015
2028.0,-0.0015
2027.0,-0.0014
2026.0,-0.0014
2025.0,-0.0013
2024.0,-0.0012
2023.0,-0.0012
2022.0,-0.0013
2021.0,-0.0013
2020.0,-0.0013
2019.0,-0.0014
2018.0,-0.0014
2017.0,-0.0014
2016.0,-0.0015
2015.0,-0.0015
2014.0,-0.0015
2013.0,-0.0015
2012.0,-0.0015
2011.0,-0.0015
2010.0,-0.0015
2009.0,-0.0015
2008.0,-0.0014
2007.0,-0.0014
2006.0,-0.0015
2005.0,-0.0015
2004.0,-0.0016
2003.0,-0.0016
2002.0,-0.0016
2001.0,-0.0016
2000.0,-0.0015
1999.0,-0.0016
1998.0,-0.0016
1997.0,-0.0016
1996.0,-0.0016
1995.0,-0.0016
1994.0,-0.0016
1993.0,-0.0016
1992.0,-0.0016
1991.0,-0.0015
1990.0,-0.0015
1989.0,-0.0015
1988.0,-0.0015
1987.0,-0.0015
1986.0,-0.0015
1985.0,-0.0015
1984.0,-0.0015
1983.0,-0.0015
1982.0,-0.0015
1981.0,-0.0015
1980.0,-0.0015
1979.0,-0.0016
1978.0,-0.0016
1977.0,-0.0016
1976.0,-0.0016
1975.0,-0.0016
1974.0,-0.0016
1973.0,-0.0016
1972.0,-0.0017
1971.0,-0.0016
1970.0,-0.0016
1969.0,-0.0015
1968.0,-0.0014
1967.0,-0.0014
1966.0,-0.0015
1965.0,-0.0015
1964.0,-0.0015
1963.0,-0.0015
1962.0,-0.0015
1961.0,-0.0015
1960.0,-0.0015
1959.0,-0.0015
1958.0,-0.0015
1957.0,-0.0015
1956.0,-0.0015
1955.0,-0.0015
1954.0,-0.0016
1953.0,-0.0016
1952.0,-0.0016
1951.0,-0.0016
1950.0,-0.0016
1949.0,-0.0016
1948.0,-0.0016
1947.0,-0.0016
1946.0,-0.0017
1945.0,-0.0017
1944.0,-0.0017
1943.0,-0.0017
1942.0,-0.0017
1941.0,-0.0017
1940.0,-0.0016
1939.0,-0.0016
1938.0,-0.0016
1937.0,-0.0016
1936.0,-0.0016
1935.0,-0.0016
1934.0,-0.0016
1933.0,-0.0017
1932.0,-0.0017
1931.0,-0.0017
1930.0,-0.0016
1929.0,-0.0016
1928.0,-0.0016
1927.0,-0.0016
1926.0,-0.0016
1925.0,-0.0015
1924.0,-0.0015
1923.0,-0.0015
1922.0,-0.0016
1921.0,-0.0016
1920.0,-0.0016
1919.0,-0.0016
1918.0,-0.0016
1917.0,-0.0016
1916.0,-0.0016
1915.0,-0.0017
1914.0,-0.0017
1913.0,-0.0018
1912.0,-0.0018
1911.0,-0.0018
1910.0,-0.0017
1909.0,-0.0017
1908.0,-0.0016
1907.0,-0.0016
1906.0,-0.0016
1905.0,-0.0016
1904.0,-0.0016
1903.0,-0.0016
1902.0,-0.0016
1901.0,-0.0016
1900.0,-0.0015
1899.0,-0.0015
1898.0,-0.0015
1897.0,-0.0015
1896.0,-0.0015
1895.0,-0.0016
1894.0,-0.0016
1893.0,-0.0016
1892.0,-0.0016
1891.0,-0.0017
1890.0,-0.0017
1889.0,-0.0017
1888.0,-0.0017
1887.0,-0.0016
1886.0,-0.0016
1885.0,-0.0015
1884.0,-0.0016
1883.0,-0.0016
1882.0,-0.0016
1881.0,-0.0016
1880.0,-0.0016
1879.0,-0.0015
1878.0,-0.0015
1877.0,-0.0015
1876.0,-0.0015
1875.0,-0.0015
1874.0,-0.0015
1873.0,-0.0015
1872.0,-0.0015
1871.0,-0.0015
1870.0,-0.0015
1869.0,-0.0016
1868.0,-0.0016
1867.0,-0.0016
1866.0,-0.0016
1865.0,-0.0015
1864.0,-0.0015
1863.0,-0.0015
1862.0,-0.0015
1861.0,-0.0015
1860.0,-0.0015
1859.0,-0.0014
1858.0,-0.0014
1857.0,-0.0014
1856.0,-0.0014
1855.0,-0.0015
1854.0,-0.0015
1853.0,-0.0015
1852.0,-0.0015
1851.0,-0.0015
1850.0,-0.0015
1849.0,-0.0015
1848.0,-0.0015
1847.0,-0.0015
1846.0,-0.0015
1845.0,-0.0016
1844.0,-0.0016
1843.0,-0.0017
1842.0,-0.0017
1841.0,-0.0017
1840.0,-0.0016
1839.0,-0.0016
1838.0,-0.0016
1837.0,-0.0016
1836.0,-0.0015
1835.0,-0.0015
1834.0,-0.0015
1833.0,-0.0016
1832.0,-0.0016
1831.0,-0.0016
1830.0,-0.0016
1829.0,-0.0016
1828.0,-0.0015
1827.0,-0.0015
1826.0,-0.0015
1825.0,-0.0016
1824.0,-0.0016
1823.0,-0.0016
1822.0,-0.0016
1821.0,-0.0016
1820.0,-0.0016
1819.0,-0.0015
1818.0,-0.0016
1817.0,-0.0016
1816.0,-0.0016
1815.0,-0.0016
1814.0,-0.0016
1813.0,-0.0016
1812.0,-0.0017
1811.0,-0.0017
1810.0,-0.0017
1809.0,-0.0016
1808.0,-0.0016
1807.0,-0.0016
1806.0,-0.0016
1805.0,-0.0016
1804.0,-0.0016
1803.0,-0.0016
1802.0,-0.0016
1801.0,-0.0016
1800.0,-0.0016
1799.0,-0.0016
1798.0,-0.0016
1797.0,-0.0016
1796.0,-0.0016
1795.0,-0.0017
1794.0,-0.0017
1793.0,-0.0017
1792.0,-0.0016
1791.0,-0.0016
1790.0,-0.0016
1789.0,-0.0016
1788.0,-0.0016
1787.0,-0.0015
1786.0,-0.0015
1785.0,-0.0015
1784.0,-0.0016
1783.0,-0.0016
1782.0,-0.0017
1781.0,-0.0017
1780.0,-0.0016
1779.0,-0.0016
1778.0,-0.0016
1777.0,-0.0015
1776.0,-0.0015
1775.0,-0.0015
1774.0,-0.0016
1773.0,-0.0017
1772.0,-0.0017
1771.0,-0.0016
1770.0,-0.0015
1769.0,-0.0013
1768.0,-0.0013
1767.0,-0.0013
1766.0,-0.0013
1765.0,-0.0014
1764.0,-0.0014
1763.0,-0.0014
1762.0,-0.0015
1761.0,-0.0014
1760.0,-0.0014
1759.0,-0.0014
1758.0,-0.0014
1757.0,-0.0013
1756.0,-0.0013
1755.0,-0.0013
1754.0,-0.0013
1753.0,-0.0013
1752.0,-0.0013
1751.0,-0.0013
1750.0,-0.0013
1749.0,-0.0013
1748.0,-0.0013
1747.0,-0.0013
1746.0,-0.0012
1745.0,-0.0012
1744.0,-0.0013
1743.0,-0.0013
1742.0,-0.0014
1741.0,-0.0014
1740.0,-0.0013
1739.0,-0.0013
1738.0,-0.0013
1737.0,-0.0013
1736.0,-0.0012
1735.0,-0.0011
1734.0,-0.001
1733.0,-0.001
1732.0,-0.001
1731.0,-0.0011
1730.0,-0.0011
1729.0,-0.0011
1728.0,-0.0011
1727.0,-0.0011
1726.0,-0.0011
1725.0,-0.001
1724.0,-0.001
1723.0,-0.001
1722.0,-0.001
1721.0,-0.0011
1720.0,-0.0011
1719.0,-0.001
1718.0,-0.0009
1717.0,-0.0008
1716.0,-0.0007
1715.0,-0.0007
1714.0,-0.0007
1713.0,-0.0006
1712.0,-0.0006
1711.0,-0.0005
1710.0,-0.0005
1709.0,-0.0005
1708.0,-0.0004
1707.0,-0.0004
1706.0,-0.0004
1705.0,-0.0004
1704.0,-0.0003
1703.0,-0.0003
1702.0,-0.0002
1701.0,-0.0
1700.0,0.0001
1699.0,0.0001
1698.0,0.0001
1697.0,0.0001
1696.0,0.0002
1695.0,0.0003
1694.0,0.0004
1693.0,0.0004
1692.0,0.0004
1691.0,0.0005
1690.0,0.0006
1689.0,0.0007
1688.0,0.0008
1687.0,0.0008
1686.0,0.0009
1685.0,0.001
1684.0,0.0011
1683.0,0.0013
1682.0,0.0015
1681.0,0.0016
1680.0,0.0017
1679.0,0.0018
1678.0,0.0018
1677.0,0.0019
1676.0,0.002
1675.0,0.0021
1674.0,0.0021
1673.0,0.0022
1672.0,0.0022
1671.0,0.0023
1670.0,0.0024
1669.0,0.0026
1668.0,0.0029
1667.0,0.003
1666.0,0.0031
1665.0,0.0032
1664.0,0.0034
1663.0,0.0036
1662.0,0.0038
1661.0,0.004
1660.0,0.0042
1659.0,0.0043
1658.0,0.0044
1657.0,0.0045
1656.0,0.0045
1655.0,0.0046
1654.0,0.0053
1653.0,0.0066
1652.0,0.0076
1651.0,0.0081
1650.0,0.0084
1649.0,0.0089
1648.0,0.0097
1647.0,0.0107
1646.0,0.0117
1645.0,0.0124
1644.0,0.013
1643.0,0.0136
1642.0,0.0142
1641.0,0.0148
1640.0,0.0152
1639.0,0.0156
1638.0,0.0158
1637.0,0.0157
1636.0,0.0153
1635.0,0.0147
1634.0,0.0141
1633.0,0.0135
1632.0,0.0129
1631.0,0.0122
1630.0,0.0113
1629.0,0.0103
1628.0,0.0092
1627.0,0.0084
1626.0,0.0077
1625.0,0.0071
1624.0,0.0065
1623.0,0.0059
1622.0,0.0055
1621.0,0.0052
1620.0,0.005
1619.0,0.0047
1618.0,0.0044
1617.0,0.0041
1616.0,0.004
1615.0,0.004
1614.0,0.004
1613.0,0.0039
1612.0,0.0037
1611.0,0.0036
1610.0,0.0034
1609.0,0.0034
1608.0,0.0033
1607.0,0.0032
1606.0,0.0032
1605.0,0.0031
1604.0,0.0029
1603.0,0.0027
1602.0,0.0026
1601.0,0.0025
1600.0,0.0024
1599.0,0.0023
1598.0,0.0022
1597.0,0.0021
1596.0,0.002
1595.0,0.0019
1594.0,0.0019
1593.0,0.0019
1592.0,0.0019
1591.0,0.0018
1590.0,0.0018
1589.0,0.0016
1588.0,0.0015
1587.0,0.0014
1586.0,0.0014
1585.0,0.0013
1584.0,0.0012
1583.0,0.0011
1582.0,0.0011
1581.0,0.001
1580.0,0.001
1579.0,0.0009
1578.0,0.0008
1577.0,0.0006
1576.0,0.0005
1575.0,0.0005
1574.0,0.0005
1573.0,0.0005
1572.0,0.0004
1571.0,0.0003
1570.0,0.0003
1569.0,0.0003
1568.0,0.0003
1567.0,0.0003
1566.0,0.0003
1565.0,0.0002
1564.0,0.0002
1563.0,0.0001
1562.0,0.0
1561.0,-0.0
1560.0,-0.0001
1559.0,-0.0001
1558.0,-0.0001
1557.0,-0.0
1556.0,-0.0
1555.0,-0.0
1554.0,-0.0
1553.0,-0.0
1552.0,-0.0001
1551.0,-0.0002
1550.0,-0.0002
1549.0,-0.0002
1548.0,-0.0002
1547.0,-0.0002
1546.0,-0.0001
1545.0,-0.0001
1544.0,-0.0
1543.0,-0.0
1542.0,0.0
1541.0,0.0001
1540.0,0.0001
1539.0,0.0
1538.0,0.0
1537.0,0.0
1536.0,0.0
1535.0,0.0001
1534.0,0.0001
1533.0,0.0001
1532.0,0.0001
1531.0,0.0
1530.0,-0.0
1529.0,-0.0001
1528.0,-0.0001
1527.0,-0.0001
1526.0,-0.0001
1525.0,-0.0002
1524.0,-0.0002
1523.0,-0.0003
1522.0,-0.0003
1521.0,-0.0003
1520.0,-0.0002
1519.0,-0.0003
1518.0,-0.0003
1517.0,-0.0004
1516.0,-0.0004
1515.0,-0.0004
1514.0,-0.0004
1513.0,-0.0005
1512.0,-0.0005
1511.0,-0.0004
1510.0,-0.0004
1509.0,-0.0003
1508.0,-0.0003
1507.0,-0.0006
1506.0,-0.0008
1505.0,-0.0009
1504.0,-0.0008
1503.0,-0.0007
1502.0,-0.0007
1501.0,-0.0007
1500.0,-0.0007
1499.0,-0.0007
1498.0,-0.0007
1497.0,-0.0007
1496.0,-0.0008
1495.0,-0.0008
1494.0,-0.0008
1493.0,-0.0008
1492.0,-0.0007
1491.0,-0.0007
1490.0,-0.0006
1489.0,-0.0006
1488.0,-0.0005
1487.0,-0.0005
1486.0,-0.0004
1485.0,-0.0005
1484.0,-0.0005
1483.0,-0.0006
1482.0,-0.0006
1481.0,-0.0006
1480.0,-0.0005
1479.0,-0.0004
1478.0,-0.0004
1477.0,-0.0003
1476.0,-0.0004
1475.0,-0.0004
1474.0,-0.0004
1473.0,-0.0005
1472.0,-0.0005
1471.0,-0.0005
1470.0,-0.0005
1469.0,-0.0005
1468.0,-0.0005
1467.0,-0.0005
1466.0,-0.0006
1465.0,-0.0006
1464.0,-0.0005
1463.0,-0.0005
1462.0,-0.0005
1461.0,-0.0005
1460.0,-0.0006
1459.0,-0.0006
1458.0,-0.0006
1457.0,-0.0006
1456.0,-0.0005
1455.0,-0.0004
1454.0,-0.0004
1453.0,-0.0004
1452.0,-0.0004
1451.0,-0.0004
1450.0,-0.0004
1449.0,-0.0004
1448.0,-0.0003
1447.0,-0.0002
1446.0,-0.0002
1445.0,-0.0001
1444.0,-0.0001
1443.0,-0.0
1442.0,0.0
1441.0,0.0001
1440.0,0.0002
1439.0,0.0002
1438.0,0.0003
1437.0,0.0004
1436.0,0.0004
1435.0,0.0003
1434.0,0.0002
1433.0,0.0002
1432.0,0.0001
1431.0,-0.0
1430.0,-0.0001
1429.0,-0.0002
1428.0,-0.0002
1427.0,-0.0003
1426.0,-0.0003
1425.0,-0.0003
1424.0,-0.0003
1423.0,-0.0003
1422.0,-0.0003
1421.0,-0.0003
1420.0,-0.0003
1419.0,-0.0004
1418.0,-0.0004
1417.0,-0.0005
1416.0,-0.0005
1415.0,-0.0005
1414.0,-0.0005
1413.0,-0.0004
1412.0,-0.0004
1411.0,-0.0004
1410.0,-0.0005
1409.0,-0.0005
1408.0,-0.0005
1407.0,-0.0006
1406.0,-0.0006
1405.0,-0.0006
1404.0,-0.0005
1403.0,-0.0005
1402.0,-0.0004
1401.0,-0.0004
1400.0,-0.0003
1399.0,-0.0003
1398.0,-0.0005
1397.0,-0.0006
1396.0,-0.0006
1395.0,-0.0006
1394.0,-0.0006
1393.0,-0.0005
1392.0,-0.0005
1391.0,-0.0006
1390.0,-0.0007
1389.0,-0.0007
1388.0,-0.0006
1387.0,-0.0006
1386.0,-0.0005
1385.0,-0.0004
1384.0,-0.0004
1383.0,-0.0004
1382.0,-0.0004
1381.0,-0.0005
1380.0,-0.0005
1379.0,-0.0005
1378.0,-0.0004
1377.0,-0.0004
1376.0,-0.0004
1375.0,-0.0004
1374.0,-0.0004
1373.0,-0.0003
1372.0,-0.0003
1371.0,-0.0003
1370.0,-0.0003
1369.0,-0.0003
1368.0,-0.0003
1367.0,-0.0004
1366.0,-0.0005
1365.0,-0.0005
1364.0,-0.0005
1363.0,-0.0006
1362.0,-0.0006
1361.0,-0.0007
1360.0,-0.0008
1359.0,-0.0008
1358.0,-0.0008
1357.0,-0.0008
1356.0,-0.0008
1355.0,-0.0007
1354.0,-0.0007
1353.0,-0.0008
1352.0,-0.0008
1351.0,-0.0008
1350.0,-0.0009
1349.0,-0.0009
1348.0,-0.0008
1347.0,-0.0008
1346.0,-0.0008
1345.0,-0.0008
1344.0,-0.0009
1343.0,-0.0008
1342.0,-0.0008
1341.0,-0.0007
1340.0,-0.0007
1339.0,-0.0006
1338.0,-0.0007
1337.0,-0.0007
1336.0,-0.0008
1335.0,-0.0009
1334.0,-0.0009
1333.0,-0.0008
1332.0,-0.0008
1331.0,-0.0008
1330.0,-0.0008
1329.0,-0.0008
1328.0,-0.0008
1327.0,-0.0008
1326.0,-0.0008
1325.0,-0.0008
1324.0,-0.0008
1323.0,-0.0008
1322.0,-0.0008
1321.0,-0.0008
1320.0,-0.0008
1319.0,-0.0008
1318.0,-0.0008
1317.0,-0.0007
1316.0,-0.0007
1315.0,-0.0007
1314.0,-0.0007
1313.0,-0.0007
1312.0,-0.0008
1311.0,-0.0008
1310.0,-0.0008
1309.0,-0.0008
1308.0,-0.0007
1307.0,-0.0007
1306.0,-0.0007
1305.0,-0.0007
1304.0,-0.0007
1303.0,-0.0008
1302.0,-0.0008
1301.0,-0.0008
1300.0,-0.0008
1299.0,-0.0008
1298.0,-0.0008
1297.0,-0.0008
1296.0,-0.0008
1295.0,-0.0008
1294.0,-0.0008
1293.0,-0.0008
1292.0,-0.0008
1291.0,-0.0007
1290.0,-0.0007
1289.0,-0.0007
1288.0,-0.0006
1287.0,-0.0006
1286.0,-0.0006
1285.0,-0.0006
1284.0,-0.0006
1283.0,-0.0006
1282.0,-0.0006
1281.0,-0.0006
1280.0,-0.0006
1279.0,-0.0006
1278.0,-0.0006
1277.0,-0.0006
1276.0,-0.0006
1275.0,-0.0006
1274.0,-0.0006
1273.0,-0.0006
1272.0,-0.0005
1271.0,-0.0005
1270.0,-0.0005
1269.0,-0.0006
1268.0,-0.0006
1267.0,-0.0007
1266.0,-0.0007
1265.0,-0.0007
1264.0,-0.0007
1263.0,-0.0007
1262.0,-0.0007
1261.0,-0.0007
1260.0,-0.0007
1259.0,-0.0007
1258.0,-0.0007
1257.0,-0.0007
1256.0,-0.0006
1255.0,-0.0006
1254.0,-0.0006
1253.0,-0.0007
1252.0,-0.0007
1251.0,-0.0008
1250.0,-0.0007
1249.0,-0.0007
1248.0,-0.0006
1247.0,-0.0005
1246.0,-0.0005
1245.0,-0.0005
1244.0,-0.0006
1243.0,-0.0006
1242.0,-0.0006
1241.0,-0.0005
1240.0,-0.0004
1239.0,-0.0004
1238.0,-0.0005
1237.0,-0.0006
1236.0,-0.0006
1235.0,-0.0006
1234.0,-0.0006
1233.0,-0.0006
1232.0,-0.0006
1231.0,-0.0006
1230.0,-0.0006
1229.0,-0.0005
1228.0,-0.0005
1227.0,-0.0004
1226.0,-0.0004
1225.0,-0.0004
1224.0,-0.0004
1223.0,-0.0004
1222.0,-0.0004
1221.0,-0.0004
1220.0,-0.0005
1219.0,-0.0005
1218.0,-0.0005
1217.0,-0.0005
1216.0,-0.0005
1215.0,-0.0005
1214.0,-0.0004
1213.0,-0.0003
1212.0,-0.0003
1211.0,-0.0002
1210.0,-0.0002
1209.0,-0.0003
1208.0,-0.0003
1207.0,-0.0003
1206.0,-0.0003
1205.0,-0.0003
1204.0,-0.0003
1203.0,-0.0003
1202.0,-0.0002
1201.0,-0.0001
1200.0,-0.0001
1199.0,-0.0001
1198.0,-0.0001
1197.0,-0.0001
1196.0,-0.0001
1195.0,-0.0
1194.0,-0.0001
1193.0,-0.0001
1192.0,-0.0
1191.0,0.0
1190.0,0.0001
1189.0,0.0002
1188.0,0.0002
1187.0,0.0002
1186.0,0.0002
1185.0,0.0002
1184.0,0.0003
1183.0,0.0003
1182.0,0.0003
1181.0,0.0004
1180.0,0.0005
1179.0,0.0006
1178.0,0.0006
1177.0,0.0007
1176.0,0.0008
1175.0,0.0008
1174.0,0.0009
1173.0,0.0009
1172.0,0.0009
1171.0,0.0009
1170.0,0.001
1169.0,0.001
1168.0,0.0011
1167.0,0.0011
1166.0,0.0012
1165.0,0.0012
1164.0,0.0013
1163.0,0.0013
1162.0,0.0012
1161.0,0.0012
1160.0,0.0012
1159.0,0.0012
1158.0,0.0013
1157.0,0.0013
1156.0,0.0014
1155.0,0.0015
1154.0,0.0016
1153.0,0.0016
1152.0,0.0016
1151.0,0.0016
1150.0,0.0016
1149.0,0.0017
1148.0,0.0017
1147.0,0.0017
1146.0,0.0018
1145.0,0.0018
1144.0,0.0019
1143.0,0.0019
1142.0,0.002
1141.0,0.002
1140.0,0.002
1139.0,0.0021
1138.0,0.0022
1137.0,0.0022
1136.0,0.0022
1135.0,0.0021
1134.0,0.0021
1133.0,0.0021
1132.0,0.0022
1131.0,0.0023
1130.0,0.0023
1129.0,0.0024
1128.0,0.0024
1127.0,0.0025
1126.0,0.0026
1125.0,0.0026
1124.0,0.0025
1123.0,0.0025
1122.0,0.0024
1121.0,0.0025
1120.0,0.0025
1119.0,0.0025
1118.0,0.0025
1117.0,0.0025
1116.0,0.0026
1115.0,0.0026
1114.0,0.0026
1113.0,0.0026
1112.0,0.0026
1111.0,0.0026
1110.0,0.0027
1109.0,0.0027
1108.0,0.0027
1107.0,0.0026
1106.0,0.0025
1105.0,0.0025
1104.0,0.0025
1103.0,0.0025
1102.0,0.0026
1101.0,0.0026
1100.0,0.0026
1099.0,0.0025
1098.0,0.0025
1097.0,0.0025
1096.0,0.0025
1095.0,0.0025
1094.0,0.0024
1093.0,0.0023
1092.0,0.0023
1091.0,0.0022
1090.0,0.0023
1089.0,0.0024
1088.0,0.0025
1087.0,0.0025
1086.0,0.0024
1085.0,0.0022
1084.0,0.0021
1083.0,0.002
1082.0,0.0019
1081.0,0.0019
1080.0,0.0018
1079.0,0.0018
1078.0,0.0017
1077.0,0.0016
1076.0,0.0016
1075.0,0.0016
1074.0,0.0016
1073.0,0.0016
1072.0,0.0016
1071.0,0.0016
1070.0,0.0016
1069.0,0.0015
1068.0,0.0015
1067.0,0.0014
1066.0,0.0014
1065.0,0.0014
1064.0,0.0014
1063.0,0.0014
1062.0,0.0014
1061.0,0.0014
1060.0,0.0013
1059.0,0.0012
1058.0,0.0011
1057.0,0.0011
1056.0,0.0011
1055.0,0.0011
1054.0,0.0011
1053.0,0.0011
1052.0,0.001
1051.0,0.001
1050.0,0.001
1049.0,0.0011
1048.0,0.0012
1047.0,0.0012
1046.0,0.0012
1045.0,0.0012
1044.0,0.0012
1043.0,0.0012
1042.0,0.0012
1041.0,0.0011
1040.0,0.0011
1039.0,0.0011
1038.0,0.0011
1037.0,0.0011
1036.0,0.0012
1035.0,0.0012
1034.0,0.0011
1033.0,0.001
1032.0,0.001
1031.0,0.0011
1030.0,0.0012
1029.0,0.0012
1028.0,0.0013
1027.0,0.0013
1026.0,0.0013
1025.0,0.0013
1024.0,0.0014
1023.0,0.0014
1022.0,0.0014
1021.0,0.0013
1020.0,0.0012
1019.0,0.0011
1018.0,0.0011
1017.0,0.0012
1016.0,0.0013
1015.0,0.0013
1014.0,0.0013
1013.0,0.0013
1012.0,0.0014
1011.0,0.0014
1010.0,0.0014
1009.0,0.0014
1008.0,0.0013
1007.0,0.0013
1006.0,0.0013
1005.0,0.0013
1004.0,0.0013
1003.0,0.0014
1002.0,0.0014
1001.0,0.0014
1000.0,0.0015
999.0,0.0016
998.0,0.0016
997.0,0.0016
996.0,0.0015
995.0,0.0015
994.0,0.0015
993.0,0.0015
992.0,0.0015
991.0,0.0015
990.0,0.0015
989.0,0.0014
988.0,0.0013
987.0,0.0013
986.0,0.0013
985.0,0.0014
984.0,0.0016
983.0,0.0017
982.0,0.0018
981.0,0.0017
980.0,0.0017
979.0,0.0016
978.0,0.0016
977.0,0.0016
976.0,0.0017
975.0,0.0017
974.0,0.0018
973.0,0.0018
972.0,0.0018
971.0,0.0017
970.0,0.0017
969.0,0.0017
968.0,0.0017
967.0,0.0017
966.0,0.0018
965.0,0.0019
964.0,0.0019
963.0,0.0019
962.0,0.0018
961.0,0.0018
960.0,0.0019
959.0,0.0019
958.0,0.002
957.0,0.002
956.0,0.002
955.0,0.002
954.0,0.0021
953.0,0.0021
952.0,0.002
951.0,0.002
950.0,0.0019
949.0,0.002
948.0,0.0021
947.0,0.0021
946.0,0.0021
945.0,0.0021
944.0,0.0021
943.0,0.0021
942.0,0.0022
941.0,0.0023
940.0,0.0023
939.0,0.0024
938.0,0.0024
937.0,0.0024
936.0,0.0024
935.0,0.0024
934.0,0.0023
933.0,0.0023
932.0,0.0022
931.0,0.0022
930.0,0.0022
929.0,0.0023
928.0,0.0024
927.0,0.0025
926.0,0.0025
925.0,0.0025
924.0,0.0025
923.0,0.0026
922.0,0.0026
921.0,0.0027
920.0,0.0027
919.0,0.0027
918.0,0.0028
917.0,0.0028
916.0,0.0028
915.0,0.0028
914.0,0.0028
913.0,0.0029
912.0,0.0029
911.0,0.0029
910.0,0.0028
909.0,0.0027
908.0,0.0026
907.0,0.0026
906.0,0.0026
905.0,0.0027
904.0,0.0027
903.0,0.0028
902.0,0.0028
901.0,0.0029
900.0,0.003
899.0,0.0031
898.0,0.0032
897.0,0.0033
896.0,0.0033
895.0,0.0032
894.0,0.0032
893.0,0.0031
892.0,0.0031
891.0,0.003
890.0,0.003
889.0,0.003
888.0,0.003
887.0,0.003
886.0,0.0031
885.0,0.0032
884.0,0.0033
883.0,0.0034
882.0,0.0034
881.0,0.0035
880.0,0.0035
879.0,0.0034
878.0,0.0034
877.0,0.0034
876.0,0.0034
875.0,0.0035
874.0,0.0036
873.0,0.0037
872.0,0.0037
871.0,0.0037
870.0,0.0037
869.0,0.0037
868.0,0.0037
867.0,0.0037
866.0,0.0037
865.0,0.0037
864.0,0.0037
863.0,0.0038
862.0,0.0039
861.0,0.0039
860.0,0.004
859.0,0.004
858.0,0.004
857.0,0.004
856.0,0.004
855.0,0.0041
854.0,0.0041
853.0,0.0041
852.0,0.0042
851.0,0.0042
850.0,0.0041
849.0,0.0041
848.0,0.0041
847.0,0.0041
846.0,0.0041
845.0,0.0042
844.0,0.0042
843.0,0.0042
842.0,0.0042
841.0,0.0043
840.0,0.0043
839.0,0.0043
838.0,0.0042
837.0,0.0042
836.0,0.0042
835.0,0.0043
834.0,0.0042
833.0,0.0041
832.0,0.004
831.0,0.0039
830.0,0.004
829.0,0.0041
828.0,0.0041
827.0,0.0041
826.0,0.004
825.0,0.004
824.0,0.0041
823.0,0.0043
822.0,0.0043
821.0,0.0044
820.0,0.0044
819.0,0.0045
818.0,0.0046
817.0,0.0046
816.0,0.0047
815.0,0.0047
814.0,0.0047
813.0,0.0048
812.0,0.0048
811.0,0.0048
810.0,0.0047
809.0,0.0047
808.0,0.0047
807.0,0.0046
806.0,0.0047
805.0,0.0048
804.0,0.0049
803.0,0.005
802.0,0.0049
801.0,0.0048
800.0,0.0048
799.0,0.0048
798.0,0.0049
797.0,0.005
796.0,0.0051
795.0,0.0052
794.0,0.0052
793.0,0.0052
792.0,0.0052
791.0,0.0052
790.0,0.0053
789.0,0.0054
788.0,0.0055
787.0,0.0055
786.0,0.0054
785.0,0.0054
784.0,0.0053
783.0,0.0054
782.0,0.0054
781.0,0.0055
780.0,0.0057
779.0,0.0058
778.0,0.006
777.0,0.0061
776.0,0.0062
775.0,0.0061
774.0,0.0061
773.0,0.0061
772.0,0.0062
771.0,0.0064
770.0,0.0065
769.0,0.0065
768.0,0.0065
767.0,0.0065
766.0,0.0063
765.0,0.0063
764.0,0.0064
763.0,0.0067
762.0,0.007
761.0,0.0072
760.0,0.0071
759.0,0.0069
758.0,0.0067
757.0,0.0066
756.0,0.0066
755.0,0.0067
754.0,0.007
753.0,0.0073
752.0,0.0075
751.0,0.0076
750.0,0.0076
749.0,0.0077
748.0,0.0077
747.0,0.0077
746.0,0.0078
745.0,0.0078
744.0,0.0079
743.0,0.0081
742.0,0.0084
741.0,0.0086
740.0,0.0087
739.0,0.0085
738.0,0.0083
737.0,0.0081
736.0,0.008
735.0,0.0081
734.0,0.0082
733.0,0.0083
732.0,0.0083
731.0,0.0083
730.0,0.0083
729.0,0.0083
728.0,0.0085
727.0,0.0087
726.0,0.009
725.0,0.0092
724.0,0.0095
723.0,0.0098
722.0,0.0101
721.0,0.0102
720.0,0.0103
719.0,0.0104
718.0,0.0106
717.0,0.0109
716.0,0.011
715.0,0.0108
714.0,0.0106
713.0,0.0105
712.0,0.0104
711.0,0.0104
710.0,0.0102
709.0,0.0102
708.0,0.0105
707.0,0.0109
706.0,0.0112
705.0,0.0113
704.0,0.0111
703.0,0.0109
702.0,0.0107
701.0,0.0109
700.0,0.0112
699.0,0.0115
698.0,0.0117
697.0,0.0117
696.0,0.0117
695.0,0.0119
694.0,0.012
693.0,0.0119
692.0,0.0116
691.0,0.0114
690.0,0.0116
689.0,0.0125
688.0,0.0135
687.0,0.014
686.0,0.014
685.0,0.0135
684.0,0.0128
683.0,0.0121
682.0,0.0117
681.0,0.0117
680.0,0.012
679.0,0.0123
678.0,0.0124
677.0,0.0123
676.0,0.0121
675.0,0.0118
674.0,0.0117
673.0,0.0119
672.0,0.0123
671.0,0.0129
670.0,0.0138
669.0,0.015
668.0,0.0154
667.0,0.0148
666.0,0.0144
665.0,0.0145
664.0,0.0147
663.0,0.0151
662.0,0.0153
661.0,0.0152
660.0,0.015
659.0,0.0147
658.0,0.0145
657.0,0.0142
656.0,0.0141
655.0,0.0142
654.0,0.0146
653.0,0.0151
652.0,0.0154
651.0,0.0154
650.0,0.0154
649.0,0.0155
648.0,0.0157
647.0,0.0158
646.0,0.0159
645.0,0.0161
644.0,0.0162
643.0,0.0163
642.0,0.0165
641.0,0.0167
640.0,0.0166
639.0,0.0163
638.0,0.0162
637.0,0.0167
636.0,0.0178
635.0,0.0193
634.0,0.0206
633.0,0.0215
632.0,0.0216
631.0,0.021
630.0,0.0201
629.0,0.0194
628.0,0.0192
627.0,0.0193
626.0,0.0194
625.0,0.0195
624.0,0.0195
623.0,0.0194
622.0,0.0191
621.0,0.0187
620.0,0.0181
619.0,0.0174
618.0,0.017
617.0,0.017
616.0,0.0176
615.0,0.0181
614.0,0.0185
613.0,0.0186
612.0,0.0185
611.0,0.0184
610.0,0.0182
609.0,0.018
608.0,0.018
607.0,0.0181
606.0,0.0181
605.0,0.0181
604.0,0.018
603.0,0.0177
602.0,0.0177
601.0,0.018
600.0,0.0189
