nm,Intensity
528.65,1834.7
528.734,1832.95
528.819,1834.8
528.903,1834.6
528.987,1834.15
529.071,1835.7
529.155,1833.8
529.239,1834.55
529.324,1834.15
529.408,1836.65
529.492,1834.75
529.576,1834.1
529.66,1834.6
529.745,1835.75
529.829,1835.0
529.913,1835.1
529.997,1835.25
530.081,1834.35
530.165,1834.2
530.25,1834.75
530.334,1834.9
530.418,1833.6
530.502,1834.35
530.586,1835.5
530.67,1835.15
530.754,1835.1
530.839,1836.0
530.923,1835.35
531.007,1836.9
531.091,1836.9
531.175,1836.85
531.259,1837.25
531.344,1839.0
531.428,1842.7
531.512,1843.05
531.596,1848.2
531.68,1869.55
531.764,1961.25
531.848,2354.2
531.933,3501.8
532.017,4709.25
532.101,5977.75
532.185,4966.0
532.269,3204.55
532.353,2237.2
532.437,1884.35
532.521,1842.05
532.606,1837.85
532.69,1837.2
532.774,1835.1
532.858,1836.45
532.942,1835.9
533.026,1835.65
533.11,1834.05
533.194,1834.5
533.279,1836.1
533.363,1835.1
533.447,1838.05
533.531,1845.2
533.615,1865.65
533.699,1896.0
533.783,1944.6
533.867,1999.55
533.951,2028.05
534.036,2046.0
534.12,2053.25
534.204,2051.25
534.288,2056.75
534.372,2052.3
534.456,2053.15
534.54,2065.5
534.624,2077.75
534.708,2110.25
534.792,2125.0
534.877,2147.4
534.961,2162.5
535.045,2188.45
535.129,2193.0
535.213,2162.5
535.297,2139.1
535.381,2092.85
535.465,2061.4
535.549,2033.1
535.633,2008.85
535.717,2003.35
535.801,1985.85
535.886,1979.95
535.97,1976.5
536.054,1971.7
536.138,1968.5
536.222,1965.05
536.306,1969.05
536.39,1976.25
536.474,1979.45
536.558,1983.15
536.642,1997.5
536.726,2008.85
536.81,2032.2
536.894,2045.45
536.978,2062.8
537.062,2065.3
537.146,2066.7
537.231,2057.8
537.315,2027.75
537.399,2005.9
537.483,1995.65
537.567,1989.7
537.651,1984.35
537.735,1975.3
537.819,1974.0
537.903,1976.4
537.987,1967.7
538.071,1961.65
538.155,1969.0
538.239,1963.45
538.323,1965.9
538.407,1971.0
538.491,1966.0
538.575,1968.05
538.659,1970.65
538.743,1972.9
538.827,1973.65
538.911,1982.75
538.995,1988.75
539.079,1994.7
539.163,2011.6
539.247,2011.9
539.331,2002.8
539.415,2001.8
539.499,1991.4
539.583,1985.65
539.667,1981.4
539.751,1971.55
539.835,1963.3
539.919,1961.5
540.003,1962.45
540.087,1958.3
540.171,1955.6
540.255,1954.25
540.339,1949.1
540.423,1949.7
540.507,1949.6
540.591,1947.8
540.675,1953.4
540.759,1951.65
540.843,1954.0
540.927,1964.15
541.011,1973.3
541.095,1977.0
541.179,1992.35
541.263,1994.55
541.347,1991.3
541.431,1988.2
541.515,1990.0
541.599,1975.1
541.683,1970.4
541.767,1964.95
541.851,1962.4
541.935,1956.25
542.019,1949.5
542.103,1952.5
542.187,1957.9
542.271,1955.05
542.355,1952.65
542.439,1952.1
542.523,1956.7
542.607,1951.45
542.691,1950.85
542.775,1951.95
542.859,1957.0
542.943,1966.6
543.027,1970.3
543.111,1977.9
543.195,1981.65
543.279,2004.75
543.363,2034.75
543.446,2096.45
543.53,2162.05
543.614,2210.95
543.698,2216.2
543.782,2173.8
543.866,2106.85
543.95,2060.8
544.034,2021.25
544.118,2007.4
544.202,1997.55
544.286,1986.0
544.37,1979.45
544.454,1977.85
544.538,1972.45
544.622,1974.0
544.706,1971.6
544.789,1977.7
544.873,1982.2
544.957,1981.55
545.041,1996.95
545.125,2009.85
545.209,2029.4
545.293,2043.9
545.377,2048.45
545.461,2031.5
545.545,2021.05
545.629,2003.8
545.713,1989.3
545.796,1976.25
545.88,1969.7
545.964,1971.95
546.048,1959.05
546.132,1962.2
546.216,1964.35
546.3,1963.3
546.384,1962.6
546.468,1959.55
546.552,1960.45
546.635,1960.75
546.719,1964.05
546.803,1966.15
546.887,1966.0
546.971,1967.6
547.055,1977.15
547.139,1983.15
547.223,1989.3
547.306,2012.3
547.39,2021.8
547.474,2034.35
547.558,2030.1
547.642,2020.1
547.726,2009.0
547.81,2006.2
547.894,1980.8
547.977,1982.8
548.061,1968.8
548.145,1966.75
548.229,1973.6
548.313,1974.5
548.397,1972.1
548.481,1964.95
548.564,1965.1
548.648,1958.0
548.732,1960.4
548.816,1958.8
548.9,1952.1
548.984,1956.55
549.068,1959.15
549.151,1959.0
549.235,1957.95
549.319,1959.9
549.403,1956.45
549.487,1957.55
549.571,1950.95
549.655,1952.45
549.738,1960.6
549.822,1950.35
549.906,1952.05
549.99,1955.3
550.074,1959.0
550.158,1956.5
550.241,1956.8
550.325,1958.65
550.409,1957.8
550.493,1958.55
550.577,1967.5
550.66,1959.2
550.744,1964.4
550.828,1958.95
550.912,1959.15
550.996,1961.35
551.08,1965.1
551.163,1960.65
551.247,1967.15
551.331,1962.25
551.415,1958.4
551.499,1965.25
551.582,1964.15
551.666,1968.7
551.75,1972.65
551.834,1961.55
551.918,1961.65
552.001,1969.95
552.085,1964.6
552.169,1967.75
552.253,1957.35
552.337,1963.5
552.42,1962.55
552.504,1962.25
552.588,1963.4
552.672,1968.45
552.755,1966.8
552.839,1961.95
552.923,1969.45
553.007,1970.1
553.091,1965.45
553.174,1971.0
553.258,1963.25
553.342,1971.6
553.426,1967.85
553.509,1967.5
553.593,1968.1
553.677,1970.0
553.761,1968.6
553.844,1965.7
553.928,1969.8
554.012,1972.4
554.096,1971.95
554.179,1974.9
554.263,1974.75
554.347,1976.9
554.431,1978.5
554.514,1983.05
554.598,1989.65
554.682,1988.8
554.766,1988.05
554.849,1988.2
554.933,1991.35
555.017,1997.75
555.101,1990.6
555.184,1995.4
555.268,1996.55
555.352,2008.75
555.436,2020.7
555.519,2027.95
555.603,2049.8
555.687,2080.9
555.771,2133.9
555.854,2236.9
555.938,2360.3
556.022,2461.95
556.105,2496.8
556.189,2426.65
556.273,2299.95
556.357,2200.8
556.44,2128.2
556.524,2107.45
556.608,2129.0
556.691,2140.55
556.775,2184.75
556.859,2236.85
556.943,2288.0
557.026,2352.9
557.11,2369.1
557.194,2315.45
557.277,2225.7
557.361,2141.75
557.445,2096.95
557.528,2072.25
557.612,2053.0
557.696,2040.7
557.779,2029.5
557.863,2024.6
557.947,2022.25
558.031,2022.75
558.114,2024.15
558.198,2013.35
558.282,2010.7
558.365,2016.55
558.449,2015.15
558.533,2023.4
558.616,2024.15
558.7,2035.15
558.784,2058.65
558.867,2059.95
558.951,2057.8
559.035,2051.65
559.118,2026.9
559.202,2027.4
559.286,2013.0
559.369,2009.3
559.453,2007.95
559.537,2004.1
559.62,2010.95
559.704,2016.05
559.788,2023.35
559.871,2026.95
559.955,2038.95
560.038,2060.0
560.122,2074.0
560.206,2086.4
560.289,2080.4
560.373,2065.8
560.457,2048.8
560.54,2039.4
560.624,2039.8
560.708,2046.25
560.791,2057.9
560.875,2084.35
560.958,2109.25
561.042,2162.8
561.126,2215.0
561.209,2250.3
561.293,2242.35
561.377,2183.65
561.46,2117.15
561.544,2078.75
561.627,2063.95
561.711,2079.5
561.795,2084.9
561.878,2124.2
561.962,2142.4
562.045,2141.7
562.129,2119.35
562.213,2102.5
562.296,2076.5
562.38,2067.6
562.463,2057.45
562.547,2053.75
562.631,2051.75
562.714,2046.8
562.798,2049.65
562.881,2069.25
562.965,2081.95
563.049,2110.75
563.132,2137.8
563.216,2144.15
563.299,2135.65
563.383,2142.5
563.467,2128.35
563.55,2100.0
563.634,2069.95
563.717,2058.65
563.801,2047.65
563.884,2033.25
563.968,2031.05
564.052,2034.8
564.135,2036.9
564.219,2037.1
564.302,2031.8
564.386,2030.7
564.469,2036.95
564.553,2036.0
564.636,2031.3
564.72,2031.0
564.804,2031.4
564.887,2041.05
564.971,2040.2
565.054,2040.3
565.138,2059.2
565.221,2064.35
565.305,2069.5
565.388,2061.4
565.472,2063.75
565.556,2053.55
565.639,2054.6
565.723,2042.25
565.806,2045.35
565.89,2043.95
565.973,2048.15
566.057,2048.55
566.14,2046.5
566.224,2053.85
566.307,2059.7
566.391,2068.25
566.474,2100.9
566.558,2130.45
566.641,2199.35
566.725,2256.8
566.808,2322.6
566.892,2362.7
566.975,2390.8
567.059,2373.05
567.142,2335.4
567.226,2335.5
567.309,2334.1
567.393,2329.3
567.476,2305.4
567.56,2242.4
567.643,2180.6
567.727,2121.65
567.81,2083.8
567.894,2071.35
567.977,2073.5
568.061,2060.8
568.144,2059.8
568.228,2066.2
568.311,2069.35
568.395,2072.9
568.478,2078.4
568.562,2088.2
568.645,2099.2
568.729,2100.7
568.812,2122.7
568.896,2154.2
568.979,2179.55
569.063,2212.45
569.146,2191.8
569.23,2174.65
569.313,2140.85
569.396,2113.75
569.48,2098.35
569.563,2088.05
569.647,2080.4
569.73,2068.45
569.814,2082.8
569.897,2080.85
569.981,2083.0
570.064,2099.55
570.148,2106.05
570.231,2110.2
570.314,2112.2
570.398,2104.5
570.481,2089.05
570.565,2082.15
570.648,2082.15
570.732,2075.0
570.815,2079.95
570.898,2080.1
570.982,2085.25
571.065,2082.35
571.149,2090.8
571.232,2101.1
571.316,2105.2
571.399,2118.5
571.482,2131.65
571.566,2136.95
571.649,2148.45
571.733,2148.1
571.816,2150.15
571.9,2150.6
571.983,2146.8
572.066,2153.2
572.15,2145.65
572.233,2169.6
572.317,2229.7
572.4,2299.2
572.483,2375.5
572.567,2464.95
572.65,2516.5
572.734,2519.15
572.817,2445.45
572.9,2336.85
572.984,2251.6
573.067,2197.4
573.15,2177.1
573.234,2159.15
573.317,2165.6
573.401,2196.3
573.484,2224.6
573.567,2268.1
573.651,2286.85
573.734,2266.9
573.818,2248.3
573.901,2222.5
573.984,2188.9
574.068,2174.7
574.151,2158.1
574.234,2151.45
574.318,2143.9
574.401,2122.2
574.484,2099.15
574.568,2088.75
574.651,2088.8
574.734,2089.15
574.818,2078.3
574.901,2078.85
574.985,2075.65
575.068,2081.35
575.151,2080.9
575.235,2089.9
575.318,2077.85
575.401,2076.0
575.485,2088.2
575.568,2091.45
575.651,2096.0
575.735,2102.65
575.818,2115.6
575.901,2147.05
575.985,2211.15
576.068,2268.9
576.151,2314.0
576.235,2332.0
576.318,2332.25
576.401,2328.8
576.484,2343.5
576.568,2393.1
576.651,2468.7
576.734,2548.55
576.818,2635.35
576.901,2727.65
576.984,2738.55
577.068,2677.65
577.151,2560.85
577.234,2435.25
577.318,2315.1
577.401,2229.0
577.484,2187.3
577.567,2149.5
577.651,2127.2
577.734,2116.8
577.817,2108.15
577.901,2108.75
577.984,2107.25
578.067,2099.6
578.15,2093.3
578.234,2084.7
578.317,2089.5
578.4,2082.45
578.484,2093.65
578.567,2092.0
578.65,2088.95
578.733,2084.45
578.817,2089.3
578.9,2082.8
578.983,2086.25
579.066,2076.05
579.15,2091.35
579.233,2085.75
579.316,2077.95
579.399,2082.45
579.483,2080.45
579.566,2087.2
579.649,2085.2
579.732,2080.1
579.816,2079.1
579.899,2090.35
579.982,2082.0
580.065,2085.4
580.149,2084.95
580.232,2084.85
580.315,2088.75
580.398,2089.1
580.482,2092.9
580.565,2081.7
580.648,2088.85
580.731,2090.3
580.815,2084.9
580.898,2083.95
580.981,2088.1
581.064,2095.15
581.147,2091.6
581.231,2083.8
581.314,2082.7
581.397,2084.45
581.48,2080.6
581.563,2081.05
581.647,2087.2
581.73,2086.7
581.813,2091.35
581.896,2088.55
581.979,2085.15
582.063,2085.2
582.146,2085.6
582.229,2083.55
582.312,2092.05
582.395,2090.25
582.479,2085.05
582.562,2087.35
582.645,2087.4
582.728,2085.45
582.811,2086.05
582.895,2095.5
582.978,2091.65
583.061,2089.8
583.144,2089.65
583.227,2086.5
583.31,2098.6
583.394,2093.45
583.477,2090.85
583.56,2092.05
583.643,2090.45
583.726,2096.9
583.809,2085.95
583.893,2090.25
583.976,2101.9
584.059,2094.75
584.142,2097.25
584.225,2093.15
584.308,2093.6
584.391,2103.6
584.475,2095.3
584.558,2093.35
584.641,2109.9
584.724,2091.85
584.807,2094.9
584.89,2097.7
584.973,2101.7
585.057,2101.05
585.14,2099.1
585.223,2099.25
585.306,2102.7
585.389,2098.75
585.472,2093.05
585.555,2096.75
585.638,2101.0
585.722,2100.8
585.805,2096.9
585.888,2098.25
585.971,2088.45
586.054,2092.5
586.137,2099.9
586.22,2105.05
586.303,2092.6
586.386,2104.05
586.47,2101.25
586.553,2099.2
586.636,2104.95
586.719,2093.05
586.802,2095.85
586.885,2100.15
586.968,2104.9
587.051,2112.35
587.134,2103.4
587.217,2109.05
587.3,2109.65
587.384,2101.9
587.467,2101.35
587.55,2108.25
587.633,2104.1
587.716,2105.3
587.799,2115.6
587.882,2113.65
587.965,2120.25
588.048,2115.65
588.131,2115.35
588.214,2112.4
588.297,2114.7
588.38,2113.25
588.463,2107.5
588.546,2121.9
588.63,2115.5
588.713,2118.4
588.796,2118.3
588.879,2113.0
588.962,2109.15
589.045,2116.5
589.128,2109.45
589.211,2114.7
589.294,2116.95
589.377,2120.45
589.46,2118.05
589.543,2124.4
589.626,2123.25
589.709,2118.05
589.792,2119.8
589.875,2130.0
589.958,2118.0
590.041,2122.65
590.124,2123.8
590.207,2118.9
590.29,2123.4
590.373,2116.05
590.456,2128.35
590.539,2127.2
590.622,2129.75
590.705,2129.0
590.788,2127.1
590.871,2129.2
590.954,2126.85
591.037,2127.4
591.12,2139.55
591.203,2142.2
591.286,2134.75
591.369,2144.1
591.452,2126.6
591.535,2130.6
591.618,2142.25
591.701,2140.9
591.784,2142.25
591.867,2152.75
591.95,2145.85
592.033,2136.75
592.116,2138.9
592.199,2140.4
592.282,2149.5
592.365,2146.75
592.448,2149.15
592.531,2147.45
592.614,2149.05
592.697,2148.5
592.78,2158.4
592.863,2151.85
592.946,2144.95
593.029,2152.05
593.112,2151.8
593.195,2148.8
593.278,2156.25
593.361,2150.1
593.443,2161.85
593.526,2152.8
593.609,2151.9
593.692,2154.1
593.775,2147.85
593.858,2143.2
593.941,2146.2
594.024,2156.75
594.107,2153.35
594.19,2156.15
594.273,2157.9
594.356,2160.05
594.439,2153.6
594.522,2159.3
594.604,2157.7
594.687,2152.4
594.77,2158.25
594.853,2159.5
594.936,2161.1
595.019,2163.0
595.102,2150.45
595.185,2163.05
595.268,2153.4
595.351,2154.6
595.434,2163.15
595.516,2170.35
595.599,2163.55
595.682,2171.4
595.765,2172.5
595.848,2165.3
595.931,2169.4
596.014,2162.5
596.097,2169.1
596.18,2168.95
596.262,2163.05
596.345,2169.1
596.428,2170.4
596.511,2168.3
596.594,2169.1
596.677,2171.2
596.76,2165.25
596.843,2169.0
596.925,2170.05
597.008,2158.65
597.091,2159.9
597.174,2161.3
597.257,2162.65
597.34,2159.95
597.423,2177.1
597.505,2170.8
597.588,2174.55
597.671,2152.3
597.754,2166.05
597.837,2170.55
597.92,2164.3
598.002,2157.2
598.085,2171.65
598.168,2154.95
598.251,2161.0
598.334,2162.15
598.417,2160.0
598.499,2168.0
598.582,2161.45
598.665,2152.85
598.748,2160.95
598.831,2162.75
598.914,2164.55
598.996,2173.8
599.079,2164.15
599.162,2160.85
599.245,2163.85
599.328,2158.1
599.41,2155.95
599.493,2166.5
599.576,2159.6
599.659,2159.85
599.742,2161.2
599.824,2153.2
599.907,2156.1
599.99,2152.2
600.073,2156.5
600.156,2161.4
600.238,2153.45
600.321,2155.05
600.404,2141.35
600.487,2150.7
600.57,2143.15
600.652,2143.8
600.735,2154.8
600.818,2157.35
600.901,2148.1
600.983,2153.8
601.066,2146.3
601.149,2149.65
601.232,2152.7
601.314,2153.15
601.397,2153.4
601.48,2147.05
601.563,2143.75
601.645,2144.05
601.728,2145.0
601.811,2148.6
601.894,2150.45
601.976,2138.05
602.059,2138.4
602.142,2138.2
602.225,2137.7
602.307,2138.45
602.39,2134.4
602.473,2135.65
602.556,2142.0
602.638,2139.3
602.721,2139.75
602.804,2140.85
602.887,2141.4
602.969,2127.6
603.052,2131.0
603.135,2132.35
603.217,2130.2
603.3,2134.3
603.383,2137.45
603.466,2144.0
603.548,2145.3
603.631,2137.55
603.714,2129.4
603.796,2131.95
603.879,2135.05
603.962,2143.7
604.045,2137.8
604.127,2139.85
604.21,2123.95
604.293,2131.75
604.375,2138.75
604.458,2140.25
604.541,2137.1
604.623,2139.1
604.706,2130.6
604.789,2130.45
604.871,2132.0
604.954,2138.95
605.037,2139.4
605.119,2122.35
605.202,2132.1
605.285,2122.05
605.367,2127.9
605.45,2127.05
605.533,2125.6
605.615,2126.3
605.698,2131.35
605.781,2128.35
605.863,2136.35
605.946,2130.05
606.029,2132.35
606.111,2115.15
606.194,2123.1
606.277,2137.65
606.359,2125.6
606.442,2129.75
606.524,2129.65
606.607,2126.7
606.69,2128.05
606.772,2126.9
606.855,2133.1
606.938,2123.9
607.02,2126.9
607.103,2126.1
607.185,2126.7
607.268,2129.2
607.351,2125.75
607.433,2124.8
607.516,2123.7
607.599,2123.85
607.681,2112.55
607.764,2136.2
607.846,2128.05
607.929,2121.5
608.012,2123.8
608.094,2121.15
608.177,2112.05
608.259,2119.55
608.342,2129.0
608.425,2118.65
608.507,2126.4
608.59,2116.05
608.672,2105.5
608.755,2116.35
608.837,2110.85
608.92,2105.9
609.003,2117.3
609.085,2112.05
609.168,2112.55
609.25,2118.3
609.333,2108.6
609.415,2114.95
609.498,2108.8
609.581,2110.25
609.663,2112.75
609.746,2105.75
609.828,2114.05
609.911,2121.65
609.993,2123.8
610.076,2123.1
610.158,2112.5
610.241,2110.8
610.324,2110.6
610.406,2113.25
610.489,2114.8
610.571,2112.9
610.654,2102.35
610.736,2118.3
610.819,2115.05
610.901,2111.9
610.984,2114.5
611.066,2111.25
611.149,2111.45
611.231,2112.3
611.314,2103.45
611.396,2107.05
611.479,2103.0
611.561,2105.75
611.644,2111.7
611.727,2111.5
611.809,2110.1
611.892,2107.1
611.974,2107.5
612.057,2103.75
612.139,2110.3
612.222,2108.8
612.304,2094.95
612.386,2100.5
612.469,2100.25
612.551,2101.7
612.634,2099.45
612.716,2105.85
612.799,2087.05
612.881,2093.0
612.964,2105.9
613.046,2104.95
613.129,2101.05
613.211,2090.15
613.294,2096.0
613.376,2105.25
613.459,2099.0
613.541,2097.35
613.624,2103.1
613.706,2100.85
613.789,2110.85
613.871,2092.95
613.953,2103.1
614.036,2098.6
614.118,2110.85
614.201,2100.3
614.283,2094.65
614.366,2103.8
614.448,2098.75
614.531,2105.25
614.613,2107.1
614.695,2100.85
614.778,2102.8
614.86,2103.1
614.943,2108.5
615.025,2101.35
615.108,2100.15
615.19,2100.05
615.272,2107.7
615.355,2103.75
615.437,2093.95
615.52,2098.1
615.602,2105.7
615.684,2101.2
615.767,2104.25
615.849,2104.65
615.932,2105.6
616.014,2094.7
616.097,2094.9
616.179,2094.55
616.261,2097.65
616.344,2109.75
616.426,2105.4
616.508,2106.55
616.591,2102.35
616.673,2099.6
616.756,2100.3
616.838,2108.7
616.92,2106.35
617.003,2108.8
617.085,2102.75
617.168,2109.4
617.25,2107.4
617.332,2112.6
617.415,2112.7
617.497,2114.85
617.579,2110.3
617.662,2114.25
617.744,2118.95
617.826,2113.9
617.909,2112.15
617.991,2110.55
618.073,2103.7
618.156,2113.45
618.238,2111.2
618.32,2113.6
618.403,2106.45
618.485,2110.5
618.567,2117.2
618.65,2115.8
618.732,2110.55
618.814,2111.6
618.897,2109.6
618.979,2114.15
619.061,2121.6
619.144,2131.35
619.226,2127.1
619.308,2139.1
619.391,2142.4
619.473,2139.65
619.555,2150.45
619.638,2149.9
619.72,2150.35
619.802,2145.05
619.885,2143.6
619.967,2144.55
620.049,2137.2
620.131,2141.55
620.214,2140.7
620.296,2132.45
620.378,2142.95
620.461,2143.05
620.543,2150.05
620.625,2138.6
620.707,2134.3
620.79,2137.35
620.872,2128.5
620.954,2131.05
621.037,2129.4
621.119,2142.1
621.201,2149.1
621.283,2148.4
621.366,2155.8
621.448,2166.5
621.53,2167.2
621.612,2176.1
621.695,2202.75
621.777,2221.8
621.859,2234.25
621.941,2240.95
622.024,2258.9
622.106,2275.7
622.188,2289.7
622.27,2310.35
622.353,2321.45
622.435,2307.55
622.517,2270.35
622.599,2261.35
622.682,2238.75
622.764,2212.9
622.846,2209.85
622.928,2199.2
623.01,2194.55
623.093,2173.45
623.175,2170.15
623.257,2162.65
623.339,2160.1
623.422,2154.0
623.504,2157.35
623.586,2145.75
623.668,2135.45
623.75,2131.8
623.833,2127.85
623.915,2121.1
623.997,2127.75
624.079,2115.55
624.161,2124.4
624.244,2112.35
624.326,2122.2
624.408,2121.9
624.49,2115.55
624.572,2114.0
624.654,2111.8
624.737,2109.9
624.819,2126.05
624.901,2125.4
624.983,2129.7
625.065,2132.15
625.147,2135.0
625.23,2144.55
625.312,2147.5
625.394,2149.1
625.476,2157.0
625.558,2144.55
625.64,2152.75
625.723,2153.1
625.805,2162.85
625.887,2171.8
625.969,2186.95
626.051,2205.15
626.133,2229.0
626.215,2258.15
626.298,2305.8
626.38,2371.5
626.462,2455.15
626.544,2590.9
626.626,2765.65
626.708,2952.65
626.79,3120.7
626.872,3281.2
626.955,3274.5
627.037,3189.55
627.119,3037.75
627.201,2876.05
627.283,2730.3
627.365,2659.65
627.447,2664.05
627.529,2729.3
627.611,2823.85
627.693,3031.45
627.776,3306.5
627.858,3575.15
627.94,3792.25
628.022,3945.9
628.104,4061.9
628.186,4146.1
628.268,4238.7
628.35,4421.65
628.432,4549.85
628.514,4685.05
628.596,4816.0
628.678,4779.05
628.761,4655.8
628.843,4503.3
628.925,4383.5
629.007,4240.8
629.089,4142.0
629.171,4096.4
629.253,4083.1
629.335,4066.65
629.417,4067.7
629.499,4057.9
629.581,4017.6
629.663,3873.7
629.745,3728.95
629.827,3625.05
629.909,3543.1
629.991,3522.5
630.073,3512.9
630.155,3560.35
630.237,3588.45
630.319,3542.0
630.401,3406.6
630.483,3274.3
630.565,3170.0
630.647,3042.6
630.73,2932.05
630.812,2854.35
630.894,2838.95
630.976,2851.15
631.058,2962.55
631.14,3139.65
631.222,3326.25
631.304,3476.9
631.386,3597.95
631.468,3616.75
631.55,3602.4
631.632,3597.75
631.714,3556.1
631.796,3491.0
631.877,3342.9
631.959,3194.15
632.041,3062.95
632.123,2905.6
632.205,2763.75
632.287,2623.7
632.369,2518.95
632.451,2443.35
632.533,2369.65
632.615,2320.55
632.697,2280.95
632.779,2256.45
632.861,2233.2
632.943,2203.9
633.025,2182.75
633.107,2162.05
633.189,2167.05
633.271,2156.1
633.353,2145.3
633.435,2142.15
633.517,2135.2
633.599,2125.4
633.681,2128.85
633.763,2125.65
633.844,2112.4
633.926,2108.45
634.008,2100.55
634.09,2103.6
634.172,2099.95
634.254,2094.3
634.336,2091.7
634.418,2086.95
634.5,2087.85
634.582,2085.55
634.664,2083.3
634.746,2083.45
634.827,2087.45
634.909,2083.25
634.991,2085.7
635.073,2078.15
635.155,2073.95
635.237,2072.15
635.319,2069.8
635.401,2077.35
635.483,2079.0
635.564,2076.4
635.646,2076.9
635.728,2064.45
635.81,2074.0
635.892,2061.7
635.974,2068.25
636.056,2059.3
636.138,2067.0
636.219,2060.55
636.301,2067.75
636.383,2067.15
636.465,2064.25
636.547,2066.5
636.629,2058.45
636.711,2062.45
636.792,2057.0
636.874,2054.45
636.956,2060.35
637.038,2061.25
637.12,2062.6
637.202,2060.45
637.283,2062.8
637.365,2059.65
637.447,2066.55
637.529,2060.85
637.611,2056.4
637.693,2051.3
637.774,2057.9
637.856,2060.05
637.938,2058.05
638.02,2056.85
638.102,2059.45
638.184,2054.4
638.265,2064.3
638.347,2062.8
638.429,2058.85
638.511,2061.5
638.593,2063.05
638.674,2057.0
638.756,2057.15
638.838,2059.75
638.92,2060.55
639.002,2055.1
639.083,2060.25
639.165,2067.75
639.247,2059.2
639.329,2050.4
639.41,2068.9
639.492,2061.7
639.574,2062.4
639.656,2057.75
639.737,2053.45
639.819,2054.85
639.901,2058.9
639.983,2061.8
640.065,2053.45
640.146,2063.3
640.228,2059.75
640.31,2058.4
640.392,2051.5
640.473,2055.25
640.555,2058.8
640.637,2064.25
640.719,2052.8
640.8,2050.85
640.882,2048.6
640.964,2059.15
641.045,2060.2
641.127,2056.45
641.209,2059.1
641.291,2055.2
641.372,2059.35
641.454,2055.05
641.536,2060.85
641.618,2058.05
641.699,2050.0
641.781,2054.45
641.863,2053.55
641.944,2045.95
642.026,2046.7
642.108,2043.8
642.189,2043.5
642.271,2051.95
642.353,2047.3
642.435,2050.65
642.516,2045.2
642.598,2046.7
642.68,2044.05
642.761,2042.65
642.843,2046.2
642.925,2037.8
643.006,2036.7
643.088,2040.7
643.17,2042.3
643.251,2033.4
643.333,2035.3
643.415,2036.05
643.496,2041.7
643.578,2038.15
643.66,2032.2
643.741,2036.25
643.823,2042.25
643.905,2027.9
643.986,2034.0
644.068,2040.45
644.149,2033.7
644.231,2040.45
644.313,2034.55
644.394,2029.4
644.476,2037.55
644.558,2028.55
644.639,2031.25
644.721,2034.9
644.803,2031.05
644.884,2029.4
644.966,2041.05
645.047,2031.4
645.129,2040.35
645.211,2036.3
645.292,2040.3
645.374,2036.15
645.455,2033.55
645.537,2034.6
645.619,2037.1
645.7,2031.0
645.782,2033.3
645.863,2021.3
645.945,2017.45
646.027,2027.8
646.108,2024.45
646.19,2026.85
646.271,2036.45
646.353,2026.8
646.435,2025.85
646.516,2021.35
646.598,2024.0
646.679,2023.75
646.761,2024.3
646.842,2026.95
646.924,2024.2
647.005,2026.15
647.087,2025.25
647.169,2025.6
647.25,2019.05
647.332,2025.75
647.413,2025.7
647.495,2028.85
647.576,2021.0
647.658,2032.55
647.739,2020.2
647.821,2021.55
647.902,2026.9
647.984,2029.15
648.066,2021.2
648.147,2020.0
648.229,2024.5
648.31,2021.7
648.392,2026.5
648.473,2022.05
648.555,2018.6
648.636,2017.0
648.718,2014.9
648.799,2018.15
648.881,2019.4
648.962,2024.0
649.044,2017.1
649.125,2019.45
649.207,2021.25
649.288,2018.05
649.37,2016.1
649.451,2011.25
649.533,2011.2
649.614,2012.4
649.696,2015.8
649.777,2020.0
649.859,2020.85
649.94,2018.0
650.022,2016.85
650.103,2008.95
650.184,2010.35
650.266,2010.0
650.347,2018.25
650.429,2016.9
650.51,2012.1
650.592,2007.25
650.673,2013.1
650.755,2010.55
650.836,2008.65
650.918,2005.7
650.999,2006.1
651.08,2008.4
651.162,2026.2
651.243,2018.9
651.325,2009.95
651.406,2006.3
651.488,2015.95
651.569,2009.95
651.651,2001.05
651.732,2000.55
651.813,2007.05
651.895,2010.8
651.976,2003.5
652.058,1997.5
652.139,2005.35
652.22,2004.6
652.302,2005.35
652.383,1996.75
652.465,1995.15
652.546,1996.75
652.627,1999.75
652.709,2002.25
652.79,1999.2
652.872,1997.55
652.953,1998.15
653.034,1996.7
653.116,1995.65
653.197,2001.8
653.278,1998.2
653.36,1997.05
653.441,1995.65
653.523,1993.65
653.604,1996.0
653.685,1990.4
653.767,1988.7
653.848,1989.4
653.929,1991.15
654.011,1985.75
654.092,1986.05
654.173,1982.7
654.255,1988.0
654.336,1985.95
654.418,1986.15
654.499,1992.25
654.58,1983.0
654.662,1987.95
654.743,1990.5
654.824,1987.15
654.906,1982.3
654.987,1985.85
655.068,1979.0
655.149,1980.7
655.231,1986.9
655.312,1985.95
655.393,1984.35
655.475,1985.1
655.556,1980.55
655.637,1980.3
655.719,1975.55
655.8,1984.7
655.881,1981.6
655.963,1983.55
656.044,1982.0
656.125,1978.5
656.206,1976.35
656.288,1976.55
656.369,1978.4
656.45,1973.2
656.532,1971.55
656.613,1974.8
656.694,1979.65
656.775,1970.05
656.857,1974.7
656.938,1975.95
657.019,1974.25
657.1,1973.75
657.182,1973.2
657.263,1971.4
657.344,1972.95
657.425,1978.45
657.507,1974.0
657.588,1969.2
657.669,1972.45
657.75,1966.0
657.832,1969.6
657.913,1969.2
657.994,1965.2
658.075,1962.8
658.157,1974.6
658.238,1967.05
658.319,1964.15
658.4,1965.35
658.482,1966.15
658.563,1968.8
658.644,1970.6
658.725,1963.8
658.806,1958.5
658.888,1964.45
658.969,1967.7
659.05,1964.05
659.131,1969.15
659.212,1963.15
659.294,1961.2
659.375,1958.2
659.456,1959.05
659.537,1964.95
659.618,1957.05
659.7,1957.15
659.781,1954.05
659.862,1957.25
659.943,1960.3
660.024,1954.95
660.105,1956.15
660.187,1957.2
660.268,1960.85
660.349,1955.35
660.43,1959.0
660.511,1955.75
660.592,1954.6
660.674,1950.8
660.755,1947.75
660.836,1953.35
660.917,1952.7
660.998,1955.55
661.079,1955.45
