nm,Intensity
526.5,828.3
526.637,829.6
526.774,828.2
526.91,829.0
527.047,827.5
527.184,827.5
527.32,828.8
527.457,827.7
527.594,828.5
527.73,827.4
527.867,828.3
528.004,829.3
528.14,828.6
528.277,828.0
528.414,827.9
528.55,826.8
528.687,828.6
528.823,828.6
528.96,829.6
529.096,827.3
529.233,829.3
529.37,828.3
529.506,829.5
529.643,828.3
529.779,828.7
529.916,828.0
530.052,828.7
530.189,828.8
530.325,828.2
530.462,830.0
530.598,830.1
530.735,827.3
530.871,828.3
531.008,828.3
531.144,827.6
531.28,828.4
531.417,828.1
531.553,829.6
531.69,829.0
531.826,828.3
531.962,834.1
532.099,886.3
532.235,909.6
532.372,847.3
532.508,829.6
532.644,829.5
532.781,826.8
532.917,826.9
533.053,827.7
533.19,828.6
533.326,828.7
533.462,829.9
533.599,830.1
533.735,831.4
533.871,847.9
534.007,874.0
534.144,877.6
534.28,874.3
534.416,871.5
534.552,867.4
534.689,873.6
534.825,879.2
534.961,881.7
535.097,892.3
535.234,888.7
535.37,878.5
535.506,865.7
535.642,857.6
535.778,852.4
535.914,848.3
536.051,846.5
536.187,846.3
536.323,842.1
536.459,845.7
536.595,843.6
536.731,849.7
536.867,856.3
537.003,863.0
537.14,868.2
537.276,864.1
537.412,857.5
537.548,849.1
537.684,844.6
537.82,842.0
537.956,843.4
538.092,842.4
538.228,842.8
538.364,843.4
538.5,843.1
538.636,843.6
538.772,844.0
538.908,843.3
539.044,847.4
539.18,848.9
539.316,854.3
539.452,853.3
539.588,849.5
539.724,846.4
539.86,842.2
539.996,839.5
540.132,839.3
540.268,837.7
540.403,837.1
540.539,837.9
540.675,837.2
540.811,838.6
540.947,838.3
541.083,838.6
541.219,842.5
541.355,846.5
541.49,846.2
541.626,841.1
541.762,839.4
541.898,837.6
542.034,835.6
542.17,836.0
542.305,835.6
542.441,835.0
542.577,834.8
542.713,835.6
542.848,836.3
542.984,838.2
543.12,838.9
543.256,841.7
543.391,847.7
543.527,867.2
543.663,905.0
543.799,904.6
543.934,873.5
544.07,854.6
544.206,846.5
544.341,843.2
544.477,840.3
544.613,840.6
544.748,840.4
544.884,839.7
545.02,841.0
545.155,848.6
545.291,860.6
545.427,862.6
545.562,857.2
545.698,847.5
545.833,840.4
545.969,836.0
546.105,836.5
546.24,835.8
546.376,837.2
546.511,836.2
546.647,834.3
546.782,835.8
546.918,835.7
547.053,838.3
547.189,838.5
547.325,842.6
547.46,850.1
547.596,849.2
547.731,849.7
547.867,842.3
548.002,839.9
548.137,836.9
548.273,836.3
548.408,835.4
548.544,835.8
548.679,834.1
548.815,834.5
548.95,833.4
549.086,832.9
549.221,833.1
549.356,831.2
549.492,832.3
549.627,832.1
549.763,831.4
549.898,831.2
550.033,832.0
550.169,831.6
550.304,831.8
550.439,833.1
550.575,831.9
550.71,832.9
550.845,831.9
550.981,830.9
551.116,830.4
551.251,831.6
551.387,830.8
551.522,831.6
551.657,831.3
551.793,832.3
551.928,831.4
552.063,831.0
552.198,832.2
552.334,832.3
552.469,831.8
552.604,831.6
552.739,831.5
552.874,832.1
553.01,833.3
553.145,833.1
553.28,834.5
553.415,833.2
553.55,831.6
553.686,832.1
553.821,832.7
553.956,833.9
554.091,833.9
554.226,834.7
554.361,832.6
554.497,834.3
554.632,833.9
554.767,835.9
554.902,835.5
555.037,836.4
555.172,837.0
555.307,836.4
555.442,838.8
555.577,841.7
555.712,851.5
555.848,869.0
555.983,933.1
556.118,1011.3
556.253,961.2
556.388,881.1
556.523,865.2
556.658,865.8
556.793,872.7
556.928,883.4
557.063,908.0
557.198,907.4
557.333,873.6
557.468,856.2
557.603,850.0
557.738,846.1
557.873,842.6
558.008,843.1
558.142,840.5
558.277,839.8
558.412,837.8
558.547,838.8
558.682,840.8
558.817,844.2
558.952,846.8
559.087,843.2
559.222,839.0
559.357,839.3
559.492,837.3
559.626,837.5
559.761,837.6
559.896,838.9
560.031,845.9
560.166,853.8
560.301,856.8
560.435,848.5
560.57,844.8
560.705,842.7
560.84,847.6
560.975,858.7
561.109,888.8
561.244,933.2
561.379,907.5
561.514,861.7
561.649,845.4
561.783,846.8
561.918,853.3
562.053,860.1
562.188,853.5
562.322,848.2
562.457,844.0
562.592,841.7
562.726,844.2
562.861,845.1
562.996,847.0
563.131,858.3
563.265,864.5
563.4,863.4
563.535,859.6
563.669,852.7
563.804,845.6
563.939,841.3
564.073,839.7
564.208,838.8
564.342,837.6
564.477,839.2
564.612,839.7
564.746,838.1
564.881,837.3
565.015,841.2
565.15,840.9
565.285,844.9
565.419,845.2
565.554,842.6
565.688,842.0
565.823,839.0
565.957,841.0
566.092,839.5
566.227,839.2
566.361,843.5
566.496,846.8
566.63,854.4
566.765,871.6
566.899,902.9
567.034,911.7
567.168,903.5
567.303,916.3
567.437,945.2
567.572,929.7
567.706,878.7
567.84,853.6
567.975,847.4
568.109,844.9
568.244,844.3
568.378,843.6
568.513,844.3
568.647,846.4
568.781,851.2
568.916,857.7
569.05,870.7
569.185,873.4
569.319,861.7
569.453,850.1
569.588,844.3
569.722,844.6
569.857,843.9
569.991,846.8
570.125,854.0
570.26,866.0
570.394,856.3
570.528,847.7
570.663,843.4
570.797,842.4
570.931,843.9
571.065,843.6
571.2,843.4
571.334,847.7
571.468,850.9
571.603,854.5
571.737,857.3
571.871,864.3
572.005,859.7
572.14,853.8
572.274,856.5
572.408,869.9
572.542,895.8
572.677,937.3
572.811,931.0
572.945,885.5
573.079,864.0
573.213,857.2
573.348,856.6
573.482,864.3
573.616,885.6
573.75,888.0
573.884,870.0
574.018,857.8
574.153,856.7
574.287,853.8
574.421,851.9
574.555,841.7
574.689,839.4
574.823,838.3
574.957,839.0
575.092,837.3
575.226,837.3
575.36,836.0
575.494,838.2
575.628,837.1
575.762,839.5
575.896,843.9
576.03,856.5
576.164,885.3
576.298,891.8
576.432,881.9
576.566,886.1
576.7,906.7
576.834,943.2
576.968,985.9
577.103,969.1
577.237,922.6
577.371,879.0
577.505,858.8
577.639,849.0
577.773,842.7
577.907,840.9
578.04,840.3
578.174,837.6
578.308,837.1
578.442,838.9
578.576,835.3
578.71,835.4
578.844,837.1
578.978,834.7
579.112,834.2
579.246,833.9
579.38,835.3
579.514,835.2
579.648,834.8
579.782,834.8
579.916,834.6
580.049,836.0
580.183,835.4
580.317,834.2
580.451,835.1
580.585,834.7
580.719,834.1
580.853,833.3
580.986,833.6
581.12,835.4
581.254,833.5
581.388,833.4
581.522,834.9
581.656,835.2
581.789,834.2
581.923,834.9
582.057,834.1
582.191,834.0
582.325,835.3
582.458,835.2
582.592,833.8
582.726,834.7
582.86,835.6
582.993,835.3
583.127,835.2
583.261,835.5
583.395,835.3
583.528,834.9
583.662,834.6
583.796,834.5
583.93,835.7
584.063,836.1
584.197,834.6
584.331,835.2
584.464,834.7
584.598,837.9
584.732,835.0
584.865,835.3
584.999,835.7
585.133,836.7
585.266,834.2
585.4,835.5
585.534,836.3
585.667,836.2
585.801,835.3
585.935,834.8
586.068,835.2
586.202,834.4
586.336,832.7
586.469,834.8
586.603,834.5
586.736,835.5
586.87,833.4
587.004,834.8
587.137,834.8
587.271,835.3
587.404,834.9
587.538,833.3
587.671,834.6
587.805,832.8
587.938,835.1
588.072,834.2
588.206,832.8
588.339,832.9
588.473,833.1
588.606,833.6
588.74,834.0
588.873,833.7
589.007,832.4
589.14,833.7
589.274,833.8
589.407,832.5
589.541,833.6
589.674,835.9
589.808,832.9
589.941,832.4
590.074,832.6
590.208,834.4
590.341,833.9
590.475,832.3
590.608,834.5
590.742,833.5
590.875,833.3
591.009,833.1
591.142,833.4
591.275,833.1
591.409,835.9
591.542,833.6
591.676,833.1
591.809,834.8
591.942,833.9
592.076,833.8
592.209,833.6
592.342,833.7
592.476,833.4
592.609,834.3
592.743,833.9
592.876,833.6
593.009,834.5
593.143,833.4
593.276,834.0
593.409,835.2
593.543,832.9
593.676,833.9
593.809,832.7
593.942,834.1
594.076,835.5
594.209,833.3
594.342,834.3
594.476,834.5
594.609,834.7
594.742,832.7
594.875,834.7
595.009,831.9
595.142,834.1
595.275,833.1
595.408,835.2
595.542,834.2
595.675,831.8
595.808,834.2
595.941,834.0
596.075,832.8
596.208,835.0
596.341,834.2
596.474,833.3
596.607,834.4
596.741,835.0
596.874,835.0
597.007,834.5
597.14,833.9
597.273,832.8
597.406,834.1
597.54,833.4
597.673,834.7
597.806,834.8
597.939,833.9
598.072,832.2
598.205,836.3
598.338,833.2
598.472,834.0
598.605,833.9
598.738,835.3
598.871,832.8
599.004,834.8
599.137,833.7
599.27,836.1
599.403,834.1
599.536,834.0
599.67,835.0
599.803,835.4
599.936,834.3
600.069,833.8
600.202,835.8
600.335,834.8
600.468,834.8
600.601,834.4
600.734,832.7
600.867,834.7
601.0,832.8
601.133,832.0
601.266,833.7
601.399,834.0
601.532,835.0
601.665,833.6
601.798,833.3
601.931,831.7
602.064,833.4
602.197,834.0
602.33,834.5
602.463,833.3
602.596,834.0
602.729,834.8
602.862,834.3
602.995,835.7
603.128,833.4
603.261,834.8
603.394,834.1
603.527,834.5
603.66,834.6
603.793,834.5
603.925,835.9
604.058,834.4
604.191,834.0
604.324,835.0
604.457,834.9
604.59,835.8
604.723,835.9
604.856,835.8
604.989,835.5
605.122,836.5
605.254,835.3
605.387,835.1
605.52,835.6
605.653,835.5
605.786,834.8
605.919,835.9
606.052,834.9
606.184,836.2
606.317,836.3
606.45,836.3
606.583,835.1
606.716,835.7
606.849,834.3
606.981,836.8
607.114,837.1
607.247,836.0
607.38,835.6
607.513,837.9
607.645,836.3
607.778,837.0
607.911,836.4
608.044,834.1
608.177,834.3
608.309,835.4
608.442,836.6
608.575,834.9
608.708,835.4
608.84,835.3
608.973,835.5
609.106,834.1
609.239,834.5
609.371,835.9
609.504,836.8
609.637,836.0
609.769,835.3
609.902,835.6
610.035,836.2
610.168,836.1
610.3,835.0
610.433,835.2
610.566,835.5
610.698,835.5
610.831,836.4
610.964,836.0
611.096,835.4
611.229,835.6
611.362,835.6
611.494,836.1
611.627,834.8
611.76,836.9
611.892,835.5
612.025,834.5
612.158,835.3
612.29,834.4
612.423,836.7
612.556,836.1
612.688,835.2
612.821,834.9
612.953,833.9
613.086,835.7
613.219,835.2
613.351,836.1
613.484,836.9
613.616,835.9
613.749,834.3
613.882,835.3
614.014,835.7
614.147,834.6
614.279,835.4
614.412,835.9
614.544,837.2
614.677,837.8
614.809,834.7
614.942,836.1
615.075,836.2
615.207,835.9
615.34,837.2
615.472,838.2
615.605,837.8
615.737,835.7
615.87,836.6
616.002,836.0
616.135,837.9
616.267,836.8
616.4,837.2
616.532,836.3
616.665,837.2
616.797,837.4
616.93,838.3
617.062,839.0
617.195,838.9
617.327,838.5
617.46,838.1
617.592,840.1
617.725,838.5
617.857,839.8
617.989,838.1
618.122,838.8
618.254,838.0
618.387,840.5
618.519,838.4
618.652,839.3
618.784,840.8
618.917,838.6
619.049,840.6
619.181,840.4
619.314,842.3
619.446,845.7
619.579,845.9
619.711,847.1
619.843,844.9
619.976,845.5
620.108,846.2
620.241,841.6
620.373,846.4
620.505,844.9
620.638,844.0
620.77,844.1
620.902,847.9
621.035,848.1
621.167,846.4
621.299,847.7
621.432,849.9
621.564,852.8
621.696,857.8
621.829,863.2
621.961,865.1
622.093,870.2
622.226,880.4
622.358,892.8
622.49,885.5
622.623,874.3
622.755,870.6
622.887,865.5
623.02,860.4
623.152,854.9
623.284,853.5
623.416,851.2
623.549,851.2
623.681,850.2
623.813,847.0
623.946,844.8
624.078,842.0
624.21,842.5
624.342,841.9
624.475,841.9
624.607,844.4
624.739,843.0
624.871,844.6
625.004,845.2
625.136,846.5
625.268,846.4
625.4,845.0
625.533,847.5
625.665,852.4
625.797,853.6
625.929,858.5
626.061,859.8
626.194,865.6
626.326,873.5
626.458,893.1
626.59,925.5
626.722,996.0
626.855,1081.4
626.987,1116.3
627.119,1081.0
627.251,1021.5
627.383,971.7
627.516,953.2
627.648,969.8
627.78,1036.6
627.912,1165.4
628.044,1267.3
628.176,1280.0
628.308,1288.2
628.441,1340.8
628.573,1412.9
628.705,1453.4
628.837,1408.6
628.969,1345.6
629.101,1273.4
629.233,1248.0
629.366,1248.2
629.498,1272.1
629.63,1270.0
629.762,1211.0
629.894,1178.9
630.026,1165.4
630.158,1174.3
630.29,1176.1
630.422,1159.8
630.554,1113.4
630.687,1057.0
630.819,1011.6
630.951,996.5
631.083,1014.4
631.215,1082.4
631.347,1164.6
631.479,1205.7
631.611,1239.1
631.743,1276.2
631.875,1261.8
632.007,1207.8
632.139,1115.7
632.271,1041.2
632.403,969.0
632.535,931.7
632.667,900.6
632.799,887.5
632.931,874.0
633.063,866.4
633.195,861.3
633.328,856.8
633.46,855.9
633.592,851.7
633.724,847.4
633.856,846.2
633.988,845.6
634.12,846.0
634.252,844.0
634.384,842.7
634.516,842.6
634.647,842.4
634.779,839.8
634.911,843.0
635.043,838.2
635.175,839.9
635.307,837.9
635.439,838.2
635.571,838.7
635.703,837.6
635.835,839.7
635.967,837.6
636.099,836.3
636.231,837.3
636.363,838.4
636.495,836.9
636.627,837.1
636.759,836.6
636.891,835.5
637.023,835.6
637.155,836.5
637.286,835.8
637.418,834.8
637.55,837.7
637.682,836.0
637.814,834.5
637.946,836.3
638.078,836.2
638.21,835.7
638.342,838.3
638.474,836.6
638.605,836.1
638.737,838.3
638.869,837.6
639.001,839.1
639.133,837.2
639.265,838.2
639.397,836.2
639.529,836.7
639.66,837.7
639.792,837.4
639.924,835.5
640.056,836.9
640.188,837.5
640.32,837.1
640.452,836.8
640.583,837.7
640.715,839.4
640.847,837.5
640.979,837.7
641.111,840.0
641.243,837.6
641.374,838.2
641.506,838.7
641.638,836.4
641.77,836.9
641.902,837.3
642.033,838.2
642.165,838.1
642.297,838.3
642.429,837.3
642.561,834.6
642.692,836.6
642.824,835.4
642.956,833.4
643.088,834.7
643.22,834.6
643.351,833.0
643.483,834.1
643.615,831.6
643.747,834.0
643.878,834.4
644.01,833.6
644.142,833.9
644.274,835.6
644.405,834.6
644.537,833.6
644.669,833.1
644.801,832.5
644.932,833.6
645.064,832.6
645.196,832.2
645.328,832.4
645.459,833.9
645.591,830.7
645.723,833.8
645.854,833.5
645.986,832.5
646.118,834.1
646.25,832.5
646.381,832.6
646.513,831.2
646.645,832.6
646.776,832.5
646.908,833.0
647.04,833.6
647.172,832.3
647.303,832.4
647.435,834.6
647.567,832.2
647.698,833.2
647.83,833.2
647.962,831.2
648.093,833.0
648.225,833.4
648.357,832.1
648.488,833.4
648.62,832.6
648.752,831.4
648.883,833.9
649.015,832.0
649.147,833.3
649.278,832.3
649.41,832.2
649.542,833.3
649.673,832.0
649.805,833.7
649.937,833.0
650.068,830.7
650.2,832.7
650.331,833.0
650.463,832.1
650.595,832.5
650.726,832.6
650.858,831.0
650.99,832.1
651.121,833.0
651.253,832.0
651.384,831.0
651.516,834.7
651.648,831.8
651.779,831.9
651.911,832.5
652.042,831.1
652.174,833.0
652.306,830.5
652.437,832.6
652.569,832.1
652.7,831.8
652.832,831.5
652.963,831.5
653.095,833.3
653.227,831.7
653.358,831.3
653.49,831.9
653.621,830.8
653.753,832.3
653.884,832.8
654.016,831.1
654.148,831.5
654.279,830.3
654.411,830.8
654.542,831.9
654.674,831.4
654.805,831.5
654.937,831.4
655.068,829.7
655.2,832.9
655.331,830.9
655.463,831.8
655.595,832.2
655.726,831.9
655.858,830.8
655.989,830.3
656.121,831.6
656.252,833.7
656.384,830.5
656.515,831.9
656.647,831.1
656.778,833.4
656.91,831.4
657.041,831.9
657.173,831.8
657.304,831.9
657.436,831.0
657.567,831.6
657.699,832.6
657.83,831.8
657.962,830.6
658.093,831.4
658.225,832.0
658.356,831.4
658.488,831.3
658.619,831.1
658.751,832.4
658.882,831.5
659.013,832.7
659.145,831.2
659.276,830.3
659.408,831.6
659.539,831.9
659.671,831.3
659.802,832.9
659.934,830.0
660.065,830.9
660.197,832.3
660.328,831.8
660.459,830.8
660.591,831.4
660.722,832.3
660.854,832.5
660.985,831.4
661.117,831.9
661.248,831.2
661.38,830.1
661.511,831.3
661.642,831.2
661.774,831.2
661.905,830.9
662.037,831.5
662.168,831.0
662.299,832.5
662.431,830.9
662.562,829.9
662.694,829.9
662.825,830.6
662.957,830.7
663.088,830.4
