cm-1,A
4000.0,-0.0019
3999.0,-0.002
3998.0,-0.0021
3997.0,-0.0021
3996.0,-0.0021
3995.0,-0.002
3994.0,-0.0019
3993.0,-0.0018
3992.0,-0.0018
3991.0,-0.0018
3990.0,-0.0018
3989.0,-0.0018
3988.0,-0.0019
3987.0,-0.0019
3986.0,-0.002
3985.0,-0.0021
3984.0,-0.0021
3983.0,-0.0021
3982.0,-0.0021
3981.0,-0.0021
3980.0,-0.002
3979.0,-0.002
3978.0,-0.002
3977.0,-0.002
3976.0,-0.0021
3975.0,-0.0021
3974.0,-0.0021
3973.0,-0.0022
3972.0,-0.0022
3971.0,-0.0022
3970.0,-0.0021
3969.0,-0.0021
3968.0,-0.0021
3967.0,-0.0021
3966.0,-0.0021
3965.0,-0.0021
3964.0,-0.0021
3963.0,-0.0021
3962.0,-0.002
3961.0,-0.002
3960.0,-0.002
3959.0,-0.002
3958.0,-0.002
3957.0,-0.0021
3956.0,-0.0022
3955.0,-0.0022
3954.0,-0.0021
3953.0,-0.0021
3952.0,-0.0021
3951.0,-0.0022
3950.0,-0.0023
3949.0,-0.0024
3948.0,-0.0025
3947.0,-0.0024
3946.0,-0.0024
3945.0,-0.0023
3944.0,-0.0023
3943.0,-0.0023
3942.0,-0.0023
3941.0,-0.0023
3940.0,-0.0022
3939.0,-0.0021
3938.0,-0.0021
3937.0,-0.0021
3936.0,-0.0022
3935.0,-0.0022
3934.0,-0.0023
3933.0,-0.0023
3932.0,-0.0022
3931.0,-0.0022
3930.0,-0.0022
3929.0,-0.0023
3928.0,-0.0024
3927.0,-0.0024
3926.0,-0.0025
3925.0,-0.0025
3924.0,-0.0025
3923.0,-0.0025
3922.0,-0.0024
3921.0,-0.0024
3920.0,-0.0023
3919.0,-0.0023
3918.0,-0.0022
3917.0,-0.0023
3916.0,-0.0023
3915.0,-0.0023
3914.0,-0.0023
3913.0,-0.0023
3912.0,-0.0022
3911.0,-0.0021
3910.0,-0.0021
3909.0,-0.0021
3908.0,-0.0021
3907.0,-0.0022
3906.0,-0.0023
3905.0,-0.0025
3904.0,-0.0027
3903.0,-0.0029
3902.0,-0.003
3901.0,-0.0029
3900.0,-0.0027
3899.0,-0.0025
3898.0,-0.0024
3897.0,-0.0023
3896.0,-0.0022
3895.0,-0.0022
3894.0,-0.0022
3893.0,-0.0022
3892.0,-0.0022
3891.0,-0.0023
3890.0,-0.0024
3889.0,-0.0024
3888.0,-0.0024
3887.0,-0.0024
3886.0,-0.0025
3885.0,-0.0026
3884.0,-0.0026
3883.0,-0.0025
3882.0,-0.0024
3881.0,-0.0023
3880.0,-0.0023
3879.0,-0.0023
3878.0,-0.0023
3877.0,-0.0023
3876.0,-0.0023
3875.0,-0.0024
3874.0,-0.0026
3873.0,-0.0027
3872.0,-0.0026
3871.0,-0.0025
3870.0,-0.0025
3869.0,-0.0026
3868.0,-0.0027
3867.0,-0.0027
3866.0,-0.0026
3865.0,-0.0025
3864.0,-0.0023
3863.0,-0.0023
3862.0,-0.0023
3861.0,-0.0023
3860.0,-0.0023
3859.0,-0.0024
3858.0,-0.0026
3857.0,-0.0028
3856.0,-0.003
3855.0,-0.0029
3854.0,-0.0026
3853.0,-0.0027
3852.0,-0.0028
3851.0,-0.0026
3850.0,-0.0024
3849.0,-0.0023
3848.0,-0.0022
3847.0,-0.0022
3846.0,-0.0022
3845.0,-0.0022
3844.0,-0.0023
3843.0,-0.0023
3842.0,-0.0023
3841.0,-0.0023
3840.0,-0.0023
3839.0,-0.0024
3838.0,-0.0026
3837.0,-0.0028
3836.0,-0.0028
3835.0,-0.0027
3834.0,-0.0025
3833.0,-0.0024
3832.0,-0.0023
3831.0,-0.0024
3830.0,-0.0024
3829.0,-0.0023
3828.0,-0.0022
3827.0,-0.0021
3826.0,-0.0022
3825.0,-0.0024
3824.0,-0.0025
3823.0,-0.0026
3822.0,-0.0025
3821.0,-0.0024
3820.0,-0.0025
3819.0,-0.0024
3818.0,-0.0023
3817.0,-0.0022
3816.0,-0.0022
3815.0,-0.0022
3814.0,-0.0022
3813.0,-0.0021
3812.0,-0.0021
3811.0,-0.0021
3810.0,-0.0021
3809.0,-0.0021
3808.0,-0.0022
3807.0,-0.0023
3806.0,-0.0024
3805.0,-0.0025
3804.0,-0.0025
3803.0,-0.0024
3802.0,-0.0023
3801.0,-0.0024
3800.0,-0.0025
3799.0,-0.0025
3798.0,-0.0024
3797.0,-0.0023
3796.0,-0.0023
3795.0,-0.0023
3794.0,-0.0022
3793.0,-0.002
3792.0,-0.0019
3791.0,-0.0018
3790.0,-0.0019
3789.0,-0.0019
3788.0,-0.002
3787.0,-0.0021
3786.0,-0.0021
3785.0,-0.0021
3784.0,-0.0022
3783.0,-0.0022
3782.0,-0.0022
3781.0,-0.0021
3780.0,-0.002
3779.0,-0.002
3778.0,-0.002
3777.0,-0.002
3776.0,-0.002
3775.0,-0.002
3774.0,-0.002
3773.0,-0.0021
3772.0,-0.0021
3771.0,-0.0021
3770.0,-0.002
3769.0,-0.002
3768.0,-0.0019
3767.0,-0.0019
3766.0,-0.0019
3765.0,-0.002
3764.0,-0.0021
3763.0,-0.0022
3762.0,-0.0022
3761.0,-0.0023
3760.0,-0.0023
3759.0,-0.0023
3758.0,-0.0024
3757.0,-0.0024
3756.0,-0.0025
3755.0,-0.0025
3754.0,-0.0026
3753.0,-0.0025
3752.0,-0.0025
3751.0,-0.0025
3750.0,-0.0027
3749.0,-0.0029
3748.0,-0.003
3747.0,-0.0029
3746.0,-0.0026
3745.0,-0.0024
3744.0,-0.0023
3743.0,-0.0023
3742.0,-0.0023
3741.0,-0.0024
3740.0,-0.0026
3739.0,-0.0028
3738.0,-0.003
3737.0,-0.0032
3736.0,-0.0033
3735.0,-0.0035
3734.0,-0.0036
3733.0,-0.0035
3732.0,-0.0033
3731.0,-0.0032
3730.0,-0.003
3729.0,-0.0029
3728.0,-0.0029
3727.0,-0.0029
3726.0,-0.0029
3725.0,-0.0029
3724.0,-0.0028
3723.0,-0.0028
3722.0,-0.0028
3721.0,-0.0027
3720.0,-0.0027
3719.0,-0.0026
3718.0,-0.0024
3717.0,-0.0023
3716.0,-0.0022
3715.0,-0.0021
3714.0,-0.0021
3713.0,-0.002
3712.0,-0.0021
3711.0,-0.0023
3710.0,-0.0027
3709.0,-0.0029
3708.0,-0.0029
3707.0,-0.0028
3706.0,-0.0027
3705.0,-0.0027
3704.0,-0.0026
3703.0,-0.0026
3702.0,-0.0026
3701.0,-0.0025
3700.0,-0.0025
3699.0,-0.0023
3698.0,-0.0022
3697.0,-0.0021
3696.0,-0.002
3695.0,-0.0021
3694.0,-0.0021
3693.0,-0.0022
3692.0,-0.0022
3691.0,-0.0023
3690.0,-0.0022
3689.0,-0.0022
3688.0,-0.0022
3687.0,-0.002
3686.0,-0.0017
3685.0,-0.0015
3684.0,-0.0013
3683.0,-0.0012
3682.0,-0.0012
3681.0,-0.0013
3680.0,-0.0015
3679.0,-0.0018
3678.0,-0.002
3677.0,-0.0019
3676.0,-0.0017
3675.0,-0.0015
3674.0,-0.0015
3673.0,-0.0013
3672.0,-0.0011
3671.0,-0.0009
3670.0,-0.0007
3669.0,-0.0007
3668.0,-0.0006
3667.0,-0.0004
3666.0,-0.0002
3665.0,-0.0001
3664.0,0.0
3663.0,0.0001
3662.0,0.0001
3661.0,0.0
3660.0,-0.0001
3659.0,-0.0002
3658.0,-0.0003
3657.0,-0.0003
3656.0,-0.0003
3655.0,-0.0004
3654.0,-0.0005
3653.0,-0.0006
3652.0,-0.0007
3651.0,-0.0007
3650.0,-0.0005
3649.0,-0.0004
3648.0,-0.0004
3647.0,-0.0004
3646.0,-0.0004
3645.0,-0.0003
3644.0,-0.0002
3643.0,-0.0001
3642.0,-0.0001
3641.0,-0.0001
3640.0,-0.0001
3639.0,-0.0002
3638.0,-0.0002
3637.0,-0.0003
3636.0,-0.0004
3635.0,-0.0006
3634.0,-0.0008
3633.0,-0.001
3632.0,-0.0013
3631.0,-0.0015
3630.0,-0.0015
3629.0,-0.0014
3628.0,-0.0013
3627.0,-0.0012
3626.0,-0.0011
3625.0,-0.001
3624.0,-0.0011
3623.0,-0.0013
3622.0,-0.0014
3621.0,-0.0014
3620.0,-0.0014
3619.0,-0.0013
3618.0,-0.0012
3617.0,-0.0011
3616.0,-0.0009
3615.0,-0.0007
3614.0,-0.0006
3613.0,-0.0006
3612.0,-0.0007
3611.0,-0.0008
3610.0,-0.0008
3609.0,-0.0008
3608.0,-0.0008
3607.0,-0.0008
3606.0,-0.0008
3605.0,-0.0008
3604.0,-0.0007
3603.0,-0.0007
3602.0,-0.0007
3601.0,-0.0008
3600.0,-0.0009
3599.0,-0.001
3598.0,-0.001
3597.0,-0.0009
3596.0,-0.0008
3595.0,-0.0006
3594.0,-0.0005
3593.0,-0.0005
3592.0,-0.0004
3591.0,-0.0004
3590.0,-0.0003
3589.0,-0.0002
3588.0,-0.0001
3587.0,-0.0
3586.0,-0.0001
3585.0,-0.0
3584.0,0.0
3583.0,0.0001
3582.0,0.0002
3581.0,0.0003
3580.0,0.0003
3579.0,0.0003
3578.0,0.0003
3577.0,0.0004
3576.0,0.0004
3575.0,0.0006
3574.0,0.0007
3573.0,0.0007
3572.0,0.0005
3571.0,0.0004
3570.0,0.0003
3569.0,0.0003
3568.0,0.0005
3567.0,0.0007
3566.0,0.0007
3565.0,0.0005
3564.0,0.0004
3563.0,0.0004
3562.0,0.0005
3561.0,0.0007
3560.0,0.0009
3559.0,0.001
3558.0,0.001
3557.0,0.001
3556.0,0.001
3555.0,0.001
3554.0,0.001
3553.0,0.0012
3552.0,0.0012
3551.0,0.0012
3550.0,0.0012
3549.0,0.0011
3548.0,0.001
3547.0,0.001
3546.0,0.0011
3545.0,0.0011
3544.0,0.0011
3543.0,0.0012
3542.0,0.0012
3541.0,0.0012
3540.0,0.0012
3539.0,0.0012
3538.0,0.0012
3537.0,0.0012
3536.0,0.0013
3535.0,0.0014
3534.0,0.0016
3533.0,0.0019
3532.0,0.0021
3531.0,0.0022
3530.0,0.0022
3529.0,0.0022
3528.0,0.0022
3527.0,0.0023
3526.0,0.0023
3525.0,0.0023
3524.0,0.0022
3523.0,0.0022
3522.0,0.0023
3521.0,0.0024
3520.0,0.0026
3519.0,0.0027
3518.0,0.0028
3517.0,0.0029
3516.0,0.0031
3515.0,0.0032
3514.0,0.0033
3513.0,0.0035
3512.0,0.0036
3511.0,0.0037
3510.0,0.0038
3509.0,0.0038
3508.0,0.0037
3507.0,0.0037
3506.0,0.0036
3505.0,0.0037
3504.0,0.0037
3503.0,0.0037
3502.0,0.0037
3501.0,0.0037
3500.0,0.0036
3499.0,0.0035
3498.0,0.0034
3497.0,0.0034
3496.0,0.0035
3495.0,0.0036
3494.0,0.0036
3493.0,0.0036
3492.0,0.0035
3491.0,0.0034
3490.0,0.0033
3489.0,0.0031
3488.0,0.003
3487.0,0.0028
3486.0,0.0027
3485.0,0.0027
3484.0,0.0027
3483.0,0.0027
3482.0,0.0026
3481.0,0.0025
3480.0,0.0025
3479.0,0.0024
3478.0,0.0024
3477.0,0.0023
3476.0,0.0023
3475.0,0.0023
3474.0,0.0023
3473.0,0.0022
3472.0,0.0021
3471.0,0.002
3470.0,0.0019
3469.0,0.0018
3468.0,0.0017
3467.0,0.0017
3466.0,0.0017
3465.0,0.0017
3464.0,0.0018
3463.0,0.0018
3462.0,0.0018
3461.0,0.0018
3460.0,0.0017
3459.0,0.0017
3458.0,0.0016
3457.0,0.0016
3456.0,0.0016
3455.0,0.0016
3454.0,0.0016
3453.0,0.0016
3452.0,0.0016
3451.0,0.0016
3450.0,0.0015
3449.0,0.0015
3448.0,0.0015
3447.0,0.0015
3446.0,0.0014
3445.0,0.0013
3444.0,0.0012
3443.0,0.0012
3442.0,0.0012
3441.0,0.0013
3440.0,0.0013
3439.0,0.0013
3438.0,0.0014
3437.0,0.0014
3436.0,0.0014
3435.0,0.0014
3434.0,0.0013
3433.0,0.0013
3432.0,0.0014
3431.0,0.0014
3430.0,0.0014
3429.0,0.0014
3428.0,0.0014
3427.0,0.0014
3426.0,0.0015
3425.0,0.0016
3424.0,0.0017
3423.0,0.0017
3422.0,0.0016
3421.0,0.0015
3420.0,0.0014
3419.0,0.0013
3418.0,0.0013
3417.0,0.0013
3416.0,0.0013
3415.0,0.0013
3414.0,0.0012
3413.0,0.0012
3412.0,0.0012
3411.0,0.0013
3410.0,0.0015
3409.0,0.0016
3408.0,0.0017
3407.0,0.0016
3406.0,0.0016
3405.0,0.0015
3404.0,0.0015
3403.0,0.0015
3402.0,0.0015
3401.0,0.0015
3400.0,0.0016
3399.0,0.0016
3398.0,0.0015
3397.0,0.0015
3396.0,0.0013
3395.0,0.0013
3394.0,0.0013
3393.0,0.0013
3392.0,0.0014
3391.0,0.0014
3390.0,0.0014
3389.0,0.0014
3388.0,0.0015
3387.0,0.0015
3386.0,0.0015
3385.0,0.0015
3384.0,0.0015
3383.0,0.0016
3382.0,0.0016
3381.0,0.0017
3380.0,0.0017
3379.0,0.0017
3378.0,0.0017
3377.0,0.0016
3376.0,0.0014
3375.0,0.0013
3374.0,0.0013
3373.0,0.0013
3372.0,0.0015
3371.0,0.0015
3370.0,0.0015
3369.0,0.0014
3368.0,0.0014
3367.0,0.0013
3366.0,0.0014
3365.0,0.0015
3364.0,0.0016
3363.0,0.0016
3362.0,0.0016
3361.0,0.0016
3360.0,0.0015
3359.0,0.0015
3358.0,0.0014
3357.0,0.0013
3356.0,0.0013
3355.0,0.0013
3354.0,0.0014
3353.0,0.0015
3352.0,0.0015
3351.0,0.0015
3350.0,0.0014
3349.0,0.0014
3348.0,0.0014
3347.0,0.0015
3346.0,0.0015
3345.0,0.0015
3344.0,0.0015
3343.0,0.0015
3342.0,0.0015
3341.0,0.0015
3340.0,0.0015
3339.0,0.0014
3338.0,0.0013
3337.0,0.0013
3336.0,0.0013
3335.0,0.0013
3334.0,0.0013
3333.0,0.0012
3332.0,0.0011
3331.0,0.001
3330.0,0.001
3329.0,0.001
3328.0,0.0011
3327.0,0.0012
3326.0,0.0013
3325.0,0.0013
3324.0,0.0013
3323.0,0.0013
3322.0,0.0013
3321.0,0.0013
3320.0,0.0012
3319.0,0.0012
3318.0,0.0012
3317.0,0.0012
3316.0,0.0011
3315.0,0.0012
3314.0,0.0012
3313.0,0.0012
3312.0,0.0012
3311.0,0.0012
3310.0,0.0011
3309.0,0.0011
3308.0,0.0011
3307.0,0.0011
3306.0,0.0011
3305.0,0.001
3304.0,0.001
3303.0,0.001
3302.0,0.001
3301.0,0.0011
3300.0,0.0012
3299.0,0.0011
3298.0,0.0011
3297.0,0.0011
3296.0,0.0011
3295.0,0.0012
3294.0,0.0012
3293.0,0.0012
3292.0,0.0012
3291.0,0.0011
3290.0,0.001
3289.0,0.0009
3288.0,0.001
3287.0,0.001
3286.0,0.0011
3285.0,0.001
3284.0,0.001
3283.0,0.001
3282.0,0.001
3281.0,0.0011
3280.0,0.0011
3279.0,0.0011
3278.0,0.0011
3277.0,0.0011
3276.0,0.0011
3275.0,0.0011
3274.0,0.001
3273.0,0.001
3272.0,0.001
3271.0,0.001
3270.0,0.001
3269.0,0.0011
3268.0,0.0012
3267.0,0.0012
3266.0,0.0012
3265.0,0.0012
3264.0,0.0012
3263.0,0.0012
3262.0,0.0011
3261.0,0.001
3260.0,0.0009
3259.0,0.0009
3258.0,0.001
3257.0,0.001
3256.0,0.001
3255.0,0.001
3254.0,0.0011
3253.0,0.0011
3252.0,0.0011
3251.0,0.0012
3250.0,0.0012
3249.0,0.0012
3248.0,0.0012
3247.0,0.0012
3246.0,0.0011
3245.0,0.0009
3244.0,0.0009
3243.0,0.0009
3242.0,0.0011
3241.0,0.0012
3240.0,0.0013
3239.0,0.0012
3238.0,0.0012
3237.0,0.0011
3236.0,0.001
3235.0,0.001
3234.0,0.0011
3233.0,0.0012
3232.0,0.0012
3231.0,0.0013
3230.0,0.0012
3229.0,0.0012
3228.0,0.0013
3227.0,0.0015
3226.0,0.0016
3225.0,0.0017
3224.0,0.0017
3223.0,0.0015
3222.0,0.0014
3221.0,0.0013
3220.0,0.0013
3219.0,0.0013
3218.0,0.0012
3217.0,0.0012
3216.0,0.0012
3215.0,0.0011
3214.0,0.001
3213.0,0.0008
3212.0,0.0008
3211.0,0.0008
3210.0,0.0009
3209.0,0.0011
3208.0,0.0012
3207.0,0.0012
3206.0,0.0011
3205.0,0.001
3204.0,0.001
3203.0,0.0009
3202.0,0.0009
3201.0,0.0009
3200.0,0.0009
3199.0,0.001
3198.0,0.001
3197.0,0.0011
3196.0,0.0012
3195.0,0.0012
3194.0,0.0012
3193.0,0.0011
3192.0,0.0011
3191.0,0.0011
3190.0,0.0011
3189.0,0.0011
3188.0,0.0011
3187.0,0.0011
3186.0,0.0011
3185.0,0.0011
3184.0,0.001
3183.0,0.0009
3182.0,0.0008
3181.0,0.0007
3180.0,0.0007
3179.0,0.0007
3178.0,0.0006
3177.0,0.0005
3176.0,0.0005
3175.0,0.0005
3174.0,0.0005
3173.0,0.0006
3172.0,0.0006
3171.0,0.0006
3170.0,0.0006
3169.0,0.0006
3168.0,0.0005
3167.0,0.0005
3166.0,0.0005
3165.0,0.0006
3164.0,0.0007
3163.0,0.0007
3162.0,0.0006
3161.0,0.0006
3160.0,0.0005
3159.0,0.0006
3158.0,0.0006
3157.0,0.0006
3156.0,0.0006
3155.0,0.0006
3154.0,0.0006
3153.0,0.0006
3152.0,0.0005
3151.0,0.0005
3150.0,0.0004
3149.0,0.0004
3148.0,0.0005
3147.0,0.0005
3146.0,0.0005
3145.0,0.0005
3144.0,0.0005
3143.0,0.0005
3142.0,0.0005
3141.0,0.0005
3140.0,0.0004
3139.0,0.0004
3138.0,0.0003
3137.0,0.0003
3136.0,0.0003
3135.0,0.0004
3134.0,0.0004
3133.0,0.0004
3132.0,0.0004
3131.0,0.0004
3130.0,0.0003
3129.0,0.0003
3128.0,0.0004
3127.0,0.0004
3126.0,0.0004
3125.0,0.0004
3124.0,0.0003
3123.0,0.0002
3122.0,0.0001
3121.0,0.0001
3120.0,0.0001
3119.0,0.0001
3118.0,0.0001
3117.0,0.0002
3116.0,0.0003
3115.0,0.0004
3114.0,0.0004
3113.0,0.0003
3112.0,0.0002
3111.0,0.0002
3110.0,0.0002
3109.0,0.0002
3108.0,0.0002
3107.0,0.0002
3106.0,0.0001
3105.0,0.0
3104.0,-0.0001
3103.0,-0.0002
3102.0,-0.0002
3101.0,-0.0001
3100.0,-0.0
3099.0,0.0001
3098.0,0.0002
3097.0,0.0002
3096.0,0.0003
3095.0,0.0002
3094.0,0.0002
3093.0,0.0001
3092.0,0.0001
3091.0,0.0001
3090.0,0.0002
3089.0,0.0002
3088.0,0.0002
3087.0,0.0002
3086.0,0.0001
3085.0,0.0001
3084.0,0.0001
3083.0,-0.0
3082.0,-0.0001
3081.0,-0.0002
3080.0,-0.0002
3079.0,-0.0001
3078.0,-0.0
3077.0,0.0001
3076.0,0.0001
3075.0,0.0002
3074.0,0.0002
3073.0,0.0002
3072.0,0.0002
3071.0,0.0002
3070.0,0.0001
3069.0,0.0
3068.0,-0.0001
3067.0,-0.0001
3066.0,-0.0002
3065.0,-0.0002
3064.0,-0.0001
3063.0,-0.0
3062.0,0.0
3061.0,0.0001
3060.0,0.0
3059.0,-0.0
3058.0,-0.0001
3057.0,-0.0001
3056.0,-0.0001
3055.0,-0.0
3054.0,0.0
3053.0,-0.0
3052.0,-0.0
3051.0,-0.0001
3050.0,-0.0001
3049.0,-0.0001
3048.0,-0.0
3047.0,0.0
3046.0,-0.0
3045.0,-0.0
3044.0,0.0
3043.0,0.0
3042.0,-0.0
3041.0,-0.0
3040.0,-0.0
3039.0,-0.0
3038.0,0.0001
3037.0,0.0002
3036.0,0.0003
3035.0,0.0003
3034.0,0.0004
3033.0,0.0004
3032.0,0.0005
3031.0,0.0006
3030.0,0.0008
3029.0,0.0009
3028.0,0.0011
3027.0,0.0013
3026.0,0.0015
3025.0,0.0017
3024.0,0.0019
3023.0,0.0022
3022.0,0.0026
3021.0,0.0031
3020.0,0.0037
3019.0,0.0042
3018.0,0.0048
3017.0,0.0053
3016.0,0.0059
3015.0,0.0066
3014.0,0.0073
3013.0,0.0081
3012.0,0.0089
3011.0,0.0099
3010.0,0.0108
3009.0,0.0119
3008.0,0.013
3007.0,0.0142
3006.0,0.0154
3005.0,0.0165
3004.0,0.0177
3003.0,0.0189
3002.0,0.02
3001.0,0.0212
3000.0,0.0222
2999.0,0.0231
2998.0,0.0238
2997.0,0.0242
2996.0,0.0244
2995.0,0.0243
2994.0,0.0239
2993.0,0.0232
2992.0,0.0222
2991.0,0.021
2990.0,0.0196
2989.0,0.0182
2988.0,0.0169
2987.0,0.0156
2986.0,0.0145
2985.0,0.0136
2984.0,0.0127
2983.0,0.012
2982.0,0.0114
2981.0,0.0109
2980.0,0.0105
2979.0,0.0102
2978.0,0.01
2977.0,0.0099
2976.0,0.0097
2975.0,0.0096
2974.0,0.0096
2973.0,0.0096
2972.0,0.0097
2971.0,0.0098
2970.0,0.0099
2969.0,0.01
2968.0,0.0102
2967.0,0.0104
2966.0,0.0107
2965.0,0.0111
2964.0,0.0114
2963.0,0.0117
2962.0,0.012
2961.0,0.0124
2960.0,0.0128
2959.0,0.0133
2958.0,0.0137
2957.0,0.0141
2956.0,0.0146
2955.0,0.0152
2954.0,0.0159
2953.0,0.0167
2952.0,0.0175
2951.0,0.0183
2950.0,0.0191
2949.0,0.0199
2948.0,0.0206
2947.0,0.0212
2946.0,0.0215
2945.0,0.0216
2944.0,0.0214
2943.0,0.0209
2942.0,0.0201
2941.0,0.0192
2940.0,0.0182
2939.0,0.0172
2938.0,0.0163
2937.0,0.0156
2936.0,0.015
2935.0,0.0144
2934.0,0.0139
2933.0,0.0135
2932.0,0.0132
2931.0,0.0129
2930.0,0.0127
2929.0,0.0125
2928.0,0.0122
2927.0,0.012
2926.0,0.0117
2925.0,0.0115
2924.0,0.0112
2923.0,0.011
2922.0,0.0106
2921.0,0.0103
2920.0,0.0099
2919.0,0.0095
2918.0,0.0091
2917.0,0.0087
2916.0,0.0083
2915.0,0.008
2914.0,0.0077
2913.0,0.0075
2912.0,0.0073
2911.0,0.0072
2910.0,0.0071
2909.0,0.007
2908.0,0.0069
2907.0,0.0069
2906.0,0.0068
2905.0,0.0067
2904.0,0.0066
2903.0,0.0065
2902.0,0.0064
2901.0,0.0063
2900.0,0.0062
2899.0,0.006
2898.0,0.0059
2897.0,0.0059
2896.0,0.0059
2895.0,0.0059
2894.0,0.0058
2893.0,0.0057
2892.0,0.0056
2891.0,0.0056
2890.0,0.0057
2889.0,0.0059
2888.0,0.006
2887.0,0.0061
2886.0,0.0063
2885.0,0.0064
2884.0,0.0065
2883.0,0.0066
2882.0,0.0067
2881.0,0.0067
2880.0,0.0067
2879.0,0.0066
2878.0,0.0065
2877.0,0.0063
2876.0,0.006
2875.0,0.0058
2874.0,0.0055
2873.0,0.0053
2872.0,0.005
2871.0,0.0047
2870.0,0.0044
2869.0,0.0041
2868.0,0.004
2867.0,0.0038
2866.0,0.0037
2865.0,0.0037
2864.0,0.0037
2863.0,0.0037
2862.0,0.0039
2861.0,0.004
2860.0,0.0041
2859.0,0.0042
2858.0,0.0043
2857.0,0.0043
2856.0,0.0044
2855.0,0.0045
2854.0,0.0045
2853.0,0.0045
2852.0,0.0044
2851.0,0.0042
2850.0,0.0039
2849.0,0.0036
2848.0,0.0033
2847.0,0.003
2846.0,0.0028
2845.0,0.0026
2844.0,0.0025
2843.0,0.0024
2842.0,0.0023
2841.0,0.0021
2840.0,0.002
2839.0,0.0019
2838.0,0.0019
2837.0,0.0018
2836.0,0.0018
2835.0,0.0017
2834.0,0.0016
2833.0,0.0016
2832.0,0.0015
2831.0,0.0015
2830.0,0.0015
2829.0,0.0015
2828.0,0.0014
2827.0,0.0014
2826.0,0.0014
2825.0,0.0014
2824.0,0.0014
2823.0,0.0013
2822.0,0.0013
2821.0,0.0012
2820.0,0.0012
2819.0,0.0011
2818.0,0.0011
2817.0,0.0011
2816.0,0.0011
2815.0,0.001
2814.0,0.001
2813.0,0.0009
2812.0,0.0009
2811.0,0.0008
2810.0,0.0008
2809.0,0.0008
2808.0,0.0007
2807.0,0.0007
2806.0,0.0007
2805.0,0.0006
2804.0,0.0006
2803.0,0.0005
2802.0,0.0004
2801.0,0.0004
2800.0,0.0004
2799.0,0.0005
2798.0,0.0004
2797.0,0.0003
2796.0,0.0002
2795.0,0.0002
2794.0,0.0001
2793.0,0.0001
2792.0,0.0002
2791.0,0.0002
2790.0,0.0001
2789.0,0.0001
2788.0,0.0
2787.0,-0.0
2786.0,-0.0
2785.0,-0.0
2784.0,-0.0
2783.0,-0.0
2782.0,-0.0
2781.0,-0.0
2780.0,-0.0001
2779.0,-0.0001
2778.0,-0.0002
2777.0,-0.0002
2776.0,-0.0002
2775.0,-0.0002
2774.0,-0.0002
2773.0,-0.0002
2772.0,-0.0001
2771.0,-0.0001
2770.0,-0.0002
2769.0,-0.0002
2768.0,-0.0002
2767.0,-0.0002
2766.0,-0.0001
2765.0,-0.0001
2764.0,-0.0001
2763.0,-0.0001
2762.0,-0.0002
2761.0,-0.0002
2760.0,-0.0002
2759.0,-0.0002
2758.0,-0.0002
2757.0,-0.0003
2756.0,-0.0003
2755.0,-0.0004
2754.0,-0.0004
2753.0,-0.0004
2752.0,-0.0003
2751.0,-0.0002
2750.0,-0.0001
2749.0,-0.0001
2748.0,-0.0001
2747.0,-0.0001
2746.0,-0.0001
2745.0,-0.0001
2744.0,-0.0001
2743.0,-0.0001
2742.0,-0.0002
2741.0,-0.0002
2740.0,-0.0002
2739.0,-0.0002
2738.0,-0.0003
2737.0,-0.0003
2736.0,-0.0003
2735.0,-0.0003
2734.0,-0.0003
2733.0,-0.0003
2732.0,-0.0003
2731.0,-0.0002
2730.0,-0.0002
2729.0,-0.0002
2728.0,-0.0002
2727.0,-0.0002
2726.0,-0.0003
2725.0,-0.0004
2724.0,-0.0004
2723.0,-0.0004
2722.0,-0.0004
2721.0,-0.0004
2720.0,-0.0003
2719.0,-0.0003
2718.0,-0.0003
2717.0,-0.0003
2716.0,-0.0003
2715.0,-0.0003
2714.0,-0.0004
2713.0,-0.0005
2712.0,-0.0005
2711.0,-0.0004
2710.0,-0.0004
2709.0,-0.0004
2708.0,-0.0003
2707.0,-0.0003
2706.0,-0.0003
2705.0,-0.0003
2704.0,-0.0003
2703.0,-0.0004
2702.0,-0.0004
2701.0,-0.0004
2700.0,-0.0005
2699.0,-0.0005
2698.0,-0.0005
2697.0,-0.0005
2696.0,-0.0005
2695.0,-0.0005
2694.0,-0.0004
2693.0,-0.0004
2692.0,-0.0004
2691.0,-0.0004
2690.0,-0.0004
2689.0,-0.0004
2688.0,-0.0004
2687.0,-0.0004
2686.0,-0.0003
2685.0,-0.0003
2684.0,-0.0003
2683.0,-0.0003
2682.0,-0.0004
2681.0,-0.0004
2680.0,-0.0004
2679.0,-0.0003
2678.0,-0.0003
2677.0,-0.0003
2676.0,-0.0002
2675.0,-0.0002
2674.0,-0.0002
2673.0,-0.0002
2672.0,-0.0003
2671.0,-0.0003
2670.0,-0.0003
2669.0,-0.0003
2668.0,-0.0002
2667.0,-0.0002
2666.0,-0.0002
2665.0,-0.0002
2664.0,-0.0002
2663.0,-0.0002
2662.0,-0.0002
2661.0,-0.0003
2660.0,-0.0003
2659.0,-0.0003
2658.0,-0.0002
2657.0,-0.0002
2656.0,-0.0001
2655.0,-0.0001
2654.0,-0.0001
2653.0,-0.0002
2652.0,-0.0002
2651.0,-0.0003
2650.0,-0.0003
2649.0,-0.0003
2648.0,-0.0003
2647.0,-0.0003
2646.0,-0.0003
2645.0,-0.0003
2644.0,-0.0003
2643.0,-0.0002
2642.0,-0.0002
2641.0,-0.0002
2640.0,-0.0002
2639.0,-0.0003
2638.0,-0.0003
2637.0,-0.0003
2636.0,-0.0004
2635.0,-0.0004
2634.0,-0.0005
2633.0,-0.0005
2632.0,-0.0005
2631.0,-0.0004
2630.0,-0.0003
2629.0,-0.0003
2628.0,-0.0003
2627.0,-0.0003
2626.0,-0.0004
2625.0,-0.0005
2624.0,-0.0004
2623.0,-0.0004
2622.0,-0.0004
2621.0,-0.0004
2620.0,-0.0005
2619.0,-0.0006
2618.0,-0.0006
2617.0,-0.0006
2616.0,-0.0007
2615.0,-0.0007
2614.0,-0.0007
2613.0,-0.0007
2612.0,-0.0007
2611.0,-0.0007
2610.0,-0.0007
2609.0,-0.0007
2608.0,-0.0007
2607.0,-0.0007
2606.0,-0.0007
2605.0,-0.0007
2604.0,-0.0007
2603.0,-0.0007
2602.0,-0.0007
2601.0,-0.0007
2600.0,-0.0007
2599.0,-0.0007
2598.0,-0.0007
2597.0,-0.0007
2596.0,-0.0007
2595.0,-0.0007
2594.0,-0.0007
2593.0,-0.0006
2592.0,-0.0006
2591.0,-0.0005
2590.0,-0.0005
2589.0,-0.0006
2588.0,-0.0006
2587.0,-0.0007
2586.0,-0.0007
2585.0,-0.0007
2584.0,-0.0007
2583.0,-0.0006
2582.0,-0.0005
2581.0,-0.0005
2580.0,-0.0005
2579.0,-0.0006
2578.0,-0.0006
2577.0,-0.0007
2576.0,-0.0007
2575.0,-0.0007
2574.0,-0.0007
2573.0,-0.0008
2572.0,-0.0008
2571.0,-0.0009
2570.0,-0.001
2569.0,-0.001
2568.0,-0.001
2567.0,-0.0009
2566.0,-0.0009
2565.0,-0.0009
2564.0,-0.0008
2563.0,-0.0009
2562.0,-0.0009
2561.0,-0.0009
2560.0,-0.001
2559.0,-0.001
2558.0,-0.001
2557.0,-0.001
2556.0,-0.001
2555.0,-0.0011
2554.0,-0.0011
2553.0,-0.0011
2552.0,-0.0011
2551.0,-0.0011
2550.0,-0.001
2549.0,-0.001
2548.0,-0.001
2547.0,-0.0009
2546.0,-0.0009
2545.0,-0.0009
2544.0,-0.001
2543.0,-0.001
2542.0,-0.0011
2541.0,-0.0011
2540.0,-0.001
2539.0,-0.001
2538.0,-0.001
2537.0,-0.0011
2536.0,-0.0012
2535.0,-0.0013
2534.0,-0.0013
2533.0,-0.0012
2532.0,-0.0012
2531.0,-0.0011
2530.0,-0.0011
2529.0,-0.0011
2528.0,-0.001
2527.0,-0.0011
2526.0,-0.0011
2525.0,-0.0011
2524.0,-0.0011
2523.0,-0.0011
2522.0,-0.001
2521.0,-0.001
2520.0,-0.001
2519.0,-0.001
2518.0,-0.001
2517.0,-0.0011
2516.0,-0.0011
2515.0,-0.0011
2514.0,-0.0011
2513.0,-0.0011
2512.0,-0.0011
2511.0,-0.0012
2510.0,-0.0012
2509.0,-0.0012
2508.0,-0.0011
2507.0,-0.0011
2506.0,-0.0011
2505.0,-0.0011
2504.0,-0.0011
2503.0,-0.0011
2502.0,-0.0012
2501.0,-0.0012
2500.0,-0.0012
2499.0,-0.0013
2498.0,-0.0013
2497.0,-0.0013
2496.0,-0.0013
2495.0,-0.0013
2494.0,-0.0013
2493.0,-0.0013
2492.0,-0.0013
2491.0,-0.0013
2490.0,-0.0012
2489.0,-0.0012
2488.0,-0.0012
2487.0,-0.0012
2486.0,-0.0012
2485.0,-0.0013
2484.0,-0.0013
2483.0,-0.0014
2482.0,-0.0015
2481.0,-0.0016
2480.0,-0.0016
2479.0,-0.0015
2478.0,-0.0015
2477.0,-0.0014
2476.0,-0.0014
2475.0,-0.0015
2474.0,-0.0016
2473.0,-0.0016
2472.0,-0.0016
2471.0,-0.0016
2470.0,-0.0015
2469.0,-0.0015
2468.0,-0.0015
2467.0,-0.0015
2466.0,-0.0015
2465.0,-0.0015
2464.0,-0.0015
2463.0,-0.0015
2462.0,-0.0016
2461.0,-0.0016
2460.0,-0.0017
2459.0,-0.0018
2458.0,-0.0018
2457.0,-0.0018
2456.0,-0.0018
2455.0,-0.0017
2454.0,-0.0017
2453.0,-0.0017
2452.0,-0.0017
2451.0,-0.0016
2450.0,-0.0016
2449.0,-0.0016
2448.0,-0.0016
2447.0,-0.0016
2446.0,-0.0016
2445.0,-0.0015
2444.0,-0.0015
2443.0,-0.0015
2442.0,-0.0015
2441.0,-0.0015
2440.0,-0.0014
2439.0,-0.0013
2438.0,-0.0013
2437.0,-0.0013
2436.0,-0.0013
2435.0,-0.0013
2434.0,-0.0013
2433.0,-0.0013
2432.0,-0.0013
2431.0,-0.0013
2430.0,-0.0012
2429.0,-0.0012
2428.0,-0.0011
2427.0,-0.0011
2426.0,-0.0011
2425.0,-0.0011
2424.0,-0.0011
2423.0,-0.0011
2422.0,-0.0011
2421.0,-0.0011
2420.0,-0.001
2419.0,-0.0009
2418.0,-0.0009
2417.0,-0.0009
2416.0,-0.0009
2415.0,-0.0009
2414.0,-0.0009
2413.0,-0.0008
2412.0,-0.0008
2411.0,-0.0008
2410.0,-0.0009
2409.0,-0.0009
2408.0,-0.0008
2407.0,-0.0008
2406.0,-0.0008
2405.0,-0.0008
2404.0,-0.0008
2403.0,-0.0008
2402.0,-0.0008
2401.0,-0.0007
2400.0,-0.0007
2399.0,-0.0007
2398.0,-0.0007
2397.0,-0.0007
2396.0,-0.0007
2395.0,-0.0007
2394.0,-0.0007
2393.0,-0.0007
2392.0,-0.0007
2391.0,-0.0007
2390.0,-0.0008
2389.0,-0.001
2388.0,-0.0012
2387.0,-0.0014
2386.0,-0.0016
2385.0,-0.0018
2384.0,-0.0021
2383.0,-0.0025
2382.0,-0.0031
2381.0,-0.0038
2380.0,-0.0045
2379.0,-0.0052
2378.0,-0.0057
2377.0,-0.0061
2376.0,-0.0062
2375.0,-0.0061
2374.0,-0.0059
2373.0,-0.0055
2372.0,-0.0052
2371.0,-0.0052
2370.0,-0.0055
2369.0,-0.0057
2368.0,-0.0055
2367.0,-0.0052
2366.0,-0.0048
2365.0,-0.0039
2364.0,-0.0029
2363.0,-0.0034
2362.0,-0.0053
2361.0,-0.0073
2360.0,-0.0084
2359.0,-0.0092
2358.0,-0.0097
2357.0,-0.0092
2356.0,-0.0082
2355.0,-0.008
2354.0,-0.0086
2353.0,-0.0092
2352.0,-0.0096
2351.0,-0.0096
2350.0,-0.0093
2349.0,-0.0087
2348.0,-0.0081
2347.0,-0.0078
2346.0,-0.0081
2345.0,-0.0087
2344.0,-0.0092
2343.0,-0.0093
2342.0,-0.0093
2341.0,-0.0096
2340.0,-0.01
2339.0,-0.0107
2338.0,-0.0115
2337.0,-0.0118
2336.0,-0.0114
2335.0,-0.0108
2334.0,-0.0103
2333.0,-0.0101
2332.0,-0.0101
2331.0,-0.0101
2330.0,-0.0102
2329.0,-0.0099
2328.0,-0.0094
2327.0,-0.0089
2326.0,-0.0086
2325.0,-0.0085
2324.0,-0.0085
2323.0,-0.0085
2322.0,-0.0084
2321.0,-0.008
2320.0,-0.0076
2319.0,-0.0072
2318.0,-0.007
2317.0,-0.0066
2316.0,-0.0063
2315.0,-0.0062
2314.0,-0.0062
2313.0,-0.0064
2312.0,-0.0065
2311.0,-0.0065
2310.0,-0.0065
2309.0,-0.0064
2308.0,-0.0061
2307.0,-0.0059
2306.0,-0.0056
2305.0,-0.0054
2304.0,-0.0053
2303.0,-0.0051
2302.0,-0.0049
2301.0,-0.0047
2300.0,-0.0044
2299.0,-0.0042
2298.0,-0.004
2297.0,-0.0038
2296.0,-0.0037
2295.0,-0.0037
2294.0,-0.0037
2293.0,-0.0036
2292.0,-0.0034
2291.0,-0.0033
2290.0,-0.0033
2289.0,-0.0032
2288.0,-0.003
2287.0,-0.0029
2286.0,-0.0028
2285.0,-0.0028
2284.0,-0.0028
2283.0,-0.0028
2282.0,-0.0028
2281.0,-0.0028
2280.0,-0.0028
2279.0,-0.0029
2278.0,-0.0029
2277.0,-0.0029
2276.0,-0.003
2275.0,-0.003
2274.0,-0.0031
2273.0,-0.0032
2272.0,-0.0032
2271.0,-0.0032
2270.0,-0.0032
2269.0,-0.0032
2268.0,-0.0032
2267.0,-0.0031
2266.0,-0.0032
2265.0,-0.0032
2264.0,-0.0032
2263.0,-0.0032
2262.0,-0.0032
2261.0,-0.0032
2260.0,-0.0031
2259.0,-0.0031
2258.0,-0.0031
2257.0,-0.0031
2256.0,-0.0031
2255.0,-0.0031
2254.0,-0.0031
2253.0,-0.0031
2252.0,-0.003
2251.0,-0.003
2250.0,-0.003
2249.0,-0.0031
2248.0,-0.0031
2247.0,-0.0032
2246.0,-0.0033
2245.0,-0.0032
2244.0,-0.0031
2243.0,-0.0031
2242.0,-0.0031
2241.0,-0.0031
2240.0,-0.0031
2239.0,-0.0032
2238.0,-0.0032
2237.0,-0.0033
2236.0,-0.0032
2235.0,-0.0032
2234.0,-0.0033
2233.0,-0.0033
2232.0,-0.0033
2231.0,-0.0033
2230.0,-0.0034
2229.0,-0.0034
2228.0,-0.0034
2227.0,-0.0034
2226.0,-0.0034
2225.0,-0.0034
2224.0,-0.0034
2223.0,-0.0035
2222.0,-0.0035
2221.0,-0.0036
2220.0,-0.0036
2219.0,-0.0036
2218.0,-0.0037
2217.0,-0.0037
2216.0,-0.0037
2215.0,-0.0037
2214.0,-0.0038
2213.0,-0.0038
2212.0,-0.0038
2211.0,-0.0038
2210.0,-0.0039
2209.0,-0.0039
2208.0,-0.004
2207.0,-0.004
2206.0,-0.004
2205.0,-0.004
2204.0,-0.004
2203.0,-0.004
2202.0,-0.004
2201.0,-0.004
2200.0,-0.004
2199.0,-0.0041
2198.0,-0.0041
2197.0,-0.0042
2196.0,-0.0042
2195.0,-0.0043
2194.0,-0.0043
2193.0,-0.0043
2192.0,-0.0042
2191.0,-0.0042
2190.0,-0.0041
2189.0,-0.0041
2188.0,-0.0041
2187.0,-0.0041
2186.0,-0.0041
2185.0,-0.0041
2184.0,-0.004
2183.0,-0.004
2182.0,-0.004
2181.0,-0.0041
2180.0,-0.0041
2179.0,-0.004
2178.0,-0.0041
2177.0,-0.0041
2176.0,-0.004
2175.0,-0.0041
2174.0,-0.0041
2173.0,-0.0041
2172.0,-0.0042
2171.0,-0.0042
2170.0,-0.0042
2169.0,-0.0042
2168.0,-0.0042
2167.0,-0.0042
2166.0,-0.0042
2165.0,-0.0042
2164.0,-0.0042
2163.0,-0.0042
2162.0,-0.0043
2161.0,-0.0043
2160.0,-0.0042
2159.0,-0.0041
2158.0,-0.0041
2157.0,-0.0041
2156.0,-0.0041
2155.0,-0.0042
2154.0,-0.0042
2153.0,-0.0042
2152.0,-0.0042
2151.0,-0.0042
2150.0,-0.0042
2149.0,-0.0042
2148.0,-0.0042
2147.0,-0.0042
2146.0,-0.0042
2145.0,-0.0041
2144.0,-0.0041
2143.0,-0.004
2142.0,-0.004
2141.0,-0.004
2140.0,-0.004
2139.0,-0.004
2138.0,-0.004
2137.0,-0.0039
2136.0,-0.0039
2135.0,-0.0039
2134.0,-0.0038
2133.0,-0.0038
2132.0,-0.0038
2131.0,-0.0038
2130.0,-0.0039
2129.0,-0.0038
2128.0,-0.0038
2127.0,-0.0037
2126.0,-0.0037
2125.0,-0.0037
2124.0,-0.0037
2123.0,-0.0037
2122.0,-0.0038
2121.0,-0.0038
2120.0,-0.0038
2119.0,-0.0038
2118.0,-0.0038
2117.0,-0.0038
2116.0,-0.0038
2115.0,-0.0038
2114.0,-0.0039
2113.0,-0.0039
2112.0,-0.0038
2111.0,-0.0038
2110.0,-0.0039
2109.0,-0.0039
2108.0,-0.004
2107.0,-0.004
2106.0,-0.0039
2105.0,-0.0039
2104.0,-0.0038
2103.0,-0.0038
2102.0,-0.0038
2101.0,-0.0038
2100.0,-0.0037
2099.0,-0.0037
2098.0,-0.0037
2097.0,-0.0037
2096.0,-0.0036
2095.0,-0.0036
2094.0,-0.0036
2093.0,-0.0035
2092.0,-0.0035
2091.0,-0.0034
2090.0,-0.0034
2089.0,-0.0035
2088.0,-0.0035
2087.0,-0.0035
2086.0,-0.0035
2085.0,-0.0035
2084.0,-0.0035
2083.0,-0.0035
2082.0,-0.0036
2081.0,-0.0036
2080.0,-0.0036
2079.0,-0.0036
2078.0,-0.0036
2077.0,-0.0036
2076.0,-0.0037
2075.0,-0.0038
2074.0,-0.0039
2073.0,-0.0039
2072.0,-0.0039
2071.0,-0.0039
2070.0,-0.004
2069.0,-0.0041
2068.0,-0.0041
2067.0,-0.0042
2066.0,-0.0042
2065.0,-0.0042
2064.0,-0.0043
2063.0,-0.0044
2062.0,-0.0044
2061.0,-0.0045
2060.0,-0.0045
2059.0,-0.0045
2058.0,-0.0046
2057.0,-0.0046
2056.0,-0.0047
2055.0,-0.0047
2054.0,-0.0048
2053.0,-0.0049
2052.0,-0.005
2051.0,-0.0051
2050.0,-0.0051
2049.0,-0.0052
2048.0,-0.0053
2047.0,-0.0053
2046.0,-0.0054
2045.0,-0.0054
2044.0,-0.0055
2043.0,-0.0055
2042.0,-0.0056
2041.0,-0.0057
2040.0,-0.0057
2039.0,-0.0057
2038.0,-0.0058
2037.0,-0.0059
2036.0,-0.006
2035.0,-0.006
2034.0,-0.0061
2033.0,-0.0061
2032.0,-0.0061
2031.0,-0.0061
2030.0,-0.0061
2029.0,-0.0061
2028.0,-0.0061
2027.0,-0.0061
2026.0,-0.0061
2025.0,-0.0061
2024.0,-0.0061
2023.0,-0.0061
2022.0,-0.0061
2021.0,-0.0061
2020.0,-0.0061
2019.0,-0.0061
2018.0,-0.0062
2017.0,-0.0062
2016.0,-0.0061
2015.0,-0.0061
2014.0,-0.006
2013.0,-0.006
2012.0,-0.006
2011.0,-0.0059
2010.0,-0.0059
2009.0,-0.0059
2008.0,-0.0059
2007.0,-0.0059
2006.0,-0.0059
2005.0,-0.0059
2004.0,-0.0058
2003.0,-0.0059
2002.0,-0.0059
2001.0,-0.0059
2000.0,-0.0059
1999.0,-0.0059
1998.0,-0.006
1997.0,-0.006
1996.0,-0.006
1995.0,-0.006
1994.0,-0.0061
1993.0,-0.0061
1992.0,-0.0061
1991.0,-0.0061
1990.0,-0.0061
1989.0,-0.0061
1988.0,-0.0061
1987.0,-0.0061
1986.0,-0.0061
1985.0,-0.0061
1984.0,-0.006
1983.0,-0.0061
1982.0,-0.0061
1981.0,-0.0061
1980.0,-0.006
1979.0,-0.006
1978.0,-0.006
1977.0,-0.006
1976.0,-0.006
1975.0,-0.0059
1974.0,-0.0059
1973.0,-0.0059
1972.0,-0.0058
1971.0,-0.0058
1970.0,-0.0059
1969.0,-0.0059
1968.0,-0.006
1967.0,-0.006
1966.0,-0.006
1965.0,-0.006
1964.0,-0.006
1963.0,-0.006
1962.0,-0.006
1961.0,-0.0061
1960.0,-0.0061
1959.0,-0.0062
1958.0,-0.0063
1957.0,-0.0064
1956.0,-0.0064
1955.0,-0.0064
1954.0,-0.0065
1953.0,-0.0066
1952.0,-0.0066
1951.0,-0.0067
1950.0,-0.0068
1949.0,-0.0068
1948.0,-0.0069
1947.0,-0.0069
1946.0,-0.007
1945.0,-0.0071
1944.0,-0.0072
1943.0,-0.0073
1942.0,-0.0074
1941.0,-0.0074
1940.0,-0.0073
1939.0,-0.0073
1938.0,-0.0074
1937.0,-0.0074
1936.0,-0.0074
1935.0,-0.0074
1934.0,-0.0074
1933.0,-0.0074
1932.0,-0.0074
1931.0,-0.0075
1930.0,-0.0076
1929.0,-0.0076
1928.0,-0.0076
1927.0,-0.0076
1926.0,-0.0076
1925.0,-0.0076
1924.0,-0.0076
1923.0,-0.0076
1922.0,-0.0076
1921.0,-0.0076
1920.0,-0.0076
1919.0,-0.0076
1918.0,-0.0077
1917.0,-0.0077
1916.0,-0.0076
1915.0,-0.0075
1914.0,-0.0076
1913.0,-0.0076
1912.0,-0.0076
1911.0,-0.0076
1910.0,-0.0077
1909.0,-0.0077
1908.0,-0.0077
1907.0,-0.0076
1906.0,-0.0077
1905.0,-0.0077
1904.0,-0.0077
1903.0,-0.0077
1902.0,-0.0077
1901.0,-0.0078
1900.0,-0.0077
1899.0,-0.0077
1898.0,-0.0078
1897.0,-0.0078
1896.0,-0.0078
1895.0,-0.0078
1894.0,-0.0079
1893.0,-0.0079
1892.0,-0.0078
1891.0,-0.0078
1890.0,-0.0079
1889.0,-0.008
1888.0,-0.0079
1887.0,-0.0079
1886.0,-0.008
1885.0,-0.008
1884.0,-0.008
1883.0,-0.008
1882.0,-0.008
1881.0,-0.008
1880.0,-0.0079
1879.0,-0.0079
1878.0,-0.008
1877.0,-0.008
1876.0,-0.0079
1875.0,-0.0078
1874.0,-0.0079
1873.0,-0.0079
1872.0,-0.0079
1871.0,-0.0079
1870.0,-0.008
1869.0,-0.0081
1868.0,-0.0081
1867.0,-0.0081
1866.0,-0.008
1865.0,-0.0079
1864.0,-0.0078
1863.0,-0.0077
1862.0,-0.0077
1861.0,-0.0077
1860.0,-0.0076
1859.0,-0.0075
1858.0,-0.0075
1857.0,-0.0075
1856.0,-0.0074
1855.0,-0.0074
1854.0,-0.0074
1853.0,-0.0073
1852.0,-0.0072
1851.0,-0.007
1850.0,-0.007
1849.0,-0.0069
1848.0,-0.0067
1847.0,-0.0066
1846.0,-0.0066
1845.0,-0.0064
1844.0,-0.0062
1843.0,-0.006
1842.0,-0.0059
1841.0,-0.0058
1840.0,-0.0055
1839.0,-0.0054
1838.0,-0.0052
1837.0,-0.005
1836.0,-0.0047
1835.0,-0.0044
1834.0,-0.0042
1833.0,-0.004
1832.0,-0.0037
1831.0,-0.0035
1830.0,-0.0033
1829.0,-0.003
1828.0,-0.0026
1827.0,-0.0023
1826.0,-0.0022
1825.0,-0.002
1824.0,-0.0017
1823.0,-0.0014
1822.0,-0.0013
1821.0,-0.0011
1820.0,-0.0008
1819.0,-0.0006
1818.0,-0.0005
1817.0,-0.0002
1816.0,0.0001
1815.0,0.0004
1814.0,0.0006
1813.0,0.0009
1812.0,0.0012
1811.0,0.0015
1810.0,0.0017
1809.0,0.002
1808.0,0.0024
1807.0,0.0027
1806.0,0.003
1805.0,0.0033
1804.0,0.0038
1803.0,0.0042
1802.0,0.0046
1801.0,0.0052
1800.0,0.0061
1799.0,0.0068
1798.0,0.0074
1797.0,0.0082
1796.0,0.0092
1795.0,0.0102
1794.0,0.0113
1793.0,0.013
1792.0,0.0154
1791.0,0.0178
1790.0,0.02
1789.0,0.0224
1788.0,0.0253
1787.0,0.0287
1786.0,0.0327
1785.0,0.0375
1784.0,0.0427
1783.0,0.0478
1782.0,0.0533
1781.0,0.0599
1780.0,0.0669
1779.0,0.0733
1778.0,0.079
1777.0,0.0848
1776.0,0.0904
1775.0,0.0957
1774.0,0.1015
1773.0,0.1095
1772.0,0.1191
1771.0,0.1277
1770.0,0.1354
1769.0,0.1446
1768.0,0.1561
1767.0,0.1685
1766.0,0.1803
1765.0,0.1926
1764.0,0.2074
1763.0,0.2274
1762.0,0.2528
1761.0,0.279
1760.0,0.3014
1759.0,0.3202
1758.0,0.3392
1757.0,0.3593
1756.0,0.3758
1755.0,0.3848
1754.0,0.3891
1753.0,0.3922
1752.0,0.3951
1751.0,0.3964
1750.0,0.3954
1749.0,0.3922
1748.0,0.3854
1747.0,0.3745
1746.0,0.3608
1745.0,0.3448
1744.0,0.3262
1743.0,0.3063
1742.0,0.2867
1741.0,0.2662
1740.0,0.2435
1739.0,0.2225
1738.0,0.2067
1737.0,0.1945
1736.0,0.1817
1735.0,0.165
1734.0,0.1475
1733.0,0.1352
1732.0,0.127
1731.0,0.1201
1730.0,0.1136
1729.0,0.1077
1728.0,0.1026
1727.0,0.0983
1726.0,0.0948
1725.0,0.0915
1724.0,0.0881
1723.0,0.0849
1722.0,0.0824
1721.0,0.0801
1720.0,0.0775
1719.0,0.0746
1718.0,0.0718
1717.0,0.0692
1716.0,0.0664
1715.0,0.0638
1714.0,0.0614
1713.0,0.059
1712.0,0.0564
1711.0,0.0538
1710.0,0.0515
1709.0,0.0494
1708.0,0.0474
1707.0,0.0454
1706.0,0.0435
1705.0,0.0418
1704.0,0.0402
1703.0,0.0388
1702.0,0.0376
1701.0,0.0365
1700.0,0.0352
1699.0,0.034
1698.0,0.0331
1697.0,0.0322
1696.0,0.0311
1695.0,0.0301
1694.0,0.0295
1693.0,0.029
1692.0,0.0282
1691.0,0.0274
1690.0,0.0267
1689.0,0.0261
1688.0,0.0255
1687.0,0.0247
1686.0,0.024
1685.0,0.0235
1684.0,0.0232
1683.0,0.0229
1682.0,0.0228
1681.0,0.0225
1680.0,0.022
1679.0,0.0216
1678.0,0.0213
1677.0,0.021
1676.0,0.0206
1675.0,0.0203
1674.0,0.0201
1673.0,0.0198
1672.0,0.0194
1671.0,0.0189
1670.0,0.0187
1669.0,0.0184
1668.0,0.0181
1667.0,0.0178
1666.0,0.0175
1665.0,0.0172
1664.0,0.0169
1663.0,0.0166
1662.0,0.0163
1661.0,0.0161
1660.0,0.0159
1659.0,0.0156
1658.0,0.0154
1657.0,0.015
1656.0,0.0146
1655.0,0.014
1654.0,0.0138
1653.0,0.0138
1652.0,0.0136
1651.0,0.0134
1650.0,0.0134
1649.0,0.0132
1648.0,0.0131
1647.0,0.013
1646.0,0.0129
1645.0,0.0128
1644.0,0.0126
1643.0,0.0124
1642.0,0.0123
1641.0,0.0122
1640.0,0.012
1639.0,0.0118
1638.0,0.0117
1637.0,0.0117
1636.0,0.0117
1635.0,0.0117
1634.0,0.0117
1633.0,0.0116
1632.0,0.0115
1631.0,0.0113
1630.0,0.0111
1629.0,0.0109
1628.0,0.0108
1627.0,0.0106
1626.0,0.0106
1625.0,0.0105
1624.0,0.0105
1623.0,0.0104
1622.0,0.0103
1621.0,0.0102
1620.0,0.01
1619.0,0.0097
1618.0,0.0094
1617.0,0.0092
1616.0,0.0091
1615.0,0.009
1614.0,0.009
1613.0,0.0088
1612.0,0.0086
1611.0,0.0084
1610.0,0.0082
1609.0,0.0081
1608.0,0.0079
1607.0,0.0077
1606.0,0.0076
1605.0,0.0074
1604.0,0.0072
1603.0,0.007
1602.0,0.0069
1601.0,0.0067
1600.0,0.0066
1599.0,0.0064
1598.0,0.0062
1597.0,0.006
1596.0,0.0058
1595.0,0.0057
1594.0,0.0055
1593.0,0.0055
1592.0,0.0054
1591.0,0.0052
1590.0,0.0051
1589.0,0.005
1588.0,0.0048
1587.0,0.0047
1586.0,0.0045
1585.0,0.0044
1584.0,0.0042
1583.0,0.0041
1582.0,0.0039
1581.0,0.0038
1580.0,0.0037
1579.0,0.0035
1578.0,0.0034
1577.0,0.0032
1576.0,0.0031
1575.0,0.0029
1574.0,0.0029
1573.0,0.0028
1572.0,0.0027
1571.0,0.0025
1570.0,0.0024
1569.0,0.0024
1568.0,0.0024
1567.0,0.0024
1566.0,0.0023
1565.0,0.0023
1564.0,0.0022
1563.0,0.0021
1562.0,0.002
1561.0,0.0019
1560.0,0.0019
1559.0,0.0019
1558.0,0.0018
1557.0,0.0018
1556.0,0.0018
1555.0,0.0017
1554.0,0.0016
1553.0,0.0016
1552.0,0.0015
1551.0,0.0015
1550.0,0.0014
1549.0,0.0014
1548.0,0.0014
1547.0,0.0014
1546.0,0.0013
1545.0,0.0013
1544.0,0.0013
1543.0,0.0012
1542.0,0.0011
1541.0,0.0011
1540.0,0.0012
1539.0,0.0011
1538.0,0.001
1537.0,0.0011
1536.0,0.0011
1535.0,0.001
1534.0,0.0009
1533.0,0.0009
1532.0,0.0009
1531.0,0.0009
1530.0,0.0009
1529.0,0.0009
1528.0,0.001
1527.0,0.0009
1526.0,0.0009
1525.0,0.0008
1524.0,0.0008
1523.0,0.0007
1522.0,0.0007
1521.0,0.0006
1520.0,0.0005
1519.0,0.0006
1518.0,0.0006
1517.0,0.0006
1516.0,0.0006
1515.0,0.0006
1514.0,0.0005
1513.0,0.0005
1512.0,0.0005
1511.0,0.0004
1510.0,0.0004
1509.0,0.0004
1508.0,0.0005
1507.0,0.0003
1506.0,-0.0
1505.0,-0.0
1504.0,0.0
1503.0,0.0
1502.0,-0.0
1501.0,-0.0
1500.0,0.0
1499.0,-0.0
1498.0,-0.0001
1497.0,-0.0003
1496.0,-0.0003
1495.0,-0.0003
1494.0,-0.0003
1493.0,-0.0002
1492.0,-0.0001
1491.0,-0.0002
1490.0,-0.0002
1489.0,-0.0002
1488.0,-0.0001
1487.0,-0.0
1486.0,0.0
1485.0,0.0002
1484.0,0.0005
1483.0,0.0006
1482.0,0.0008
1481.0,0.0011
1480.0,0.0014
1479.0,0.0017
1478.0,0.0022
1477.0,0.0029
1476.0,0.0038
1475.0,0.0048
1474.0,0.0062
1473.0,0.0086
1472.0,0.0116
1471.0,0.0144
1470.0,0.0172
1469.0,0.0203
1468.0,0.0239
1467.0,0.0283
1466.0,0.0344
1465.0,0.0426
1464.0,0.051
1463.0,0.0581
1462.0,0.064
1461.0,0.0697
1460.0,0.0755
1459.0,0.0818
1458.0,0.0902
1457.0,0.099
1456.0,0.104
1455.0,0.1055
1454.0,0.106
1453.0,0.106
1452.0,0.1055
1451.0,0.1044
1450.0,0.1028
1449.0,0.1005
1448.0,0.0971
1447.0,0.0928
1446.0,0.088
1445.0,0.0827
1444.0,0.0765
1443.0,0.0696
1442.0,0.0624
1441.0,0.0557
1440.0,0.0496
1439.0,0.0441
1438.0,0.0386
1437.0,0.0326
1436.0,0.0275
1435.0,0.0241
1434.0,0.0218
1433.0,0.0198
1432.0,0.0179
1431.0,0.0161
1430.0,0.0146
1429.0,0.0132
1428.0,0.012
1427.0,0.0111
1426.0,0.0104
1425.0,0.0096
1424.0,0.0088
1423.0,0.0083
1422.0,0.0079
1421.0,0.0074
1420.0,0.0069
1419.0,0.0064
1418.0,0.0061
1417.0,0.0059
1416.0,0.0057
1415.0,0.0056
1414.0,0.0055
1413.0,0.0054
1412.0,0.0052
1411.0,0.0052
1410.0,0.0052
1409.0,0.0053
1408.0,0.0053
1407.0,0.0056
1406.0,0.0059
1405.0,0.0063
1404.0,0.0069
1403.0,0.0076
1402.0,0.0085
1401.0,0.0095
1400.0,0.011
1399.0,0.0131
1398.0,0.0156
1397.0,0.0184
1396.0,0.0222
1395.0,0.0273
1394.0,0.0328
1393.0,0.0381
1392.0,0.0433
1391.0,0.0487
1390.0,0.0546
1389.0,0.0613
1388.0,0.0689
1387.0,0.0763
1386.0,0.0819
1385.0,0.0854
1384.0,0.0874
1383.0,0.0882
1382.0,0.0874
1381.0,0.0849
1380.0,0.0808
1379.0,0.0758
1378.0,0.0706
1377.0,0.0661
1376.0,0.063
1375.0,0.062
1374.0,0.0634
1373.0,0.0665
1372.0,0.0703
1371.0,0.074
1370.0,0.0773
1369.0,0.0802
1368.0,0.0824
1367.0,0.084
1366.0,0.0854
1365.0,0.087
1364.0,0.0891
1363.0,0.0919
1362.0,0.0948
1361.0,0.0972
1360.0,0.0987
1359.0,0.0993
1358.0,0.0991
1357.0,0.0979
1356.0,0.0957
1355.0,0.0926
1354.0,0.0888
1353.0,0.0847
1352.0,0.0805
1351.0,0.0762
1350.0,0.072
1349.0,0.0681
1348.0,0.0643
1347.0,0.0609
1346.0,0.0577
1345.0,0.0547
1344.0,0.0521
1343.0,0.0497
1342.0,0.0475
1341.0,0.0454
1340.0,0.0433
1339.0,0.0415
1338.0,0.0401
1337.0,0.0388
1336.0,0.0377
1335.0,0.0366
1334.0,0.0355
1333.0,0.0346
1332.0,0.0337
1331.0,0.033
1330.0,0.0324
1329.0,0.0319
1328.0,0.0316
1327.0,0.0313
1326.0,0.0312
1325.0,0.0311
1324.0,0.031
1323.0,0.0308
1322.0,0.0307
1321.0,0.0306
1320.0,0.0306
1319.0,0.0306
1318.0,0.0306
1317.0,0.0307
1316.0,0.0308
1315.0,0.0309
1314.0,0.0311
1313.0,0.0314
1312.0,0.0318
1311.0,0.0322
1310.0,0.0328
1309.0,0.0334
1308.0,0.034
1307.0,0.0345
1306.0,0.0348
1305.0,0.035
1304.0,0.035
1303.0,0.0349
1302.0,0.0346
1301.0,0.0343
1300.0,0.0339
1299.0,0.0335
1298.0,0.0331
1297.0,0.0326
1296.0,0.0321
1295.0,0.0314
1294.0,0.0306
1293.0,0.0296
1292.0,0.0286
1291.0,0.0275
1290.0,0.0268
1289.0,0.0265
1288.0,0.0267
1287.0,0.0275
1286.0,0.0288
1285.0,0.0307
1284.0,0.0329
1283.0,0.0354
1282.0,0.0381
1281.0,0.041
1280.0,0.0439
1279.0,0.0468
1278.0,0.0497
1277.0,0.0524
1276.0,0.055
1275.0,0.0572
1274.0,0.0592
1273.0,0.061
1272.0,0.0625
1271.0,0.0637
1270.0,0.0646
1269.0,0.0652
1268.0,0.0655
1267.0,0.0655
1266.0,0.0653
1265.0,0.0649
1264.0,0.0643
1263.0,0.0634
1262.0,0.0624
1261.0,0.0613
1260.0,0.0602
1259.0,0.059
1258.0,0.0578
1257.0,0.0567
1256.0,0.0557
1255.0,0.0547
1254.0,0.0538
1253.0,0.053
1252.0,0.0523
1251.0,0.0517
1250.0,0.0513
1249.0,0.051
1248.0,0.0509
1247.0,0.0508
1246.0,0.0509
1245.0,0.0511
1244.0,0.0514
1243.0,0.0518
1242.0,0.0524
1241.0,0.053
1240.0,0.0538
1239.0,0.0546
1238.0,0.0556
1237.0,0.0568
1236.0,0.0582
1235.0,0.0598
1234.0,0.0616
1233.0,0.0638
1232.0,0.0663
1231.0,0.0692
1230.0,0.0725
1229.0,0.0764
1228.0,0.0807
1227.0,0.0856
1226.0,0.091
1225.0,0.0969
1224.0,0.1034
1223.0,0.1102
1222.0,0.1174
1221.0,0.125
1220.0,0.1329
1219.0,0.141
1218.0,0.1494
1217.0,0.1579
1216.0,0.1664
1215.0,0.1744
1214.0,0.1817
1213.0,0.1882
1212.0,0.1933
1211.0,0.197
1210.0,0.199
1209.0,0.1999
1208.0,0.2
1207.0,0.1996
1206.0,0.199
1205.0,0.1989
1204.0,0.1993
1203.0,0.2004
1202.0,0.2021
1201.0,0.2047
1200.0,0.208
1199.0,0.212
1198.0,0.2167
1197.0,0.2224
1196.0,0.2291
1195.0,0.2367
1194.0,0.2453
1193.0,0.2553
1192.0,0.2667
1191.0,0.2795
1190.0,0.2938
1189.0,0.3098
1188.0,0.3278
1187.0,0.3474
1186.0,0.368
1185.0,0.3894
1184.0,0.4101
1183.0,0.4279
1182.0,0.44
1181.0,0.4445
1180.0,0.4393
1179.0,0.4236
1178.0,0.3988
1177.0,0.3681
1176.0,0.3344
1175.0,0.3001
1174.0,0.2675
1173.0,0.2379
1172.0,0.2118
1171.0,0.1889
1170.0,0.1692
1169.0,0.1524
1168.0,0.1381
1167.0,0.126
1166.0,0.1157
1165.0,0.107
1164.0,0.0996
1163.0,0.0932
1162.0,0.0877
1161.0,0.083
1160.0,0.0789
1159.0,0.0753
1158.0,0.0722
1157.0,0.0696
1156.0,0.0676
1155.0,0.066
1154.0,0.065
1153.0,0.0648
1152.0,0.0652
1151.0,0.0665
1150.0,0.0688
1149.0,0.0722
1148.0,0.0769
1147.0,0.0829
1146.0,0.0905
1145.0,0.0995
1144.0,0.11
1143.0,0.1219
1142.0,0.1349
1141.0,0.149
1140.0,0.1641
1139.0,0.1799
1138.0,0.1961
1137.0,0.2125
1136.0,0.2284
1135.0,0.2433
1134.0,0.2566
1133.0,0.2681
1132.0,0.2777
1131.0,0.2849
1130.0,0.2896
1129.0,0.2917
1128.0,0.2909
1127.0,0.2868
1126.0,0.2797
1125.0,0.2704
1124.0,0.2598
1123.0,0.2487
1122.0,0.238
1121.0,0.2283
1120.0,0.2199
1119.0,0.2128
1118.0,0.2072
1117.0,0.2032
1116.0,0.201
1115.0,0.2004
1114.0,0.2017
1113.0,0.2048
1112.0,0.2098
1111.0,0.2163
1110.0,0.2243
1109.0,0.2336
1108.0,0.2439
1107.0,0.255
1106.0,0.2666
1105.0,0.2788
1104.0,0.2915
1103.0,0.3045
1102.0,0.3178
1101.0,0.3315
1100.0,0.3458
1099.0,0.3603
1098.0,0.3749
1097.0,0.3901
1096.0,0.4057
1095.0,0.4215
1094.0,0.4374
1093.0,0.4539
1092.0,0.4708
1091.0,0.4875
1090.0,0.5039
1089.0,0.5199
1088.0,0.5354
1087.0,0.549
1086.0,0.56
1085.0,0.5682
1084.0,0.5733
1083.0,0.574
1082.0,0.5702
1081.0,0.5629
1080.0,0.5525
1079.0,0.5388
1078.0,0.5222
1077.0,0.5038
1076.0,0.4841
1075.0,0.4628
1074.0,0.4404
1073.0,0.4179
1072.0,0.3957
1071.0,0.3736
1070.0,0.3521
1069.0,0.3319
1068.0,0.3131
1067.0,0.2956
1066.0,0.2799
1065.0,0.2662
1064.0,0.2549
1063.0,0.2457
1062.0,0.2386
1061.0,0.2339
1060.0,0.2312
1059.0,0.2303
1058.0,0.2307
1057.0,0.2325
1056.0,0.2354
1055.0,0.2389
1054.0,0.2429
1053.0,0.2474
1052.0,0.2525
1051.0,0.258
1050.0,0.264
1049.0,0.2704
1048.0,0.2771
1047.0,0.2833
1046.0,0.2885
1045.0,0.2922
1044.0,0.2941
1043.0,0.2938
1042.0,0.2912
1041.0,0.2868
1040.0,0.2805
1039.0,0.2725
1038.0,0.2631
1037.0,0.2529
1036.0,0.2425
1035.0,0.232
1034.0,0.2221
1033.0,0.213
1032.0,0.2049
1031.0,0.1976
1030.0,0.1913
1029.0,0.1858
1028.0,0.1809
1027.0,0.1763
1026.0,0.1719
1025.0,0.1675
1024.0,0.163
1023.0,0.1583
1022.0,0.1534
1021.0,0.1485
1020.0,0.1434
1019.0,0.1383
1018.0,0.1333
1017.0,0.1285
1016.0,0.124
1015.0,0.1197
1014.0,0.1155
1013.0,0.1117
1012.0,0.1081
1011.0,0.1047
1010.0,0.1017
1009.0,0.0989
1008.0,0.0965
1007.0,0.0942
1006.0,0.0922
1005.0,0.0903
1004.0,0.0885
1003.0,0.0868
1002.0,0.0851
1001.0,0.0835
1000.0,0.0821
999.0,0.0807
998.0,0.0794
997.0,0.0782
996.0,0.0771
995.0,0.076
994.0,0.075
993.0,0.0741
992.0,0.0732
991.0,0.0723
990.0,0.0714
989.0,0.0706
988.0,0.0698
987.0,0.0691
986.0,0.0683
985.0,0.0674
984.0,0.0666
983.0,0.0657
982.0,0.0649
981.0,0.0642
980.0,0.0636
979.0,0.063
978.0,0.0624
977.0,0.0617
976.0,0.0611
975.0,0.0604
974.0,0.0597
973.0,0.059
972.0,0.0585
971.0,0.0579
970.0,0.0575
969.0,0.0571
968.0,0.0567
967.0,0.0564
966.0,0.0563
965.0,0.0564
964.0,0.0569
963.0,0.0577
962.0,0.0588
961.0,0.0603
960.0,0.0618
959.0,0.0632
958.0,0.0642
957.0,0.0647
956.0,0.0647
955.0,0.0644
954.0,0.0638
953.0,0.0631
952.0,0.0623
951.0,0.0614
950.0,0.0604
949.0,0.0595
948.0,0.0585
947.0,0.0576
946.0,0.0569
945.0,0.0562
944.0,0.0557
943.0,0.0552
942.0,0.0548
941.0,0.0544
940.0,0.054
939.0,0.0536
938.0,0.0532
937.0,0.053
936.0,0.0528
935.0,0.0528
934.0,0.0528
933.0,0.053
932.0,0.0532
931.0,0.0534
930.0,0.0538
929.0,0.0543
928.0,0.0548
927.0,0.0553
926.0,0.0558
925.0,0.0562
924.0,0.0567
923.0,0.057
922.0,0.0573
921.0,0.0575
920.0,0.0576
919.0,0.0574
918.0,0.0571
917.0,0.0567
916.0,0.0562
915.0,0.0558
914.0,0.0553
913.0,0.0548
912.0,0.0544
911.0,0.0538
910.0,0.0533
909.0,0.0529
908.0,0.0526
907.0,0.0522
906.0,0.052
905.0,0.0517
904.0,0.0515
903.0,0.0512
902.0,0.051
901.0,0.0509
900.0,0.0509
899.0,0.0508
898.0,0.0507
897.0,0.0505
896.0,0.0503
895.0,0.0501
894.0,0.0499
893.0,0.0496
892.0,0.0492
891.0,0.0488
890.0,0.0482
889.0,0.0477
888.0,0.0471
887.0,0.0467
886.0,0.0465
885.0,0.0468
884.0,0.0476
883.0,0.049
882.0,0.0509
881.0,0.0536
880.0,0.0569
879.0,0.061
878.0,0.0658
877.0,0.0712
876.0,0.077
875.0,0.0828
874.0,0.0882
873.0,0.0929
872.0,0.0963
871.0,0.0983
870.0,0.0989
869.0,0.0985
868.0,0.0972
867.0,0.0953
866.0,0.0931
865.0,0.0908
864.0,0.0884
863.0,0.0859
862.0,0.0832
861.0,0.0801
860.0,0.0767
859.0,0.073
858.0,0.0691
857.0,0.0654
856.0,0.0619
855.0,0.0588
854.0,0.0562
853.0,0.0542
852.0,0.0528
851.0,0.0519
850.0,0.0512
849.0,0.0507
848.0,0.0501
847.0,0.0495
846.0,0.0486
845.0,0.0476
844.0,0.0463
843.0,0.0449
842.0,0.0435
841.0,0.0423
840.0,0.0412
839.0,0.0403
838.0,0.0396
837.0,0.039
836.0,0.0384
835.0,0.0378
834.0,0.0372
833.0,0.0365
832.0,0.036
831.0,0.0356
830.0,0.0353
829.0,0.0351
828.0,0.0348
827.0,0.0344
826.0,0.0342
825.0,0.0341
824.0,0.0339
823.0,0.0337
822.0,0.0335
821.0,0.0333
820.0,0.0331
819.0,0.0329
818.0,0.0325
817.0,0.0322
816.0,0.0319
815.0,0.0317
814.0,0.0316
813.0,0.0315
812.0,0.0314
811.0,0.0311
810.0,0.0309
809.0,0.0308
808.0,0.0307
807.0,0.0306
806.0,0.0304
805.0,0.0302
804.0,0.0301
803.0,0.0299
802.0,0.0298
801.0,0.0298
800.0,0.0297
799.0,0.0296
798.0,0.0296
797.0,0.0297
796.0,0.0297
795.0,0.0296
794.0,0.0296
793.0,0.0296
792.0,0.0298
791.0,0.03
790.0,0.0304
789.0,0.031
788.0,0.0316
787.0,0.0323
786.0,0.033
785.0,0.0338
784.0,0.0346
783.0,0.0354
782.0,0.0363
781.0,0.0371
780.0,0.038
779.0,0.0388
778.0,0.0397
777.0,0.0405
776.0,0.0415
775.0,0.0426
774.0,0.0438
773.0,0.0453
772.0,0.0469
771.0,0.0485
770.0,0.0503
769.0,0.0524
768.0,0.0547
767.0,0.0572
766.0,0.0601
765.0,0.0633
764.0,0.0671
763.0,0.0713
762.0,0.0762
761.0,0.0816
760.0,0.0872
759.0,0.0926
758.0,0.0974
757.0,0.1012
756.0,0.1034
755.0,0.1038
754.0,0.1024
753.0,0.0998
752.0,0.0967
751.0,0.0932
750.0,0.0897
749.0,0.0868
748.0,0.0843
747.0,0.0823
746.0,0.0805
745.0,0.0792
744.0,0.0781
743.0,0.0771
742.0,0.0762
741.0,0.0753
740.0,0.0744
739.0,0.0733
738.0,0.0719
737.0,0.0702
736.0,0.0681
735.0,0.0655
734.0,0.0623
733.0,0.0589
732.0,0.0556
731.0,0.0527
730.0,0.0505
729.0,0.0489
728.0,0.0477
727.0,0.0471
726.0,0.047
725.0,0.0474
724.0,0.0483
723.0,0.0495
722.0,0.0511
721.0,0.0534
720.0,0.0561
719.0,0.0589
718.0,0.0613
717.0,0.0634
716.0,0.0654
715.0,0.0672
714.0,0.0689
713.0,0.0705
712.0,0.0719
711.0,0.0729
710.0,0.0737
709.0,0.0741
708.0,0.0742
707.0,0.0742
706.0,0.0742
705.0,0.0746
704.0,0.0754
703.0,0.0762
702.0,0.0766
701.0,0.0769
700.0,0.077
699.0,0.077
698.0,0.0769
697.0,0.0769
696.0,0.0772
695.0,0.0775
694.0,0.0776
693.0,0.0775
692.0,0.077
691.0,0.0764
690.0,0.076
689.0,0.0759
688.0,0.0759
687.0,0.0756
686.0,0.0749
685.0,0.0742
684.0,0.0734
683.0,0.0728
682.0,0.0725
681.0,0.073
680.0,0.0737
679.0,0.074
678.0,0.0736
677.0,0.0726
676.0,0.0711
675.0,0.0692
674.0,0.0671
673.0,0.0652
672.0,0.0638
671.0,0.063
670.0,0.0628
669.0,0.0629
668.0,0.063
667.0,0.0637
666.0,0.0639
665.0,0.063
664.0,0.0615
663.0,0.0599
662.0,0.0588
661.0,0.0586
660.0,0.059
659.0,0.0592
658.0,0.059
657.0,0.0587
656.0,0.0582
655.0,0.0573
654.0,0.0559
653.0,0.0546
652.0,0.054
651.0,0.054
650.0,0.0541
649.0,0.0538
648.0,0.0532
647.0,0.0525
646.0,0.0521
645.0,0.052
644.0,0.0521
643.0,0.0526
642.0,0.0534
641.0,0.0544
640.0,0.0554
639.0,0.0561
638.0,0.0565
637.0,0.0566
636.0,0.0562
635.0,0.0555
634.0,0.0548
633.0,0.0538
632.0,0.0524
631.0,0.0505
630.0,0.0489
629.0,0.0481
628.0,0.0482
627.0,0.0488
626.0,0.0494
625.0,0.0493
624.0,0.0486
623.0,0.0476
622.0,0.0468
621.0,0.0461
620.0,0.0452
619.0,0.044
618.0,0.0431
617.0,0.0427
616.0,0.0427
615.0,0.0429
614.0,0.0433
613.0,0.0439
612.0,0.0441
611.0,0.0436
610.0,0.0428
609.0,0.0421
608.0,0.0414
607.0,0.0406
606.0,0.04
605.0,0.0399
604.0,0.0401
603.0,0.0406
602.0,0.0415
601.0,0.0424
600.0,0.0426
