cm-1,A
4000.0,-0.0014
3999.0,-0.0013
3998.0,-0.0012
3997.0,-0.0012
3996.0,-0.0013
3995.0,-0.0013
3994.0,-0.0014
3993.0,-0.0014
3992.0,-0.0014
3991.0,-0.0014
3990.0,-0.0014
3989.0,-0.0013
3988.0,-0.0013
3987.0,-0.0013
3986.0,-0.0013
3985.0,-0.0014
3984.0,-0.0015
3983.0,-0.0015
3982.0,-0.0015
3981.0,-0.0015
3980.0,-0.0014
3979.0,-0.0013
3978.0,-0.0012
3977.0,-0.0012
3976.0,-0.0012
3975.0,-0.0013
3974.0,-0.0013
3973.0,-0.0014
3972.0,-0.0015
3971.0,-0.0015
3970.0,-0.0015
3969.0,-0.0015
3968.0,-0.0015
3967.0,-0.0015
3966.0,-0.0015
3965.0,-0.0015
3964.0,-0.0014
3963.0,-0.0014
3962.0,-0.0013
3961.0,-0.0012
3960.0,-0.0012
3959.0,-0.0013
3958.0,-0.0014
3957.0,-0.0015
3956.0,-0.0015
3955.0,-0.0016
3954.0,-0.0016
3953.0,-0.0016
3952.0,-0.0015
3951.0,-0.0015
3950.0,-0.0015
3949.0,-0.0014
3948.0,-0.0014
3947.0,-0.0014
3946.0,-0.0013
3945.0,-0.0012
3944.0,-0.0012
3943.0,-0.0011
3942.0,-0.0012
3941.0,-0.0012
3940.0,-0.0012
3939.0,-0.0012
3938.0,-0.0011
3937.0,-0.0011
3936.0,-0.001
3935.0,-0.0011
3934.0,-0.0012
3933.0,-0.0013
3932.0,-0.0014
3931.0,-0.0014
3930.0,-0.0013
3929.0,-0.0013
3928.0,-0.0013
3927.0,-0.0014
3926.0,-0.0014
3925.0,-0.0014
3924.0,-0.0013
3923.0,-0.0013
3922.0,-0.0013
3921.0,-0.0013
3920.0,-0.0014
3919.0,-0.0014
3918.0,-0.0014
3917.0,-0.0013
3916.0,-0.0013
3915.0,-0.0013
3914.0,-0.0012
3913.0,-0.0012
3912.0,-0.0011
3911.0,-0.0011
3910.0,-0.0011
3909.0,-0.0011
3908.0,-0.0012
3907.0,-0.0013
3906.0,-0.0013
3905.0,-0.0013
3904.0,-0.0013
3903.0,-0.0013
3902.0,-0.0013
3901.0,-0.0012
3900.0,-0.0012
3899.0,-0.0012
3898.0,-0.0011
3897.0,-0.0011
3896.0,-0.0011
3895.0,-0.0011
3894.0,-0.0012
3893.0,-0.0013
3892.0,-0.0014
3891.0,-0.0014
3890.0,-0.0014
3889.0,-0.0013
3888.0,-0.0013
3887.0,-0.0012
3886.0,-0.0013
3885.0,-0.0013
3884.0,-0.0013
3883.0,-0.0013
3882.0,-0.0013
3881.0,-0.0013
3880.0,-0.0013
3879.0,-0.0012
3878.0,-0.0011
3877.0,-0.0011
3876.0,-0.0011
3875.0,-0.0011
3874.0,-0.0011
3873.0,-0.001
3872.0,-0.0009
3871.0,-0.0009
3870.0,-0.0009
3869.0,-0.001
3868.0,-0.0011
3867.0,-0.0012
3866.0,-0.0013
3865.0,-0.0012
3864.0,-0.0011
3863.0,-0.001
3862.0,-0.001
3861.0,-0.001
3860.0,-0.001
3859.0,-0.0011
3858.0,-0.0011
3857.0,-0.0012
3856.0,-0.0011
3855.0,-0.001
3854.0,-0.0009
3853.0,-0.001
3852.0,-0.0011
3851.0,-0.0011
3850.0,-0.001
3849.0,-0.001
3848.0,-0.0011
3847.0,-0.0011
3846.0,-0.0012
3845.0,-0.0013
3844.0,-0.0013
3843.0,-0.0013
3842.0,-0.0012
3841.0,-0.0011
3840.0,-0.001
3839.0,-0.0009
3838.0,-0.0008
3837.0,-0.0008
3836.0,-0.0008
3835.0,-0.0008
3834.0,-0.0009
3833.0,-0.0009
3832.0,-0.001
3831.0,-0.001
3830.0,-0.001
3829.0,-0.001
3828.0,-0.001
3827.0,-0.001
3826.0,-0.001
3825.0,-0.001
3824.0,-0.001
3823.0,-0.001
3822.0,-0.001
3821.0,-0.001
3820.0,-0.001
3819.0,-0.001
3818.0,-0.001
3817.0,-0.001
3816.0,-0.001
3815.0,-0.0009
3814.0,-0.0009
3813.0,-0.0009
3812.0,-0.0009
3811.0,-0.0008
3810.0,-0.0008
3809.0,-0.0008
3808.0,-0.0008
3807.0,-0.0009
3806.0,-0.0009
3805.0,-0.0008
3804.0,-0.0008
3803.0,-0.0007
3802.0,-0.0008
3801.0,-0.0009
3800.0,-0.0009
3799.0,-0.0009
3798.0,-0.0008
3797.0,-0.0007
3796.0,-0.0007
3795.0,-0.0007
3794.0,-0.0007
3793.0,-0.0007
3792.0,-0.0007
3791.0,-0.0007
3790.0,-0.0008
3789.0,-0.0008
3788.0,-0.0008
3787.0,-0.0008
3786.0,-0.0008
3785.0,-0.0008
3784.0,-0.0009
3783.0,-0.0009
3782.0,-0.0009
3781.0,-0.0008
3780.0,-0.0007
3779.0,-0.0007
3778.0,-0.0007
3777.0,-0.0007
3776.0,-0.0006
3775.0,-0.0006
3774.0,-0.0005
3773.0,-0.0005
3772.0,-0.0005
3771.0,-0.0006
3770.0,-0.0007
3769.0,-0.0007
3768.0,-0.0008
3767.0,-0.0007
3766.0,-0.0007
3765.0,-0.0006
3764.0,-0.0005
3763.0,-0.0005
3762.0,-0.0005
3761.0,-0.0006
3760.0,-0.0006
3759.0,-0.0006
3758.0,-0.0006
3757.0,-0.0006
3756.0,-0.0006
3755.0,-0.0006
3754.0,-0.0006
3753.0,-0.0007
3752.0,-0.0007
3751.0,-0.0008
3750.0,-0.0009
3749.0,-0.0009
3748.0,-0.0009
3747.0,-0.0008
3746.0,-0.0007
3745.0,-0.0006
3744.0,-0.0005
3743.0,-0.0005
3742.0,-0.0005
3741.0,-0.0005
3740.0,-0.0005
3739.0,-0.0006
3738.0,-0.0006
3737.0,-0.0007
3736.0,-0.0008
3735.0,-0.0008
3734.0,-0.0008
3733.0,-0.0007
3732.0,-0.0007
3731.0,-0.0008
3730.0,-0.0009
3729.0,-0.001
3728.0,-0.001
3727.0,-0.001
3726.0,-0.0009
3725.0,-0.0008
3724.0,-0.0007
3723.0,-0.0007
3722.0,-0.0007
3721.0,-0.0008
3720.0,-0.0007
3719.0,-0.0007
3718.0,-0.0007
3717.0,-0.0006
3716.0,-0.0006
3715.0,-0.0007
3714.0,-0.0006
3713.0,-0.0005
3712.0,-0.0004
3711.0,-0.0004
3710.0,-0.0006
3709.0,-0.0006
3708.0,-0.0007
3707.0,-0.0006
3706.0,-0.0006
3705.0,-0.0006
3704.0,-0.0006
3703.0,-0.0007
3702.0,-0.0006
3701.0,-0.0005
3700.0,-0.0004
3699.0,-0.0003
3698.0,-0.0002
3697.0,-0.0002
3696.0,-0.0003
3695.0,-0.0004
3694.0,-0.0005
3693.0,-0.0005
3692.0,-0.0005
3691.0,-0.0003
3690.0,-0.0002
3689.0,-0.0003
3688.0,-0.0003
3687.0,-0.0003
3686.0,-0.0001
3685.0,-0.0
3684.0,0.0
3683.0,-0.0
3682.0,-0.0001
3681.0,-0.0001
3680.0,-0.0001
3679.0,-0.0001
3678.0,0.0
3677.0,0.0001
3676.0,0.0001
3675.0,-0.0
3674.0,-0.0001
3673.0,-0.0002
3672.0,-0.0001
3671.0,0.0
3670.0,0.0002
3669.0,0.0002
3668.0,0.0003
3667.0,0.0002
3666.0,0.0002
3665.0,0.0002
3664.0,0.0001
3663.0,0.0001
3662.0,0.0
3661.0,-0.0
3660.0,-0.0001
3659.0,-0.0001
3658.0,-0.0002
3657.0,-0.0003
3656.0,-0.0003
3655.0,-0.0004
3654.0,-0.0005
3653.0,-0.0006
3652.0,-0.0007
3651.0,-0.0007
3650.0,-0.0006
3649.0,-0.0006
3648.0,-0.0006
3647.0,-0.0006
3646.0,-0.0006
3645.0,-0.0007
3644.0,-0.0008
3643.0,-0.0009
3642.0,-0.001
3641.0,-0.0011
3640.0,-0.0011
3639.0,-0.0011
3638.0,-0.0011
3637.0,-0.0012
3636.0,-0.0013
3635.0,-0.0014
3634.0,-0.0015
3633.0,-0.0017
3632.0,-0.0018
3631.0,-0.002
3630.0,-0.0023
3629.0,-0.0026
3628.0,-0.0027
3627.0,-0.0027
3626.0,-0.0026
3625.0,-0.0026
3624.0,-0.0026
3623.0,-0.0026
3622.0,-0.0026
3621.0,-0.0025
3620.0,-0.0025
3619.0,-0.0026
3618.0,-0.0027
3617.0,-0.0027
3616.0,-0.0027
3615.0,-0.0026
3614.0,-0.0026
3613.0,-0.0027
3612.0,-0.0028
3611.0,-0.0029
3610.0,-0.003
3609.0,-0.0031
3608.0,-0.0033
3607.0,-0.0034
3606.0,-0.0035
3605.0,-0.0036
3604.0,-0.0036
3603.0,-0.0037
3602.0,-0.0038
3601.0,-0.0038
3600.0,-0.0039
3599.0,-0.004
3598.0,-0.004
3597.0,-0.0041
3596.0,-0.004
3595.0,-0.004
3594.0,-0.004
3593.0,-0.004
3592.0,-0.004
3591.0,-0.004
3590.0,-0.004
3589.0,-0.0038
3588.0,-0.0037
3587.0,-0.0038
3586.0,-0.0041
3585.0,-0.0044
3584.0,-0.0045
3583.0,-0.0046
3582.0,-0.0045
3581.0,-0.0044
3580.0,-0.0044
3579.0,-0.0044
3578.0,-0.0045
3577.0,-0.0046
3576.0,-0.0046
3575.0,-0.0046
3574.0,-0.0046
3573.0,-0.0046
3572.0,-0.0047
3571.0,-0.0047
3570.0,-0.0047
3569.0,-0.0048
3568.0,-0.0048
3567.0,-0.0049
3566.0,-0.005
3565.0,-0.0051
3564.0,-0.0052
3563.0,-0.0053
3562.0,-0.0054
3561.0,-0.0055
3560.0,-0.0056
3559.0,-0.0056
3558.0,-0.0057
3557.0,-0.0057
3556.0,-0.0058
3555.0,-0.0059
3554.0,-0.006
3553.0,-0.006
3552.0,-0.006
3551.0,-0.0059
3550.0,-0.0059
3549.0,-0.0059
3548.0,-0.0059
3547.0,-0.006
3546.0,-0.0061
3545.0,-0.0062
3544.0,-0.0063
3543.0,-0.0064
3542.0,-0.0065
3541.0,-0.0065
3540.0,-0.0065
3539.0,-0.0066
3538.0,-0.0067
3537.0,-0.0067
3536.0,-0.0068
3535.0,-0.007
3534.0,-0.0071
3533.0,-0.0072
3532.0,-0.0073
3531.0,-0.0073
3530.0,-0.0073
3529.0,-0.0073
3528.0,-0.0073
3527.0,-0.0074
3526.0,-0.0075
3525.0,-0.0076
3524.0,-0.0077
3523.0,-0.0078
3522.0,-0.0079
3521.0,-0.0079
3520.0,-0.0079
3519.0,-0.0079
3518.0,-0.0079
3517.0,-0.008
3516.0,-0.008
3515.0,-0.0081
3514.0,-0.0081
3513.0,-0.0081
3512.0,-0.008
3511.0,-0.008
3510.0,-0.0082
3509.0,-0.0083
3508.0,-0.0085
3507.0,-0.0085
3506.0,-0.0085
3505.0,-0.0085
3504.0,-0.0087
3503.0,-0.0088
3502.0,-0.0089
3501.0,-0.009
3500.0,-0.0091
3499.0,-0.0092
3498.0,-0.0094
3497.0,-0.0095
3496.0,-0.0097
3495.0,-0.0097
3494.0,-0.0097
3493.0,-0.0097
3492.0,-0.0098
3491.0,-0.0098
3490.0,-0.01
3489.0,-0.0102
3488.0,-0.0105
3487.0,-0.0107
3486.0,-0.0108
3485.0,-0.0108
3484.0,-0.0108
3483.0,-0.0109
3482.0,-0.0111
3481.0,-0.0113
3480.0,-0.0115
3479.0,-0.0116
3478.0,-0.0117
3477.0,-0.0118
3476.0,-0.0119
3475.0,-0.012
3474.0,-0.0122
3473.0,-0.0124
3472.0,-0.0126
3471.0,-0.0129
3470.0,-0.0131
3469.0,-0.0133
3468.0,-0.0134
3467.0,-0.0135
3466.0,-0.0135
3465.0,-0.0136
3464.0,-0.0138
3463.0,-0.014
3462.0,-0.0141
3461.0,-0.0141
3460.0,-0.0141
3459.0,-0.0142
3458.0,-0.0144
3457.0,-0.0146
3456.0,-0.0148
3455.0,-0.0149
3454.0,-0.0149
3453.0,-0.015
3452.0,-0.0152
3451.0,-0.0153
3450.0,-0.0154
3449.0,-0.0154
3448.0,-0.0155
3447.0,-0.0156
3446.0,-0.0157
3445.0,-0.016
3444.0,-0.0162
3443.0,-0.0164
3442.0,-0.0165
3441.0,-0.0166
3440.0,-0.0167
3439.0,-0.0169
3438.0,-0.0171
3437.0,-0.0173
3436.0,-0.0174
3435.0,-0.0176
3434.0,-0.0177
3433.0,-0.0179
3432.0,-0.018
3431.0,-0.018
3430.0,-0.0179
3429.0,-0.0178
3428.0,-0.0178
3427.0,-0.018
3426.0,-0.0181
3425.0,-0.0184
3424.0,-0.0186
3423.0,-0.0187
3422.0,-0.0189
3421.0,-0.0189
3420.0,-0.0191
3419.0,-0.0192
3418.0,-0.0195
3417.0,-0.0197
3416.0,-0.02
3415.0,-0.0203
3414.0,-0.0206
3413.0,-0.0208
3412.0,-0.021
3411.0,-0.0212
3410.0,-0.0214
3409.0,-0.0216
3408.0,-0.0218
3407.0,-0.0221
3406.0,-0.0224
3405.0,-0.0228
3404.0,-0.0231
3403.0,-0.0234
3402.0,-0.0237
3401.0,-0.0239
3400.0,-0.0241
3399.0,-0.0244
3398.0,-0.0246
3397.0,-0.0249
3396.0,-0.0253
3395.0,-0.0256
3394.0,-0.0258
3393.0,-0.0261
3392.0,-0.0265
3391.0,-0.0268
3390.0,-0.0271
3389.0,-0.0274
3388.0,-0.0278
3387.0,-0.0281
3386.0,-0.0285
3385.0,-0.0289
3384.0,-0.0293
3383.0,-0.0297
3382.0,-0.0302
3381.0,-0.0306
3380.0,-0.0311
3379.0,-0.0316
3378.0,-0.0321
3377.0,-0.0325
3376.0,-0.0329
3375.0,-0.0332
3374.0,-0.0336
3373.0,-0.0339
3372.0,-0.0343
3371.0,-0.0347
3370.0,-0.0351
3369.0,-0.0354
3368.0,-0.0359
3367.0,-0.0363
3366.0,-0.0368
3365.0,-0.0372
3364.0,-0.0375
3363.0,-0.0377
3362.0,-0.0379
3361.0,-0.0382
3360.0,-0.0385
3359.0,-0.0389
3358.0,-0.0392
3357.0,-0.0394
3356.0,-0.0395
3355.0,-0.0396
3354.0,-0.0397
3353.0,-0.04
3352.0,-0.0403
3351.0,-0.0406
3350.0,-0.0409
3349.0,-0.0411
3348.0,-0.0413
3347.0,-0.0415
3346.0,-0.0416
3345.0,-0.0417
3344.0,-0.0418
3343.0,-0.0419
3342.0,-0.0421
3341.0,-0.0423
3340.0,-0.0425
3339.0,-0.0427
3338.0,-0.0428
3337.0,-0.0429
3336.0,-0.0429
3335.0,-0.043
3334.0,-0.043
3333.0,-0.0432
3332.0,-0.0433
3331.0,-0.0434
3330.0,-0.0436
3329.0,-0.0437
3328.0,-0.0439
3327.0,-0.044
3326.0,-0.0441
3325.0,-0.0442
3324.0,-0.0442
3323.0,-0.0442
3322.0,-0.0441
3321.0,-0.0441
3320.0,-0.0441
3319.0,-0.0441
3318.0,-0.0441
3317.0,-0.044
3316.0,-0.0439
3315.0,-0.0438
3314.0,-0.0438
3313.0,-0.0439
3312.0,-0.0439
3311.0,-0.0439
3310.0,-0.0439
3309.0,-0.0438
3308.0,-0.0438
3307.0,-0.0437
3306.0,-0.0437
3305.0,-0.0438
3304.0,-0.0438
3303.0,-0.0438
3302.0,-0.0438
3301.0,-0.0437
3300.0,-0.0436
3299.0,-0.0436
3298.0,-0.0435
3297.0,-0.0434
3296.0,-0.0433
3295.0,-0.0432
3294.0,-0.0432
3293.0,-0.0432
3292.0,-0.0431
3291.0,-0.0431
3290.0,-0.043
3289.0,-0.043
3288.0,-0.0428
3287.0,-0.0427
3286.0,-0.0425
3285.0,-0.0423
3284.0,-0.0423
3283.0,-0.0423
3282.0,-0.0424
3281.0,-0.0424
3280.0,-0.0424
3279.0,-0.0423
3278.0,-0.0422
3277.0,-0.0421
3276.0,-0.042
3275.0,-0.0419
3274.0,-0.0418
3273.0,-0.0418
3272.0,-0.0418
3271.0,-0.0417
3270.0,-0.0415
3269.0,-0.0414
3268.0,-0.0413
3267.0,-0.0413
3266.0,-0.0413
3265.0,-0.0412
3264.0,-0.0412
3263.0,-0.0411
3262.0,-0.041
3261.0,-0.0409
3260.0,-0.0407
3259.0,-0.0405
3258.0,-0.0403
3257.0,-0.0401
3256.0,-0.0401
3255.0,-0.0401
3254.0,-0.0401
3253.0,-0.0401
3252.0,-0.0399
3251.0,-0.0397
3250.0,-0.0395
3249.0,-0.0394
3248.0,-0.0394
3247.0,-0.0394
3246.0,-0.0393
3245.0,-0.0393
3244.0,-0.0393
3243.0,-0.0394
3242.0,-0.0394
3241.0,-0.0394
3240.0,-0.0393
3239.0,-0.0393
3238.0,-0.0392
3237.0,-0.0392
3236.0,-0.0392
3235.0,-0.0391
3234.0,-0.039
3233.0,-0.039
3232.0,-0.0391
3231.0,-0.0391
3230.0,-0.0391
3229.0,-0.0391
3228.0,-0.039
3227.0,-0.0389
3226.0,-0.0389
3225.0,-0.0389
3224.0,-0.0388
3223.0,-0.0387
3222.0,-0.0386
3221.0,-0.0385
3220.0,-0.0385
3219.0,-0.0385
3218.0,-0.0384
3217.0,-0.0383
3216.0,-0.0382
3215.0,-0.038
3214.0,-0.0379
3213.0,-0.0377
3212.0,-0.0376
3211.0,-0.0375
3210.0,-0.0373
3209.0,-0.0372
3208.0,-0.037
3207.0,-0.0368
3206.0,-0.0366
3205.0,-0.0364
3204.0,-0.0363
3203.0,-0.036
3202.0,-0.0358
3201.0,-0.0356
3200.0,-0.0356
3199.0,-0.0355
3198.0,-0.0355
3197.0,-0.0354
3196.0,-0.0353
3195.0,-0.0352
3194.0,-0.035
3193.0,-0.0347
3192.0,-0.0345
3191.0,-0.0342
3190.0,-0.0339
3189.0,-0.0336
3188.0,-0.0333
3187.0,-0.0332
3186.0,-0.0331
3185.0,-0.0332
3184.0,-0.0332
3183.0,-0.0331
3182.0,-0.033
3181.0,-0.0327
3180.0,-0.0323
3179.0,-0.032
3178.0,-0.0318
3177.0,-0.0316
3176.0,-0.0315
3175.0,-0.0314
3174.0,-0.0312
3173.0,-0.031
3172.0,-0.0308
3171.0,-0.0306
3170.0,-0.0304
3169.0,-0.0302
3168.0,-0.03
3167.0,-0.0299
3166.0,-0.0297
3165.0,-0.0294
3164.0,-0.0292
3163.0,-0.029
3162.0,-0.0288
3161.0,-0.0287
3160.0,-0.0286
3159.0,-0.0285
3158.0,-0.0284
3157.0,-0.0282
3156.0,-0.0279
3155.0,-0.0277
3154.0,-0.0275
3153.0,-0.0273
3152.0,-0.0271
3151.0,-0.0269
3150.0,-0.0268
3149.0,-0.0267
3148.0,-0.0265
3147.0,-0.0263
3146.0,-0.026
3145.0,-0.0259
3144.0,-0.0257
3143.0,-0.0257
3142.0,-0.0255
3141.0,-0.0253
3140.0,-0.025
3139.0,-0.0249
3138.0,-0.0248
3137.0,-0.0247
3136.0,-0.0245
3135.0,-0.0243
3134.0,-0.0241
3133.0,-0.0239
3132.0,-0.0238
3131.0,-0.0237
3130.0,-0.0235
3129.0,-0.0233
3128.0,-0.0231
3127.0,-0.0229
3126.0,-0.0228
3125.0,-0.0226
3124.0,-0.0225
3123.0,-0.0224
3122.0,-0.0223
3121.0,-0.0221
3120.0,-0.0219
3119.0,-0.0217
3118.0,-0.0216
3117.0,-0.0215
3116.0,-0.0213
3115.0,-0.0212
3114.0,-0.021
3113.0,-0.0209
3112.0,-0.0208
3111.0,-0.0206
3110.0,-0.0205
3109.0,-0.0204
3108.0,-0.0203
3107.0,-0.0202
3106.0,-0.0201
3105.0,-0.02
3104.0,-0.0198
3103.0,-0.0196
3102.0,-0.0194
3101.0,-0.0192
3100.0,-0.0191
3099.0,-0.019
3098.0,-0.0188
3097.0,-0.0186
3096.0,-0.0184
3095.0,-0.0183
3094.0,-0.0183
3093.0,-0.0182
3092.0,-0.0181
3091.0,-0.0179
3090.0,-0.0177
3089.0,-0.0175
3088.0,-0.0174
3087.0,-0.0173
3086.0,-0.0172
3085.0,-0.0172
3084.0,-0.0171
3083.0,-0.017
3082.0,-0.0169
3081.0,-0.0167
3080.0,-0.0166
3079.0,-0.0164
3078.0,-0.0163
3077.0,-0.0161
3076.0,-0.016
3075.0,-0.0159
3074.0,-0.0158
3073.0,-0.0158
3072.0,-0.0157
3071.0,-0.0156
3070.0,-0.0155
3069.0,-0.0154
3068.0,-0.0153
3067.0,-0.0152
3066.0,-0.0151
3065.0,-0.015
3064.0,-0.0149
3063.0,-0.0147
3062.0,-0.0145
3061.0,-0.0144
3060.0,-0.0143
3059.0,-0.0143
3058.0,-0.0142
3057.0,-0.0141
3056.0,-0.014
3055.0,-0.0138
3054.0,-0.0137
3053.0,-0.0136
3052.0,-0.0134
3051.0,-0.0133
3050.0,-0.0131
3049.0,-0.013
3048.0,-0.0129
3047.0,-0.0129
3046.0,-0.0128
3045.0,-0.0128
3044.0,-0.0127
3043.0,-0.0126
3042.0,-0.0125
3041.0,-0.0124
3040.0,-0.0122
3039.0,-0.0121
3038.0,-0.0119
3037.0,-0.0118
3036.0,-0.0118
3035.0,-0.0117
3034.0,-0.0116
3033.0,-0.0115
3032.0,-0.0114
3031.0,-0.0112
3030.0,-0.011
3029.0,-0.0108
3028.0,-0.0105
3027.0,-0.0103
3026.0,-0.01
3025.0,-0.0097
3024.0,-0.0093
3023.0,-0.009
3022.0,-0.0086
3021.0,-0.0081
3020.0,-0.0076
3019.0,-0.0071
3018.0,-0.0065
3017.0,-0.0059
3016.0,-0.0052
3015.0,-0.0045
3014.0,-0.0036
3013.0,-0.0028
3012.0,-0.0019
3011.0,-0.001
3010.0,-0.0
3009.0,0.001
3008.0,0.0021
3007.0,0.0032
3006.0,0.0043
3005.0,0.0055
3004.0,0.0067
3003.0,0.0079
3002.0,0.0091
3001.0,0.0102
3000.0,0.0113
2999.0,0.0122
2998.0,0.0129
2997.0,0.0135
2996.0,0.014
2995.0,0.0142
2994.0,0.0142
2993.0,0.0138
2992.0,0.0132
2991.0,0.0123
2990.0,0.0113
2989.0,0.0101
2988.0,0.009
2987.0,0.0078
2986.0,0.0068
2985.0,0.0058
2984.0,0.005
2983.0,0.0042
2982.0,0.0036
2981.0,0.0031
2980.0,0.0026
2979.0,0.0023
2978.0,0.002
2977.0,0.0018
2976.0,0.0016
2975.0,0.0016
2974.0,0.0017
2973.0,0.0017
2972.0,0.0018
2971.0,0.0018
2970.0,0.0018
2969.0,0.0017
2968.0,0.0017
2967.0,0.0018
2966.0,0.002
2965.0,0.0023
2964.0,0.0026
2963.0,0.0029
2962.0,0.0032
2961.0,0.0035
2960.0,0.0038
2959.0,0.0042
2958.0,0.0048
2957.0,0.0054
2956.0,0.0061
2955.0,0.0069
2954.0,0.0077
2953.0,0.0085
2952.0,0.0094
2951.0,0.0103
2950.0,0.0113
2949.0,0.0123
2948.0,0.0131
2947.0,0.0138
2946.0,0.0142
2945.0,0.0143
2944.0,0.0141
2943.0,0.0136
2942.0,0.0129
2941.0,0.012
2940.0,0.0109
2939.0,0.0098
2938.0,0.0087
2937.0,0.0077
2936.0,0.0068
2935.0,0.006
2934.0,0.0054
2933.0,0.005
2932.0,0.0045
2931.0,0.0041
2930.0,0.0037
2929.0,0.0033
2928.0,0.0029
2927.0,0.0027
2926.0,0.0025
2925.0,0.0023
2924.0,0.002
2923.0,0.0018
2922.0,0.0016
2921.0,0.0014
2920.0,0.0013
2919.0,0.0011
2918.0,0.001
2917.0,0.0008
2916.0,0.0006
2915.0,0.0004
2914.0,0.0003
2913.0,0.0002
2912.0,0.0001
2911.0,0.0
2910.0,-0.0001
2909.0,-0.0002
2908.0,-0.0003
2907.0,-0.0003
2906.0,-0.0003
2905.0,-0.0003
2904.0,-0.0003
2903.0,-0.0003
2902.0,-0.0003
2901.0,-0.0003
2900.0,-0.0003
2899.0,-0.0004
2898.0,-0.0004
2897.0,-0.0005
2896.0,-0.0005
2895.0,-0.0005
2894.0,-0.0004
2893.0,-0.0004
2892.0,-0.0003
2891.0,-0.0003
2890.0,-0.0003
2889.0,-0.0002
2888.0,-0.0001
2887.0,0.0001
2886.0,0.0003
2885.0,0.0006
2884.0,0.0009
2883.0,0.0011
2882.0,0.0013
2881.0,0.0013
2880.0,0.0013
2879.0,0.0011
2878.0,0.001
2877.0,0.0008
2876.0,0.0006
2875.0,0.0003
2874.0,-0.0001
2873.0,-0.0005
2872.0,-0.0008
2871.0,-0.001
2870.0,-0.0012
2869.0,-0.0014
2868.0,-0.0016
2867.0,-0.0017
2866.0,-0.0019
2865.0,-0.0019
2864.0,-0.002
2863.0,-0.002
2862.0,-0.002
2861.0,-0.002
2860.0,-0.0019
2859.0,-0.0019
2858.0,-0.0019
2857.0,-0.0019
2856.0,-0.002
2855.0,-0.002
2854.0,-0.002
2853.0,-0.002
2852.0,-0.002
2851.0,-0.002
2850.0,-0.0021
2849.0,-0.0021
2848.0,-0.0021
2847.0,-0.0022
2846.0,-0.0023
2845.0,-0.0024
2844.0,-0.0025
2843.0,-0.0026
2842.0,-0.0026
2841.0,-0.0027
2840.0,-0.0027
2839.0,-0.0027
2838.0,-0.0027
2837.0,-0.0027
2836.0,-0.0027
2835.0,-0.0028
2834.0,-0.0027
2833.0,-0.0027
2832.0,-0.0027
2831.0,-0.0027
2830.0,-0.0027
2829.0,-0.0028
2828.0,-0.0028
2827.0,-0.0028
2826.0,-0.0028
2825.0,-0.0027
2824.0,-0.0027
2823.0,-0.0027
2822.0,-0.0027
2821.0,-0.0028
2820.0,-0.0029
2819.0,-0.0029
2818.0,-0.0029
2817.0,-0.0029
2816.0,-0.0029
2815.0,-0.0029
2814.0,-0.0029
2813.0,-0.0029
2812.0,-0.003
2811.0,-0.003
2810.0,-0.003
2809.0,-0.0031
2808.0,-0.0032
2807.0,-0.0032
2806.0,-0.0032
2805.0,-0.0032
2804.0,-0.0032
2803.0,-0.0031
2802.0,-0.0032
2801.0,-0.0032
2800.0,-0.0033
2799.0,-0.0034
2798.0,-0.0034
2797.0,-0.0033
2796.0,-0.0033
2795.0,-0.0033
2794.0,-0.0034
2793.0,-0.0034
2792.0,-0.0034
2791.0,-0.0034
2790.0,-0.0034
2789.0,-0.0034
2788.0,-0.0035
2787.0,-0.0035
2786.0,-0.0035
2785.0,-0.0035
2784.0,-0.0035
2783.0,-0.0034
2782.0,-0.0034
2781.0,-0.0034
2780.0,-0.0034
2779.0,-0.0034
2778.0,-0.0034
2777.0,-0.0034
2776.0,-0.0034
2775.0,-0.0034
2774.0,-0.0033
2773.0,-0.0033
2772.0,-0.0033
2771.0,-0.0034
2770.0,-0.0034
2769.0,-0.0034
2768.0,-0.0033
2767.0,-0.0033
2766.0,-0.0032
2765.0,-0.0032
2764.0,-0.0032
2763.0,-0.0033
2762.0,-0.0034
2761.0,-0.0034
2760.0,-0.0035
2759.0,-0.0035
2758.0,-0.0035
2757.0,-0.0034
2756.0,-0.0034
2755.0,-0.0034
2754.0,-0.0034
2753.0,-0.0034
2752.0,-0.0034
2751.0,-0.0035
2750.0,-0.0035
2749.0,-0.0035
2748.0,-0.0035
2747.0,-0.0034
2746.0,-0.0034
2745.0,-0.0033
2744.0,-0.0033
2743.0,-0.0034
2742.0,-0.0034
2741.0,-0.0033
2740.0,-0.0033
2739.0,-0.0033
2738.0,-0.0032
2737.0,-0.0032
2736.0,-0.0031
2735.0,-0.0032
2734.0,-0.0032
2733.0,-0.0033
2732.0,-0.0033
2731.0,-0.0033
2730.0,-0.0033
2729.0,-0.0033
2728.0,-0.0033
2727.0,-0.0032
2726.0,-0.0032
2725.0,-0.0033
2724.0,-0.0033
2723.0,-0.0033
2722.0,-0.0033
2721.0,-0.0033
2720.0,-0.0033
2719.0,-0.0033
2718.0,-0.0033
2717.0,-0.0033
2716.0,-0.0032
2715.0,-0.0032
2714.0,-0.0032
2713.0,-0.0033
2712.0,-0.0033
2711.0,-0.0032
2710.0,-0.0031
2709.0,-0.003
2708.0,-0.003
2707.0,-0.003
2706.0,-0.003
2705.0,-0.0031
2704.0,-0.0031
2703.0,-0.0032
2702.0,-0.0032
2701.0,-0.0032
2700.0,-0.0032
2699.0,-0.0032
2698.0,-0.0031
2697.0,-0.003
2696.0,-0.003
2695.0,-0.003
2694.0,-0.003
2693.0,-0.0031
2692.0,-0.0031
2691.0,-0.0032
2690.0,-0.0032
2689.0,-0.0032
2688.0,-0.0032
2687.0,-0.0031
2686.0,-0.0031
2685.0,-0.003
2684.0,-0.003
2683.0,-0.003
2682.0,-0.003
2681.0,-0.003
2680.0,-0.003
2679.0,-0.003
2678.0,-0.003
2677.0,-0.003
2676.0,-0.003
2675.0,-0.003
2674.0,-0.003
2673.0,-0.0029
2672.0,-0.0029
2671.0,-0.0029
2670.0,-0.0029
2669.0,-0.0029
2668.0,-0.0028
2667.0,-0.0028
2666.0,-0.0028
2665.0,-0.0028
2664.0,-0.0029
2663.0,-0.0029
2662.0,-0.0029
2661.0,-0.0028
2660.0,-0.0028
2659.0,-0.0028
2658.0,-0.0028
2657.0,-0.0028
2656.0,-0.0028
2655.0,-0.0028
2654.0,-0.0028
2653.0,-0.0027
2652.0,-0.0026
2651.0,-0.0026
2650.0,-0.0026
2649.0,-0.0026
2648.0,-0.0025
2647.0,-0.0025
2646.0,-0.0026
2645.0,-0.0027
2644.0,-0.0027
2643.0,-0.0028
2642.0,-0.0028
2641.0,-0.0028
2640.0,-0.0028
2639.0,-0.0028
2638.0,-0.0027
2637.0,-0.0027
2636.0,-0.0028
2635.0,-0.0028
2634.0,-0.0028
2633.0,-0.0028
2632.0,-0.0028
2631.0,-0.0027
2630.0,-0.0027
2629.0,-0.0027
2628.0,-0.0027
2627.0,-0.0027
2626.0,-0.0027
2625.0,-0.0028
2624.0,-0.0028
2623.0,-0.0028
2622.0,-0.0028
2621.0,-0.0028
2620.0,-0.0028
2619.0,-0.0028
2618.0,-0.0028
2617.0,-0.0028
2616.0,-0.0029
2615.0,-0.003
2614.0,-0.003
2613.0,-0.0031
2612.0,-0.0031
2611.0,-0.003
2610.0,-0.003
2609.0,-0.003
2608.0,-0.0029
2607.0,-0.0029
2606.0,-0.0029
2605.0,-0.0028
2604.0,-0.0028
2603.0,-0.0028
2602.0,-0.0028
2601.0,-0.0027
2600.0,-0.0027
2599.0,-0.0027
2598.0,-0.0027
2597.0,-0.0028
2596.0,-0.0028
2595.0,-0.0028
2594.0,-0.0029
2593.0,-0.0029
2592.0,-0.0028
2591.0,-0.0028
2590.0,-0.0028
2589.0,-0.0028
2588.0,-0.0028
2587.0,-0.0028
2586.0,-0.0028
2585.0,-0.0028
2584.0,-0.0029
2583.0,-0.0029
2582.0,-0.0029
2581.0,-0.0029
2580.0,-0.0029
2579.0,-0.0029
2578.0,-0.003
2577.0,-0.0031
2576.0,-0.0031
2575.0,-0.0031
2574.0,-0.0031
2573.0,-0.0031
2572.0,-0.003
2571.0,-0.003
2570.0,-0.0029
2569.0,-0.0029
2568.0,-0.0029
2567.0,-0.0029
2566.0,-0.0029
2565.0,-0.003
2564.0,-0.003
2563.0,-0.003
2562.0,-0.0031
2561.0,-0.0031
2560.0,-0.0031
2559.0,-0.0031
2558.0,-0.0031
2557.0,-0.0031
2556.0,-0.0031
2555.0,-0.0031
2554.0,-0.0031
2553.0,-0.0031
2552.0,-0.0031
2551.0,-0.0031
2550.0,-0.0031
2549.0,-0.0031
2548.0,-0.0031
2547.0,-0.003
2546.0,-0.003
2545.0,-0.003
2544.0,-0.003
2543.0,-0.003
2542.0,-0.0031
2541.0,-0.003
2540.0,-0.003
2539.0,-0.003
2538.0,-0.0031
2537.0,-0.0031
2536.0,-0.0031
2535.0,-0.0031
2534.0,-0.0032
2533.0,-0.0032
2532.0,-0.0033
2531.0,-0.0033
2530.0,-0.0033
2529.0,-0.0033
2528.0,-0.0033
2527.0,-0.0033
2526.0,-0.0033
2525.0,-0.0033
2524.0,-0.0033
2523.0,-0.0033
2522.0,-0.0033
2521.0,-0.0033
2520.0,-0.0033
2519.0,-0.0032
2518.0,-0.0032
2517.0,-0.0032
2516.0,-0.0033
2515.0,-0.0033
2514.0,-0.0032
2513.0,-0.0032
2512.0,-0.0032
2511.0,-0.0031
2510.0,-0.0031
2509.0,-0.0031
2508.0,-0.0031
2507.0,-0.0031
2506.0,-0.0032
2505.0,-0.0032
2504.0,-0.0032
2503.0,-0.0032
2502.0,-0.0032
2501.0,-0.0032
2500.0,-0.0032
2499.0,-0.0032
2498.0,-0.0031
2497.0,-0.0031
2496.0,-0.0031
2495.0,-0.0031
2494.0,-0.0031
2493.0,-0.0032
2492.0,-0.0032
2491.0,-0.0032
2490.0,-0.0033
2489.0,-0.0033
2488.0,-0.0034
2487.0,-0.0034
2486.0,-0.0034
2485.0,-0.0034
2484.0,-0.0034
2483.0,-0.0034
2482.0,-0.0034
2481.0,-0.0034
2480.0,-0.0034
2479.0,-0.0034
2478.0,-0.0034
2477.0,-0.0035
2476.0,-0.0035
2475.0,-0.0035
2474.0,-0.0036
2473.0,-0.0036
2472.0,-0.0035
2471.0,-0.0035
2470.0,-0.0034
2469.0,-0.0034
2468.0,-0.0034
2467.0,-0.0035
2466.0,-0.0035
2465.0,-0.0036
2464.0,-0.0036
2463.0,-0.0036
2462.0,-0.0037
2461.0,-0.0037
2460.0,-0.0037
2459.0,-0.0037
2458.0,-0.0037
2457.0,-0.0037
2456.0,-0.0037
2455.0,-0.0036
2454.0,-0.0036
2453.0,-0.0036
2452.0,-0.0036
2451.0,-0.0036
2450.0,-0.0036
2449.0,-0.0037
2448.0,-0.0037
2447.0,-0.0037
2446.0,-0.0037
2445.0,-0.0037
2444.0,-0.0037
2443.0,-0.0036
2442.0,-0.0036
2441.0,-0.0035
2440.0,-0.0034
2439.0,-0.0034
2438.0,-0.0033
2437.0,-0.0034
2436.0,-0.0034
2435.0,-0.0034
2434.0,-0.0034
2433.0,-0.0034
2432.0,-0.0034
2431.0,-0.0035
2430.0,-0.0035
2429.0,-0.0035
2428.0,-0.0034
2427.0,-0.0034
2426.0,-0.0034
2425.0,-0.0034
2424.0,-0.0033
2423.0,-0.0032
2422.0,-0.0032
2421.0,-0.0032
2420.0,-0.0032
2419.0,-0.0033
2418.0,-0.0033
2417.0,-0.0032
2416.0,-0.0032
2415.0,-0.0032
2414.0,-0.0031
2413.0,-0.0031
2412.0,-0.003
2411.0,-0.003
2410.0,-0.003
2409.0,-0.003
2408.0,-0.003
2407.0,-0.003
2406.0,-0.0031
2405.0,-0.0031
2404.0,-0.0031
2403.0,-0.0031
2402.0,-0.003
2401.0,-0.003
2400.0,-0.003
2399.0,-0.0031
2398.0,-0.0031
2397.0,-0.0032
2396.0,-0.0032
2395.0,-0.0031
2394.0,-0.0031
2393.0,-0.0032
2392.0,-0.0032
2391.0,-0.0032
2390.0,-0.0032
2389.0,-0.0032
2388.0,-0.0031
2387.0,-0.0031
2386.0,-0.0031
2385.0,-0.0032
2384.0,-0.0033
2383.0,-0.0034
2382.0,-0.0035
2381.0,-0.0036
2380.0,-0.0037
2379.0,-0.0038
2378.0,-0.0038
2377.0,-0.0038
2376.0,-0.0037
2375.0,-0.0037
2374.0,-0.0039
2373.0,-0.0041
2372.0,-0.0043
2371.0,-0.0043
2370.0,-0.0043
2369.0,-0.0041
2368.0,-0.0038
2367.0,-0.0034
2366.0,-0.0031
2365.0,-0.0031
2364.0,-0.0035
2363.0,-0.0042
2362.0,-0.0046
2361.0,-0.0046
2360.0,-0.0045
2359.0,-0.0043
2358.0,-0.004
2357.0,-0.0035
2356.0,-0.0035
2355.0,-0.004
2354.0,-0.0046
2353.0,-0.0051
2352.0,-0.0054
2351.0,-0.0052
2350.0,-0.0046
2349.0,-0.0042
2348.0,-0.0042
2347.0,-0.0046
2346.0,-0.0049
2345.0,-0.0047
2344.0,-0.0039
2343.0,-0.0032
2342.0,-0.0032
2341.0,-0.0038
2340.0,-0.0044
2339.0,-0.0049
2338.0,-0.0053
2337.0,-0.0055
2336.0,-0.0054
2335.0,-0.005
2334.0,-0.0045
2333.0,-0.0042
2332.0,-0.0042
2331.0,-0.0043
2330.0,-0.0043
2329.0,-0.0043
2328.0,-0.0043
2327.0,-0.0044
2326.0,-0.0043
2325.0,-0.0043
2324.0,-0.0043
2323.0,-0.0043
2322.0,-0.0042
2321.0,-0.004
2320.0,-0.0039
2319.0,-0.0038
2318.0,-0.0037
2317.0,-0.0036
2316.0,-0.0036
2315.0,-0.0037
2314.0,-0.0037
2313.0,-0.0039
2312.0,-0.004
2311.0,-0.0042
2310.0,-0.0042
2309.0,-0.0043
2308.0,-0.0043
2307.0,-0.0043
2306.0,-0.0043
2305.0,-0.0043
2304.0,-0.0044
2303.0,-0.0045
2302.0,-0.0046
2301.0,-0.0046
2300.0,-0.0047
2299.0,-0.0047
2298.0,-0.0047
2297.0,-0.0047
2296.0,-0.0046
2295.0,-0.0046
2294.0,-0.0046
2293.0,-0.0046
2292.0,-0.0046
2291.0,-0.0046
2290.0,-0.0046
2289.0,-0.0046
2288.0,-0.0046
2287.0,-0.0046
2286.0,-0.0046
2285.0,-0.0046
2284.0,-0.0046
2283.0,-0.0046
2282.0,-0.0046
2281.0,-0.0047
2280.0,-0.0047
2279.0,-0.0047
2278.0,-0.0048
2277.0,-0.0048
2276.0,-0.0049
2275.0,-0.005
2274.0,-0.005
2273.0,-0.005
2272.0,-0.005
2271.0,-0.005
2270.0,-0.0049
2269.0,-0.0049
2268.0,-0.0049
2267.0,-0.005
2266.0,-0.005
2265.0,-0.0051
2264.0,-0.0051
2263.0,-0.005
2262.0,-0.0049
2261.0,-0.0049
2260.0,-0.0049
2259.0,-0.005
2258.0,-0.005
2257.0,-0.0051
2256.0,-0.0051
2255.0,-0.0051
2254.0,-0.0051
2253.0,-0.0051
2252.0,-0.0051
2251.0,-0.0052
2250.0,-0.0052
2249.0,-0.0053
2248.0,-0.0053
2247.0,-0.0053
2246.0,-0.0053
2245.0,-0.0052
2244.0,-0.0053
2243.0,-0.0053
2242.0,-0.0053
2241.0,-0.0054
2240.0,-0.0054
2239.0,-0.0054
2238.0,-0.0054
2237.0,-0.0054
2236.0,-0.0054
2235.0,-0.0054
2234.0,-0.0055
2233.0,-0.0055
2232.0,-0.0056
2231.0,-0.0057
2230.0,-0.0057
2229.0,-0.0058
2228.0,-0.0058
2227.0,-0.0058
2226.0,-0.0058
2225.0,-0.0058
2224.0,-0.0059
2223.0,-0.0059
2222.0,-0.006
2221.0,-0.006
2220.0,-0.006
2219.0,-0.006
2218.0,-0.006
2217.0,-0.0061
2216.0,-0.0061
2215.0,-0.0062
2214.0,-0.0062
2213.0,-0.0062
2212.0,-0.0062
2211.0,-0.0062
2210.0,-0.0062
2209.0,-0.0062
2208.0,-0.0062
2207.0,-0.0063
2206.0,-0.0064
2205.0,-0.0065
2204.0,-0.0065
2203.0,-0.0065
2202.0,-0.0065
2201.0,-0.0065
2200.0,-0.0065
2199.0,-0.0065
2198.0,-0.0066
2197.0,-0.0066
2196.0,-0.0067
2195.0,-0.0067
2194.0,-0.0067
2193.0,-0.0067
2192.0,-0.0067
2191.0,-0.0067
2190.0,-0.0067
2189.0,-0.0067
2188.0,-0.0067
2187.0,-0.0067
2186.0,-0.0067
2185.0,-0.0066
2184.0,-0.0066
2183.0,-0.0066
2182.0,-0.0066
2181.0,-0.0066
2180.0,-0.0067
2179.0,-0.0067
2178.0,-0.0068
2177.0,-0.0068
2176.0,-0.0069
2175.0,-0.0069
2174.0,-0.0069
2173.0,-0.0069
2172.0,-0.0069
2171.0,-0.0068
2170.0,-0.0068
2169.0,-0.0068
2168.0,-0.0069
2167.0,-0.0069
2166.0,-0.007
2165.0,-0.007
2164.0,-0.0071
2163.0,-0.0071
2162.0,-0.0071
2161.0,-0.0071
2160.0,-0.0071
2159.0,-0.007
2158.0,-0.007
2157.0,-0.007
2156.0,-0.0071
2155.0,-0.0071
2154.0,-0.0071
2153.0,-0.0071
2152.0,-0.0071
2151.0,-0.0072
2150.0,-0.0072
2149.0,-0.0072
2148.0,-0.0072
2147.0,-0.0071
2146.0,-0.0071
2145.0,-0.007
2144.0,-0.007
2143.0,-0.0069
2142.0,-0.0069
2141.0,-0.0069
2140.0,-0.007
2139.0,-0.007
2138.0,-0.007
2137.0,-0.007
2136.0,-0.007
2135.0,-0.0069
2134.0,-0.0068
2133.0,-0.0068
2132.0,-0.0068
2131.0,-0.0068
2130.0,-0.0067
2129.0,-0.0067
2128.0,-0.0068
2127.0,-0.0068
2126.0,-0.0069
2125.0,-0.0069
2124.0,-0.0069
2123.0,-0.0069
2122.0,-0.0069
2121.0,-0.0069
2120.0,-0.007
2119.0,-0.007
2118.0,-0.007
2117.0,-0.0069
2116.0,-0.0069
2115.0,-0.007
2114.0,-0.007
2113.0,-0.0071
2112.0,-0.0071
2111.0,-0.0071
2110.0,-0.0071
2109.0,-0.0071
2108.0,-0.0072
2107.0,-0.0071
2106.0,-0.0071
2105.0,-0.007
2104.0,-0.007
2103.0,-0.007
2102.0,-0.0071
2101.0,-0.0071
2100.0,-0.0071
2099.0,-0.0071
2098.0,-0.007
2097.0,-0.0069
2096.0,-0.007
2095.0,-0.007
2094.0,-0.007
2093.0,-0.007
2092.0,-0.007
2091.0,-0.0069
2090.0,-0.0069
2089.0,-0.007
2088.0,-0.007
2087.0,-0.007
2086.0,-0.0069
2085.0,-0.0068
2084.0,-0.0068
2083.0,-0.0069
2082.0,-0.0069
2081.0,-0.007
2080.0,-0.007
2079.0,-0.0071
2078.0,-0.0071
2077.0,-0.0072
2076.0,-0.0073
2075.0,-0.0073
2074.0,-0.0074
2073.0,-0.0074
2072.0,-0.0074
2071.0,-0.0074
2070.0,-0.0074
2069.0,-0.0075
2068.0,-0.0075
2067.0,-0.0076
2066.0,-0.0077
2065.0,-0.0077
2064.0,-0.0078
2063.0,-0.0078
2062.0,-0.0078
2061.0,-0.0078
2060.0,-0.0078
2059.0,-0.0079
2058.0,-0.0079
2057.0,-0.008
2056.0,-0.0081
2055.0,-0.0082
2054.0,-0.0083
2053.0,-0.0083
2052.0,-0.0084
2051.0,-0.0084
2050.0,-0.0084
2049.0,-0.0085
2048.0,-0.0086
2047.0,-0.0087
2046.0,-0.0088
2045.0,-0.0089
2044.0,-0.0089
2043.0,-0.009
2042.0,-0.009
2041.0,-0.0091
2040.0,-0.0092
2039.0,-0.0093
2038.0,-0.0093
2037.0,-0.0093
2036.0,-0.0093
2035.0,-0.0093
2034.0,-0.0094
2033.0,-0.0094
2032.0,-0.0094
2031.0,-0.0095
2030.0,-0.0095
2029.0,-0.0096
2028.0,-0.0096
2027.0,-0.0096
2026.0,-0.0096
2025.0,-0.0095
2024.0,-0.0095
2023.0,-0.0094
2022.0,-0.0095
2021.0,-0.0095
2020.0,-0.0096
2019.0,-0.0096
2018.0,-0.0096
2017.0,-0.0096
2016.0,-0.0096
2015.0,-0.0095
2014.0,-0.0095
2013.0,-0.0095
2012.0,-0.0094
2011.0,-0.0094
2010.0,-0.0094
2009.0,-0.0094
2008.0,-0.0094
2007.0,-0.0094
2006.0,-0.0093
2005.0,-0.0093
2004.0,-0.0093
2003.0,-0.0093
2002.0,-0.0094
2001.0,-0.0094
2000.0,-0.0094
1999.0,-0.0094
1998.0,-0.0094
1997.0,-0.0094
1996.0,-0.0094
1995.0,-0.0094
1994.0,-0.0095
1993.0,-0.0096
1992.0,-0.0097
1991.0,-0.0097
1990.0,-0.0097
1989.0,-0.0096
1988.0,-0.0096
1987.0,-0.0096
1986.0,-0.0096
1985.0,-0.0095
1984.0,-0.0095
1983.0,-0.0095
1982.0,-0.0095
1981.0,-0.0094
1980.0,-0.0094
1979.0,-0.0094
1978.0,-0.0094
1977.0,-0.0094
1976.0,-0.0094
1975.0,-0.0094
1974.0,-0.0094
1973.0,-0.0094
1972.0,-0.0093
1971.0,-0.0093
1970.0,-0.0092
1969.0,-0.0092
1968.0,-0.0092
1967.0,-0.0093
1966.0,-0.0093
1965.0,-0.0094
1964.0,-0.0094
1963.0,-0.0094
1962.0,-0.0095
1961.0,-0.0095
1960.0,-0.0095
1959.0,-0.0096
1958.0,-0.0097
1957.0,-0.0098
1956.0,-0.0098
1955.0,-0.0099
1954.0,-0.0099
1953.0,-0.0099
1952.0,-0.0099
1951.0,-0.0099
1950.0,-0.01
1949.0,-0.0101
1948.0,-0.0102
1947.0,-0.0103
1946.0,-0.0103
1945.0,-0.0103
1944.0,-0.0103
1943.0,-0.0104
1942.0,-0.0105
1941.0,-0.0105
1940.0,-0.0106
1939.0,-0.0106
1938.0,-0.0106
1937.0,-0.0107
1936.0,-0.0108
1935.0,-0.0108
1934.0,-0.0109
1933.0,-0.0109
1932.0,-0.0109
1931.0,-0.0109
1930.0,-0.0109
1929.0,-0.011
1928.0,-0.0111
1927.0,-0.0111
1926.0,-0.011
1925.0,-0.011
1924.0,-0.011
1923.0,-0.011
1922.0,-0.0109
1921.0,-0.0109
1920.0,-0.0108
1919.0,-0.0108
1918.0,-0.0108
1917.0,-0.0109
1916.0,-0.0109
1915.0,-0.0109
1914.0,-0.0109
1913.0,-0.0109
1912.0,-0.0109
1911.0,-0.0109
1910.0,-0.0109
1909.0,-0.011
1908.0,-0.011
1907.0,-0.0111
1906.0,-0.0111
1905.0,-0.0111
1904.0,-0.0111
1903.0,-0.0111
1902.0,-0.0111
1901.0,-0.0111
1900.0,-0.0111
1899.0,-0.0111
1898.0,-0.0111
1897.0,-0.0111
1896.0,-0.0111
1895.0,-0.0111
1894.0,-0.0111
1893.0,-0.0111
1892.0,-0.0111
1891.0,-0.0112
1890.0,-0.0113
1889.0,-0.0114
1888.0,-0.0113
1887.0,-0.0113
1886.0,-0.0112
1885.0,-0.0113
1884.0,-0.0113
1883.0,-0.0113
1882.0,-0.0113
1881.0,-0.0113
1880.0,-0.0112
1879.0,-0.0112
1878.0,-0.0112
1877.0,-0.0112
1876.0,-0.0112
1875.0,-0.0112
1874.0,-0.0112
1873.0,-0.0111
1872.0,-0.0111
1871.0,-0.011
1870.0,-0.0111
1869.0,-0.0112
1868.0,-0.0112
1867.0,-0.0112
1866.0,-0.0112
1865.0,-0.0111
1864.0,-0.011
1863.0,-0.0109
1862.0,-0.0109
1861.0,-0.0108
1860.0,-0.0108
1859.0,-0.0107
1858.0,-0.0107
1857.0,-0.0106
1856.0,-0.0106
1855.0,-0.0105
1854.0,-0.0104
1853.0,-0.0103
1852.0,-0.0101
1851.0,-0.01
1850.0,-0.0099
1849.0,-0.0098
1848.0,-0.0096
1847.0,-0.0095
1846.0,-0.0094
1845.0,-0.0093
1844.0,-0.0092
1843.0,-0.009
1842.0,-0.0089
1841.0,-0.0087
1840.0,-0.0085
1839.0,-0.0083
1838.0,-0.0081
1837.0,-0.0079
1836.0,-0.0076
1835.0,-0.0074
1834.0,-0.0072
1833.0,-0.0069
1832.0,-0.0066
1831.0,-0.0063
1830.0,-0.0062
1829.0,-0.0059
1828.0,-0.0056
1827.0,-0.0053
1826.0,-0.0051
1825.0,-0.0048
1824.0,-0.0045
1823.0,-0.0042
1822.0,-0.004
1821.0,-0.0038
1820.0,-0.0035
1819.0,-0.0033
1818.0,-0.0031
1817.0,-0.0028
1816.0,-0.0025
1815.0,-0.0022
1814.0,-0.0021
1813.0,-0.0019
1812.0,-0.0015
1811.0,-0.0012
1810.0,-0.0009
1809.0,-0.0005
1808.0,-0.0001
1807.0,0.0003
1806.0,0.0005
1805.0,0.001
1804.0,0.0015
1803.0,0.0021
1802.0,0.0026
1801.0,0.0032
1800.0,0.0041
1799.0,0.0048
1798.0,0.0055
1797.0,0.0064
1796.0,0.0075
1795.0,0.0086
1794.0,0.0098
1793.0,0.0118
1792.0,0.0145
1791.0,0.0172
1790.0,0.0196
1789.0,0.0223
1788.0,0.0255
1787.0,0.0292
1786.0,0.0335
1785.0,0.0387
1784.0,0.0441
1783.0,0.0493
1782.0,0.0549
1781.0,0.0615
1780.0,0.0686
1779.0,0.0749
1778.0,0.0805
1777.0,0.0861
1776.0,0.0917
1775.0,0.0969
1774.0,0.1026
1773.0,0.1106
1772.0,0.1204
1771.0,0.1286
1770.0,0.1356
1769.0,0.144
1768.0,0.1544
1767.0,0.1653
1766.0,0.1754
1765.0,0.1854
1764.0,0.1975
1763.0,0.2133
1762.0,0.2329
1761.0,0.2528
1760.0,0.2694
1759.0,0.2836
1758.0,0.2991
1757.0,0.3178
1756.0,0.335
1755.0,0.3461
1754.0,0.353
1753.0,0.3598
1752.0,0.3675
1751.0,0.3738
1750.0,0.3777
1749.0,0.3799
1748.0,0.379
1747.0,0.3738
1746.0,0.3657
1745.0,0.3555
1744.0,0.3423
1743.0,0.3264
1742.0,0.3092
1741.0,0.2899
1740.0,0.2675
1739.0,0.2457
1738.0,0.2289
1737.0,0.2156
1736.0,0.2013
1735.0,0.1821
1734.0,0.1617
1733.0,0.1478
1732.0,0.1385
1731.0,0.1302
1730.0,0.1224
1729.0,0.1153
1728.0,0.1091
1727.0,0.1038
1726.0,0.0993
1725.0,0.0951
1724.0,0.091
1723.0,0.0873
1722.0,0.0844
1721.0,0.0819
1720.0,0.079
1719.0,0.0755
1718.0,0.0723
1717.0,0.0694
1716.0,0.0665
1715.0,0.0638
1714.0,0.0616
1713.0,0.0594
1712.0,0.0571
1711.0,0.0546
1710.0,0.0525
1709.0,0.0505
1708.0,0.0484
1707.0,0.0462
1706.0,0.0441
1705.0,0.0424
1704.0,0.0409
1703.0,0.0396
1702.0,0.0383
1701.0,0.0369
1700.0,0.0352
1699.0,0.0338
1698.0,0.0329
1697.0,0.032
1696.0,0.0306
1695.0,0.0294
1694.0,0.0286
1693.0,0.0279
1692.0,0.027
1691.0,0.0259
1690.0,0.0251
1689.0,0.0243
1688.0,0.0236
1687.0,0.0229
1686.0,0.0222
1685.0,0.0216
1684.0,0.0208
1683.0,0.0201
1682.0,0.0197
1681.0,0.0191
1680.0,0.0185
1679.0,0.0179
1678.0,0.0175
1677.0,0.0171
1676.0,0.0164
1675.0,0.0158
1674.0,0.0154
1673.0,0.015
1672.0,0.0144
1671.0,0.0138
1670.0,0.0133
1669.0,0.0129
1668.0,0.0124
1667.0,0.0119
1666.0,0.0115
1665.0,0.011
1664.0,0.0105
1663.0,0.01
1662.0,0.0096
1661.0,0.0093
1660.0,0.0088
1659.0,0.0084
1658.0,0.008
1657.0,0.0076
1656.0,0.0072
1655.0,0.0068
1654.0,0.0067
1653.0,0.0067
1652.0,0.0066
1651.0,0.0065
1650.0,0.0064
1649.0,0.0063
1648.0,0.0063
1647.0,0.0066
1646.0,0.0071
1645.0,0.0073
1644.0,0.0074
1643.0,0.0074
1642.0,0.0075
1641.0,0.0075
1640.0,0.0073
1639.0,0.007
1638.0,0.0067
1637.0,0.0063
1636.0,0.0055
1635.0,0.0046
1634.0,0.0038
1633.0,0.0031
1632.0,0.0022
1631.0,0.0014
1630.0,0.0005
1629.0,-0.0003
1628.0,-0.0012
1627.0,-0.0019
1626.0,-0.0024
1625.0,-0.0029
1624.0,-0.0035
1623.0,-0.0041
1622.0,-0.0046
1621.0,-0.0049
1620.0,-0.0052
1619.0,-0.0055
1618.0,-0.0057
1617.0,-0.0059
1616.0,-0.0061
1615.0,-0.0063
1614.0,-0.0064
1613.0,-0.0066
1612.0,-0.0067
1611.0,-0.0068
1610.0,-0.0069
1609.0,-0.0069
1608.0,-0.007
1607.0,-0.0071
1606.0,-0.0071
1605.0,-0.0071
1604.0,-0.0072
1603.0,-0.0073
1602.0,-0.0073
1601.0,-0.0072
1600.0,-0.0071
1599.0,-0.0071
1598.0,-0.007
1597.0,-0.007
1596.0,-0.0069
1595.0,-0.0068
1594.0,-0.0067
1593.0,-0.0066
1592.0,-0.0066
1591.0,-0.0065
1590.0,-0.0064
1589.0,-0.0063
1588.0,-0.0062
1587.0,-0.0062
1586.0,-0.0061
1585.0,-0.006
1584.0,-0.0059
1583.0,-0.0059
1582.0,-0.0057
1581.0,-0.0056
1580.0,-0.0056
1579.0,-0.0055
1578.0,-0.0055
1577.0,-0.0054
1576.0,-0.0053
1575.0,-0.0052
1574.0,-0.0052
1573.0,-0.0051
1572.0,-0.0052
1571.0,-0.0052
1570.0,-0.0052
1569.0,-0.0052
1568.0,-0.0051
1567.0,-0.0051
1566.0,-0.0051
1565.0,-0.005
1564.0,-0.0049
1563.0,-0.0049
1562.0,-0.0048
1561.0,-0.0048
1560.0,-0.0048
1559.0,-0.0047
1558.0,-0.0047
1557.0,-0.0045
1556.0,-0.0045
1555.0,-0.0045
1554.0,-0.0045
1553.0,-0.0046
1552.0,-0.0046
1551.0,-0.0046
1550.0,-0.0046
1549.0,-0.0045
1548.0,-0.0044
1547.0,-0.0044
1546.0,-0.0044
1545.0,-0.0043
1544.0,-0.0043
1543.0,-0.0042
1542.0,-0.0043
1541.0,-0.0042
1540.0,-0.0042
1539.0,-0.0043
1538.0,-0.0044
1537.0,-0.0043
1536.0,-0.0043
1535.0,-0.0044
1534.0,-0.0044
1533.0,-0.0044
1532.0,-0.0044
1531.0,-0.0044
1530.0,-0.0045
1529.0,-0.0045
1528.0,-0.0045
1527.0,-0.0045
1526.0,-0.0046
1525.0,-0.0046
1524.0,-0.0045
1523.0,-0.0045
1522.0,-0.0046
1521.0,-0.0046
1520.0,-0.0046
1519.0,-0.0046
1518.0,-0.0047
1517.0,-0.0047
1516.0,-0.0046
1515.0,-0.0047
1514.0,-0.0047
1513.0,-0.0048
1512.0,-0.0048
1511.0,-0.0049
1510.0,-0.005
1509.0,-0.005
1508.0,-0.005
1507.0,-0.0052
1506.0,-0.0053
1505.0,-0.0053
1504.0,-0.0052
1503.0,-0.0052
1502.0,-0.0053
1501.0,-0.0054
1500.0,-0.0054
1499.0,-0.0055
1498.0,-0.0057
1497.0,-0.0058
1496.0,-0.0058
1495.0,-0.0058
1494.0,-0.0058
1493.0,-0.0057
1492.0,-0.0057
1491.0,-0.0057
1490.0,-0.0059
1489.0,-0.0059
1488.0,-0.0057
1487.0,-0.0055
1486.0,-0.0054
1485.0,-0.0052
1484.0,-0.005
1483.0,-0.0048
1482.0,-0.0046
1481.0,-0.0042
1480.0,-0.0038
1479.0,-0.0033
1478.0,-0.0029
1477.0,-0.0022
1476.0,-0.0013
1475.0,-0.0004
1474.0,0.0009
1473.0,0.0033
1472.0,0.0063
1471.0,0.0089
1470.0,0.0114
1469.0,0.0141
1468.0,0.0173
1467.0,0.0214
1466.0,0.027
1465.0,0.0345
1464.0,0.042
1463.0,0.0481
1462.0,0.0531
1461.0,0.0578
1460.0,0.0626
1459.0,0.0682
1458.0,0.0762
1457.0,0.0853
1456.0,0.0908
1455.0,0.093
1454.0,0.0941
1453.0,0.0949
1452.0,0.0953
1451.0,0.0952
1450.0,0.0944
1449.0,0.0926
1448.0,0.0895
1447.0,0.0852
1446.0,0.0803
1445.0,0.0748
1444.0,0.0683
1443.0,0.0612
1442.0,0.0541
1441.0,0.0474
1440.0,0.0416
1439.0,0.0365
1438.0,0.0314
1437.0,0.0259
1436.0,0.0211
1435.0,0.0179
1434.0,0.0159
1433.0,0.0141
1432.0,0.0123
1431.0,0.0106
1430.0,0.0092
1429.0,0.0079
1428.0,0.0069
1427.0,0.0061
1426.0,0.0054
1425.0,0.0046
1424.0,0.0037
1423.0,0.0032
1422.0,0.0029
1421.0,0.0025
1420.0,0.002
1419.0,0.0016
1418.0,0.0012
1417.0,0.0008
1416.0,0.0004
1415.0,0.0003
1414.0,0.0001
1413.0,-0.0001
1412.0,-0.0002
1411.0,-0.0003
1410.0,-0.0003
1409.0,-0.0003
1408.0,-0.0003
1407.0,-0.0002
1406.0,0.0001
1405.0,0.0003
1404.0,0.0007
1403.0,0.0013
1402.0,0.0019
1401.0,0.0028
1400.0,0.0041
1399.0,0.006
1398.0,0.0081
1397.0,0.0105
1396.0,0.014
1395.0,0.0189
1394.0,0.0242
1393.0,0.0292
1392.0,0.0339
1391.0,0.0388
1390.0,0.0438
1389.0,0.0495
1388.0,0.0561
1387.0,0.063
1386.0,0.0687
1385.0,0.0727
1384.0,0.0756
1383.0,0.0776
1382.0,0.0783
1381.0,0.0776
1380.0,0.0755
1379.0,0.0723
1378.0,0.0684
1377.0,0.0645
1376.0,0.0612
1375.0,0.0592
1374.0,0.0588
1373.0,0.06
1372.0,0.0621
1371.0,0.0646
1370.0,0.0673
1369.0,0.0699
1368.0,0.0722
1367.0,0.0738
1366.0,0.0749
1365.0,0.0757
1364.0,0.0767
1363.0,0.0779
1362.0,0.0791
1361.0,0.0799
1360.0,0.0803
1359.0,0.0804
1358.0,0.0802
1357.0,0.0796
1356.0,0.0785
1355.0,0.0771
1354.0,0.0752
1353.0,0.0731
1352.0,0.0707
1351.0,0.0682
1350.0,0.0656
1349.0,0.063
1348.0,0.0604
1347.0,0.0581
1346.0,0.0558
1345.0,0.0536
1344.0,0.0516
1343.0,0.0498
1342.0,0.0481
1341.0,0.0465
1340.0,0.045
1339.0,0.0436
1338.0,0.0423
1337.0,0.0412
1336.0,0.0402
1335.0,0.0393
1334.0,0.0384
1333.0,0.0375
1332.0,0.0368
1331.0,0.0361
1330.0,0.0356
1329.0,0.0351
1328.0,0.0347
1327.0,0.0344
1326.0,0.0342
1325.0,0.0341
1324.0,0.034
1323.0,0.0339
1322.0,0.0339
1321.0,0.0338
1320.0,0.0338
1319.0,0.0338
1318.0,0.0337
1317.0,0.0336
1316.0,0.0336
1315.0,0.0335
1314.0,0.0335
1313.0,0.0335
1312.0,0.0336
1311.0,0.0337
1310.0,0.0338
1309.0,0.0339
1308.0,0.0339
1307.0,0.0339
1306.0,0.0339
1305.0,0.0338
1304.0,0.0337
1303.0,0.0336
1302.0,0.0333
1301.0,0.033
1300.0,0.0326
1299.0,0.032
1298.0,0.0312
1297.0,0.0303
1296.0,0.0291
1295.0,0.028
1294.0,0.0269
1293.0,0.0259
1292.0,0.0252
1291.0,0.0248
1290.0,0.025
1289.0,0.0257
1288.0,0.027
1287.0,0.0288
1286.0,0.0311
1285.0,0.0337
1284.0,0.0368
1283.0,0.0402
1282.0,0.0439
1281.0,0.0477
1280.0,0.0515
1279.0,0.0553
1278.0,0.059
1277.0,0.0626
1276.0,0.0659
1275.0,0.069
1274.0,0.0718
1273.0,0.0743
1272.0,0.0766
1271.0,0.0784
1270.0,0.0799
1269.0,0.081
1268.0,0.0817
1267.0,0.082
1266.0,0.082
1265.0,0.0816
1264.0,0.0809
1263.0,0.08
1262.0,0.0789
1261.0,0.0776
1260.0,0.0761
1259.0,0.0746
1258.0,0.0731
1257.0,0.0716
1256.0,0.0701
1255.0,0.0687
1254.0,0.0675
1253.0,0.0663
1252.0,0.0653
1251.0,0.0645
1250.0,0.0638
1249.0,0.0633
1248.0,0.0629
1247.0,0.0627
1246.0,0.0626
1245.0,0.0626
1244.0,0.0627
1243.0,0.0631
1242.0,0.0636
1241.0,0.0642
1240.0,0.065
1239.0,0.0659
1238.0,0.067
1237.0,0.0681
1236.0,0.0695
1235.0,0.071
1234.0,0.0728
1233.0,0.0748
1232.0,0.0771
1231.0,0.0798
1230.0,0.0827
1229.0,0.0859
1228.0,0.0894
1227.0,0.0931
1226.0,0.0972
1225.0,0.1014
1224.0,0.1059
1223.0,0.1107
1222.0,0.1156
1221.0,0.1207
1220.0,0.126
1219.0,0.1315
1218.0,0.137
1217.0,0.1424
1216.0,0.1476
1215.0,0.1526
1214.0,0.1574
1213.0,0.1617
1212.0,0.1656
1211.0,0.1689
1210.0,0.1717
1209.0,0.1739
1208.0,0.1757
1207.0,0.1773
1206.0,0.1786
1205.0,0.1798
1204.0,0.1811
1203.0,0.1824
1202.0,0.184
1201.0,0.1858
1200.0,0.1881
1199.0,0.191
1198.0,0.1945
1197.0,0.1987
1196.0,0.2038
1195.0,0.2098
1194.0,0.2167
1193.0,0.2247
1192.0,0.2339
1191.0,0.2445
1190.0,0.2565
1189.0,0.2697
1188.0,0.2843
1187.0,0.3
1186.0,0.3164
1185.0,0.3326
1184.0,0.3478
1183.0,0.3605
1182.0,0.369
1181.0,0.3715
1180.0,0.3668
1179.0,0.3547
1178.0,0.3359
1177.0,0.3121
1176.0,0.2856
1175.0,0.2585
1174.0,0.2324
1173.0,0.2083
1172.0,0.1868
1171.0,0.1677
1170.0,0.151
1169.0,0.1365
1168.0,0.124
1167.0,0.1132
1166.0,0.1039
1165.0,0.0957
1164.0,0.0887
1163.0,0.0825
1162.0,0.0772
1161.0,0.0725
1160.0,0.0684
1159.0,0.0649
1158.0,0.0619
1157.0,0.0593
1156.0,0.0573
1155.0,0.0558
1154.0,0.0548
1153.0,0.0544
1152.0,0.0547
1151.0,0.0556
1150.0,0.0575
1149.0,0.0603
1148.0,0.0642
1147.0,0.0693
1146.0,0.0756
1145.0,0.0832
1144.0,0.092
1143.0,0.102
1142.0,0.1129
1141.0,0.1245
1140.0,0.1365
1139.0,0.1487
1138.0,0.1607
1137.0,0.1724
1136.0,0.1833
1135.0,0.1935
1134.0,0.2027
1133.0,0.2109
1132.0,0.2183
1131.0,0.2248
1130.0,0.23
1129.0,0.2336
1128.0,0.2351
1127.0,0.2346
1126.0,0.2319
1125.0,0.2274
1124.0,0.2217
1123.0,0.2155
1122.0,0.2092
1121.0,0.2033
1120.0,0.1981
1119.0,0.1937
1118.0,0.1902
1117.0,0.1875
1116.0,0.1857
1115.0,0.1848
1114.0,0.185
1113.0,0.1864
1112.0,0.1892
1111.0,0.1935
1110.0,0.1991
1109.0,0.2062
1108.0,0.2145
1107.0,0.224
1106.0,0.2344
1105.0,0.2455
1104.0,0.2571
1103.0,0.269
1102.0,0.2814
1101.0,0.294
1100.0,0.3068
1099.0,0.3199
1098.0,0.3331
1097.0,0.3465
1096.0,0.3601
1095.0,0.3741
1094.0,0.3883
1093.0,0.4026
1092.0,0.417
1091.0,0.4318
1090.0,0.4465
1089.0,0.461
1088.0,0.4747
1087.0,0.4871
1086.0,0.4978
1085.0,0.506
1084.0,0.5116
1083.0,0.5143
1082.0,0.5141
1081.0,0.5109
1080.0,0.5047
1079.0,0.4959
1078.0,0.4847
1077.0,0.4716
1076.0,0.4566
1075.0,0.44
1074.0,0.4222
1073.0,0.4033
1072.0,0.3838
1071.0,0.3643
1070.0,0.3451
1069.0,0.3265
1068.0,0.3087
1067.0,0.2923
1066.0,0.2776
1065.0,0.2649
1064.0,0.2543
1063.0,0.2459
1062.0,0.2399
1061.0,0.2362
1060.0,0.2344
1059.0,0.2343
1058.0,0.2355
1057.0,0.2376
1056.0,0.2402
1055.0,0.2432
1054.0,0.2465
1053.0,0.2499
1052.0,0.2533
1051.0,0.257
1050.0,0.2608
1049.0,0.2646
1048.0,0.2683
1047.0,0.2717
1046.0,0.2744
1045.0,0.2763
1044.0,0.277
1043.0,0.2764
1042.0,0.2746
1041.0,0.2714
1040.0,0.2668
1039.0,0.2611
1038.0,0.2543
1037.0,0.2469
1036.0,0.239
1035.0,0.2311
1034.0,0.2233
1033.0,0.2161
1032.0,0.2095
1031.0,0.2037
1030.0,0.1986
1029.0,0.1943
1028.0,0.1903
1027.0,0.1866
1026.0,0.1828
1025.0,0.179
1024.0,0.1749
1023.0,0.1704
1022.0,0.1657
1021.0,0.1605
1020.0,0.1551
1019.0,0.1494
1018.0,0.1439
1017.0,0.1385
1016.0,0.1333
1015.0,0.1283
1014.0,0.1236
1013.0,0.1193
1012.0,0.1152
1011.0,0.1115
1010.0,0.108
1009.0,0.1048
1008.0,0.1019
1007.0,0.0992
1006.0,0.0968
1005.0,0.0946
1004.0,0.0926
1003.0,0.0907
1002.0,0.089
1001.0,0.0874
1000.0,0.0859
999.0,0.0845
998.0,0.0831
997.0,0.0819
996.0,0.0807
995.0,0.0794
994.0,0.0783
993.0,0.0771
992.0,0.0761
991.0,0.0753
990.0,0.0745
989.0,0.0737
988.0,0.073
987.0,0.0723
986.0,0.0716
985.0,0.071
984.0,0.0702
983.0,0.0692
982.0,0.0681
981.0,0.0671
980.0,0.0661
979.0,0.0651
978.0,0.0643
977.0,0.0635
976.0,0.0628
975.0,0.0622
974.0,0.0617
973.0,0.0612
972.0,0.0607
971.0,0.0602
970.0,0.0597
969.0,0.0593
968.0,0.059
967.0,0.0588
966.0,0.0588
965.0,0.0591
964.0,0.0598
963.0,0.0608
962.0,0.0622
961.0,0.0639
960.0,0.0656
959.0,0.0671
958.0,0.0683
957.0,0.0691
956.0,0.0695
955.0,0.0693
954.0,0.0688
953.0,0.068
952.0,0.0671
951.0,0.0661
950.0,0.0652
949.0,0.0643
948.0,0.0635
947.0,0.0626
946.0,0.0618
945.0,0.061
944.0,0.0602
943.0,0.0596
942.0,0.0591
941.0,0.0586
940.0,0.0581
939.0,0.0577
938.0,0.0573
937.0,0.057
936.0,0.0568
935.0,0.0567
934.0,0.0565
933.0,0.0563
932.0,0.0561
931.0,0.0559
930.0,0.0558
929.0,0.0557
928.0,0.0557
927.0,0.0556
926.0,0.0556
925.0,0.0556
924.0,0.0557
923.0,0.0558
922.0,0.0558
921.0,0.0559
920.0,0.056
919.0,0.056
918.0,0.0559
917.0,0.0558
916.0,0.0556
915.0,0.0555
914.0,0.0554
913.0,0.0552
912.0,0.055
911.0,0.0548
910.0,0.0547
909.0,0.0546
908.0,0.0545
907.0,0.0543
906.0,0.0542
905.0,0.0542
904.0,0.0543
903.0,0.0543
902.0,0.0544
901.0,0.0544
900.0,0.0545
899.0,0.0545
898.0,0.0546
897.0,0.0546
896.0,0.0546
895.0,0.0545
894.0,0.0543
893.0,0.0541
892.0,0.0536
891.0,0.053
890.0,0.0523
889.0,0.0516
888.0,0.0509
887.0,0.0504
886.0,0.0502
885.0,0.0504
884.0,0.0511
883.0,0.0522
882.0,0.0539
881.0,0.0563
880.0,0.0593
879.0,0.0627
878.0,0.0666
877.0,0.0708
876.0,0.0751
875.0,0.0794
874.0,0.0833
873.0,0.0868
872.0,0.0897
871.0,0.0919
870.0,0.0936
869.0,0.0947
868.0,0.0955
867.0,0.0958
866.0,0.0957
865.0,0.0952
864.0,0.0942
863.0,0.0928
862.0,0.091
861.0,0.0887
860.0,0.0858
859.0,0.0823
858.0,0.0785
857.0,0.0746
856.0,0.0709
855.0,0.0677
854.0,0.065
853.0,0.063
852.0,0.0615
851.0,0.0605
850.0,0.0599
849.0,0.0595
848.0,0.059
847.0,0.0582
846.0,0.0572
845.0,0.056
844.0,0.0546
843.0,0.0532
842.0,0.0517
841.0,0.0503
840.0,0.0491
839.0,0.048
838.0,0.0471
837.0,0.0463
836.0,0.0457
835.0,0.045
834.0,0.0443
833.0,0.0437
832.0,0.0431
831.0,0.0427
830.0,0.0423
829.0,0.042
828.0,0.0417
827.0,0.0414
826.0,0.0411
825.0,0.0408
824.0,0.0405
823.0,0.0402
822.0,0.0398
821.0,0.0395
820.0,0.0392
819.0,0.039
818.0,0.0388
817.0,0.0386
816.0,0.0385
815.0,0.0383
814.0,0.038
813.0,0.0377
812.0,0.0374
811.0,0.0371
810.0,0.037
809.0,0.0369
808.0,0.037
807.0,0.037
806.0,0.037
805.0,0.0368
804.0,0.0366
803.0,0.0362
802.0,0.0359
801.0,0.0357
800.0,0.0356
799.0,0.0356
798.0,0.0357
797.0,0.0357
796.0,0.0357
795.0,0.0357
794.0,0.0358
793.0,0.0359
792.0,0.0361
791.0,0.0364
790.0,0.0369
789.0,0.0376
788.0,0.0384
787.0,0.0392
786.0,0.0399
785.0,0.0407
784.0,0.0415
783.0,0.0425
782.0,0.0435
781.0,0.0445
780.0,0.0454
779.0,0.0463
778.0,0.0472
777.0,0.0481
776.0,0.0492
775.0,0.0503
774.0,0.0515
773.0,0.0529
772.0,0.0545
771.0,0.0561
770.0,0.0579
769.0,0.0598
768.0,0.0618
767.0,0.0639
766.0,0.0661
765.0,0.0686
764.0,0.0713
763.0,0.0742
762.0,0.0771
761.0,0.0802
760.0,0.0833
759.0,0.0862
758.0,0.0889
757.0,0.0911
756.0,0.0926
755.0,0.0935
754.0,0.0936
753.0,0.0932
752.0,0.0925
751.0,0.0917
750.0,0.0907
749.0,0.0897
748.0,0.0887
747.0,0.0876
746.0,0.0865
745.0,0.0853
744.0,0.0843
743.0,0.0832
742.0,0.0821
741.0,0.0809
740.0,0.0797
739.0,0.0781
738.0,0.0762
737.0,0.074
736.0,0.0714
735.0,0.0685
734.0,0.0654
733.0,0.0623
732.0,0.0593
731.0,0.0565
730.0,0.0541
729.0,0.0523
728.0,0.0512
727.0,0.0505
726.0,0.0503
725.0,0.0505
724.0,0.0509
723.0,0.0516
722.0,0.0525
721.0,0.0537
720.0,0.0555
719.0,0.0576
718.0,0.0594
717.0,0.0608
716.0,0.0623
715.0,0.0638
714.0,0.0652
713.0,0.0664
712.0,0.0672
711.0,0.0677
710.0,0.0683
709.0,0.0689
708.0,0.0697
707.0,0.0702
706.0,0.0705
705.0,0.0707
704.0,0.0709
703.0,0.0711
702.0,0.0711
701.0,0.071
700.0,0.0709
699.0,0.0709
698.0,0.0709
697.0,0.0707
696.0,0.0704
695.0,0.0701
694.0,0.0699
693.0,0.0697
692.0,0.0696
691.0,0.0694
690.0,0.069
689.0,0.0686
688.0,0.0683
687.0,0.068
686.0,0.0677
685.0,0.0674
684.0,0.0672
683.0,0.0671
682.0,0.0671
681.0,0.0672
680.0,0.0676
679.0,0.0679
678.0,0.0678
677.0,0.0675
676.0,0.0675
675.0,0.0679
674.0,0.0684
673.0,0.0683
672.0,0.0678
671.0,0.0674
670.0,0.0676
669.0,0.068
668.0,0.0685
667.0,0.0687
666.0,0.0681
665.0,0.067
664.0,0.0663
663.0,0.0663
662.0,0.0666
661.0,0.0667
660.0,0.0666
659.0,0.0664
658.0,0.0665
657.0,0.0668
656.0,0.0669
655.0,0.0666
654.0,0.0657
653.0,0.0645
652.0,0.0634
651.0,0.0627
650.0,0.0626
649.0,0.0629
648.0,0.0636
647.0,0.0642
646.0,0.0642
645.0,0.0637
644.0,0.063
643.0,0.0623
642.0,0.0618
641.0,0.0619
640.0,0.0627
639.0,0.064
638.0,0.0656
637.0,0.0672
636.0,0.0688
635.0,0.0702
634.0,0.0707
633.0,0.0698
632.0,0.0678
631.0,0.0656
630.0,0.0637
629.0,0.0622
628.0,0.0613
627.0,0.0604
626.0,0.059
625.0,0.0571
624.0,0.0553
623.0,0.0542
622.0,0.0538
621.0,0.0537
620.0,0.0538
619.0,0.0539
618.0,0.0535
617.0,0.0523
616.0,0.051
615.0,0.05
614.0,0.0499
613.0,0.0499
612.0,0.0496
611.0,0.049
610.0,0.0481
609.0,0.0475
608.0,0.0471
607.0,0.0471
606.0,0.0476
605.0,0.0482
604.0,0.0488
603.0,0.0489
602.0,0.0481
601.0,0.0468
600.0,0.0454
