cm-1,A
4000.0,-0.0039
3999.0,-0.004
3998.0,-0.0041
3997.0,-0.0041
3996.0,-0.0041
3995.0,-0.0041
3994.0,-0.0041
3993.0,-0.004
3992.0,-0.004
3991.0,-0.0039
3990.0,-0.004
3989.0,-0.004
3988.0,-0.004
3987.0,-0.004
3986.0,-0.004
3985.0,-0.004
3984.0,-0.004
3983.0,-0.0041
3982.0,-0.0041
3981.0,-0.0041
3980.0,-0.0041
3979.0,-0.004
3978.0,-0.004
3977.0,-0.0039
3976.0,-0.0039
3975.0,-0.0039
3974.0,-0.0039
3973.0,-0.004
3972.0,-0.0039
3971.0,-0.0039
3970.0,-0.0038
3969.0,-0.0038
3968.0,-0.0038
3967.0,-0.0039
3966.0,-0.004
3965.0,-0.004
3964.0,-0.0041
3963.0,-0.0041
3962.0,-0.0041
3961.0,-0.0041
3960.0,-0.0041
3959.0,-0.0041
3958.0,-0.004
3957.0,-0.004
3956.0,-0.004
3955.0,-0.004
3954.0,-0.0041
3953.0,-0.0041
3952.0,-0.0042
3951.0,-0.0042
3950.0,-0.0042
3949.0,-0.0042
3948.0,-0.0041
3947.0,-0.0041
3946.0,-0.004
3945.0,-0.004
3944.0,-0.004
3943.0,-0.0041
3942.0,-0.0041
3941.0,-0.0041
3940.0,-0.0041
3939.0,-0.0041
3938.0,-0.0041
3937.0,-0.0041
3936.0,-0.0041
3935.0,-0.0041
3934.0,-0.0041
3933.0,-0.0041
3932.0,-0.004
3931.0,-0.004
3930.0,-0.004
3929.0,-0.004
3928.0,-0.004
3927.0,-0.004
3926.0,-0.004
3925.0,-0.004
3924.0,-0.0041
3923.0,-0.0041
3922.0,-0.0042
3921.0,-0.0042
3920.0,-0.0042
3919.0,-0.0041
3918.0,-0.004
3917.0,-0.0039
3916.0,-0.0039
3915.0,-0.0038
3914.0,-0.0037
3913.0,-0.0037
3912.0,-0.0037
3911.0,-0.0038
3910.0,-0.0038
3909.0,-0.0039
3908.0,-0.004
3907.0,-0.0041
3906.0,-0.0042
3905.0,-0.0041
3904.0,-0.0041
3903.0,-0.0039
3902.0,-0.0037
3901.0,-0.0036
3900.0,-0.0036
3899.0,-0.0037
3898.0,-0.0038
3897.0,-0.0038
3896.0,-0.0038
3895.0,-0.0038
3894.0,-0.0038
3893.0,-0.0038
3892.0,-0.0038
3891.0,-0.0038
3890.0,-0.0038
3889.0,-0.0037
3888.0,-0.0036
3887.0,-0.0035
3886.0,-0.0035
3885.0,-0.0037
3884.0,-0.0037
3883.0,-0.0038
3882.0,-0.0038
3881.0,-0.0039
3880.0,-0.004
3879.0,-0.004
3878.0,-0.0038
3877.0,-0.0037
3876.0,-0.0036
3875.0,-0.0037
3874.0,-0.0038
3873.0,-0.0039
3872.0,-0.0039
3871.0,-0.0039
3870.0,-0.004
3869.0,-0.0041
3868.0,-0.004
3867.0,-0.0039
3866.0,-0.0038
3865.0,-0.0039
3864.0,-0.0039
3863.0,-0.0039
3862.0,-0.0039
3861.0,-0.0038
3860.0,-0.0038
3859.0,-0.0038
3858.0,-0.0038
3857.0,-0.0038
3856.0,-0.0036
3855.0,-0.0034
3854.0,-0.0033
3853.0,-0.0036
3852.0,-0.0037
3851.0,-0.0037
3850.0,-0.0036
3849.0,-0.0037
3848.0,-0.0038
3847.0,-0.0038
3846.0,-0.0038
3845.0,-0.0038
3844.0,-0.0038
3843.0,-0.0039
3842.0,-0.004
3841.0,-0.0041
3840.0,-0.0041
3839.0,-0.004
3838.0,-0.004
3837.0,-0.004
3836.0,-0.004
3835.0,-0.0039
3834.0,-0.0038
3833.0,-0.0038
3832.0,-0.0038
3831.0,-0.0039
3830.0,-0.0039
3829.0,-0.0039
3828.0,-0.0039
3827.0,-0.004
3826.0,-0.0041
3825.0,-0.0041
3824.0,-0.0039
3823.0,-0.0038
3822.0,-0.0037
3821.0,-0.0038
3820.0,-0.0039
3819.0,-0.0039
3818.0,-0.0037
3817.0,-0.0037
3816.0,-0.0039
3815.0,-0.004
3814.0,-0.0039
3813.0,-0.0037
3812.0,-0.0037
3811.0,-0.0037
3810.0,-0.0037
3809.0,-0.0036
3808.0,-0.0036
3807.0,-0.0037
3806.0,-0.0038
3805.0,-0.0039
3804.0,-0.0038
3803.0,-0.0037
3802.0,-0.0036
3801.0,-0.0037
3800.0,-0.0037
3799.0,-0.0036
3798.0,-0.0035
3797.0,-0.0036
3796.0,-0.0037
3795.0,-0.0038
3794.0,-0.0037
3793.0,-0.0037
3792.0,-0.0037
3791.0,-0.0037
3790.0,-0.0037
3789.0,-0.0037
3788.0,-0.0037
3787.0,-0.0036
3786.0,-0.0036
3785.0,-0.0037
3784.0,-0.0037
3783.0,-0.0038
3782.0,-0.0037
3781.0,-0.0036
3780.0,-0.0036
3779.0,-0.0036
3778.0,-0.0037
3777.0,-0.0036
3776.0,-0.0036
3775.0,-0.0036
3774.0,-0.0036
3773.0,-0.0036
3772.0,-0.0036
3771.0,-0.0035
3770.0,-0.0035
3769.0,-0.0035
3768.0,-0.0035
3767.0,-0.0034
3766.0,-0.0034
3765.0,-0.0034
3764.0,-0.0035
3763.0,-0.0035
3762.0,-0.0035
3761.0,-0.0035
3760.0,-0.0035
3759.0,-0.0035
3758.0,-0.0035
3757.0,-0.0035
3756.0,-0.0035
3755.0,-0.0036
3754.0,-0.0037
3753.0,-0.0038
3752.0,-0.0038
3751.0,-0.0037
3750.0,-0.0037
3749.0,-0.0037
3748.0,-0.0037
3747.0,-0.0037
3746.0,-0.0037
3745.0,-0.0039
3744.0,-0.004
3743.0,-0.004
3742.0,-0.0039
3741.0,-0.004
3740.0,-0.0044
3739.0,-0.0047
3738.0,-0.0048
3737.0,-0.0048
3736.0,-0.0047
3735.0,-0.0046
3734.0,-0.0047
3733.0,-0.0049
3732.0,-0.0051
3731.0,-0.0053
3730.0,-0.0053
3729.0,-0.0053
3728.0,-0.0053
3727.0,-0.0053
3726.0,-0.0052
3725.0,-0.0052
3724.0,-0.0052
3723.0,-0.0052
3722.0,-0.0051
3721.0,-0.0049
3720.0,-0.0048
3719.0,-0.0046
3718.0,-0.0045
3717.0,-0.0044
3716.0,-0.0043
3715.0,-0.0041
3714.0,-0.004
3713.0,-0.0039
3712.0,-0.0041
3711.0,-0.0043
3710.0,-0.0046
3709.0,-0.0047
3708.0,-0.0047
3707.0,-0.0048
3706.0,-0.0048
3705.0,-0.0048
3704.0,-0.0048
3703.0,-0.0048
3702.0,-0.0048
3701.0,-0.0048
3700.0,-0.0047
3699.0,-0.0045
3698.0,-0.0044
3697.0,-0.0043
3696.0,-0.0043
3695.0,-0.0043
3694.0,-0.0043
3693.0,-0.0042
3692.0,-0.0041
3691.0,-0.004
3690.0,-0.004
3689.0,-0.0041
3688.0,-0.0041
3687.0,-0.0039
3686.0,-0.0037
3685.0,-0.0035
3684.0,-0.0034
3683.0,-0.0034
3682.0,-0.0033
3681.0,-0.0033
3680.0,-0.0033
3679.0,-0.0033
3678.0,-0.0033
3677.0,-0.0031
3676.0,-0.0029
3675.0,-0.003
3674.0,-0.0029
3673.0,-0.0026
3672.0,-0.0023
3671.0,-0.0023
3670.0,-0.0023
3669.0,-0.0023
3668.0,-0.0022
3667.0,-0.002
3666.0,-0.0019
3665.0,-0.0019
3664.0,-0.0019
3663.0,-0.0019
3662.0,-0.0019
3661.0,-0.0019
3660.0,-0.0019
3659.0,-0.0019
3658.0,-0.0018
3657.0,-0.0017
3656.0,-0.0016
3655.0,-0.0016
3654.0,-0.0016
3653.0,-0.0017
3652.0,-0.0017
3651.0,-0.0017
3650.0,-0.0017
3649.0,-0.0018
3648.0,-0.002
3647.0,-0.002
3646.0,-0.0019
3645.0,-0.0017
3644.0,-0.0016
3643.0,-0.0016
3642.0,-0.0017
3641.0,-0.0018
3640.0,-0.002
3639.0,-0.0023
3638.0,-0.0025
3637.0,-0.0027
3636.0,-0.0028
3635.0,-0.0028
3634.0,-0.0029
3633.0,-0.0029
3632.0,-0.003
3631.0,-0.003
3630.0,-0.003
3629.0,-0.0032
3628.0,-0.0033
3627.0,-0.0033
3626.0,-0.0032
3625.0,-0.0033
3624.0,-0.0033
3623.0,-0.0034
3622.0,-0.0033
3621.0,-0.0032
3620.0,-0.0031
3619.0,-0.003
3618.0,-0.0029
3617.0,-0.0028
3616.0,-0.0026
3615.0,-0.0024
3614.0,-0.0023
3613.0,-0.0024
3612.0,-0.0024
3611.0,-0.0024
3610.0,-0.0024
3609.0,-0.0024
3608.0,-0.0025
3607.0,-0.0027
3606.0,-0.0028
3605.0,-0.0029
3604.0,-0.003
3603.0,-0.0031
3602.0,-0.0031
3601.0,-0.003
3600.0,-0.003
3599.0,-0.003
3598.0,-0.0031
3597.0,-0.0031
3596.0,-0.003
3595.0,-0.0028
3594.0,-0.0027
3593.0,-0.0026
3592.0,-0.0025
3591.0,-0.0025
3590.0,-0.0024
3589.0,-0.0022
3588.0,-0.0021
3587.0,-0.0021
3586.0,-0.0021
3585.0,-0.002
3584.0,-0.0019
3583.0,-0.0019
3582.0,-0.0018
3581.0,-0.0018
3580.0,-0.0017
3579.0,-0.0016
3578.0,-0.0015
3577.0,-0.0014
3576.0,-0.0012
3575.0,-0.0011
3574.0,-0.0011
3573.0,-0.0011
3572.0,-0.0012
3571.0,-0.0013
3570.0,-0.0014
3569.0,-0.0013
3568.0,-0.0011
3567.0,-0.001
3566.0,-0.0011
3565.0,-0.0012
3564.0,-0.0012
3563.0,-0.0013
3562.0,-0.0013
3561.0,-0.0012
3560.0,-0.001
3559.0,-0.0009
3558.0,-0.0008
3557.0,-0.0008
3556.0,-0.0007
3555.0,-0.0007
3554.0,-0.0008
3553.0,-0.0008
3552.0,-0.0008
3551.0,-0.0008
3550.0,-0.0007
3549.0,-0.0007
3548.0,-0.0007
3547.0,-0.0007
3546.0,-0.0007
3545.0,-0.0008
3544.0,-0.0008
3543.0,-0.0008
3542.0,-0.0008
3541.0,-0.0007
3540.0,-0.0006
3539.0,-0.0005
3538.0,-0.0004
3537.0,-0.0004
3536.0,-0.0004
3535.0,-0.0003
3534.0,-0.0003
3533.0,-0.0002
3532.0,-0.0002
3531.0,-0.0002
3530.0,-0.0001
3529.0,-0.0001
3528.0,-0.0
3527.0,0.0001
3526.0,0.0001
3525.0,0.0002
3524.0,0.0003
3523.0,0.0004
3522.0,0.0005
3521.0,0.0006
3520.0,0.0008
3519.0,0.0009
3518.0,0.0009
3517.0,0.0009
3516.0,0.0008
3515.0,0.0008
3514.0,0.0009
3513.0,0.0011
3512.0,0.0013
3511.0,0.0015
3510.0,0.0017
3509.0,0.0018
3508.0,0.0017
3507.0,0.0017
3506.0,0.0017
3505.0,0.0017
3504.0,0.0017
3503.0,0.0016
3502.0,0.0016
3501.0,0.0016
3500.0,0.0017
3499.0,0.0018
3498.0,0.0018
3497.0,0.0018
3496.0,0.0017
3495.0,0.0015
3494.0,0.0015
3493.0,0.0014
3492.0,0.0014
3491.0,0.0014
3490.0,0.0013
3489.0,0.0012
3488.0,0.0011
3487.0,0.0009
3486.0,0.0008
3485.0,0.0007
3484.0,0.0007
3483.0,0.0006
3482.0,0.0006
3481.0,0.0005
3480.0,0.0005
3479.0,0.0005
3478.0,0.0005
3477.0,0.0005
3476.0,0.0005
3475.0,0.0004
3474.0,0.0003
3473.0,0.0002
3472.0,0.0001
3471.0,0.0001
3470.0,0.0001
3469.0,0.0001
3468.0,0.0002
3467.0,0.0002
3466.0,0.0002
3465.0,0.0001
3464.0,0.0
3463.0,-0.0
3462.0,-0.0001
3461.0,-0.0001
3460.0,-0.0001
3459.0,-0.0001
3458.0,-0.0001
3457.0,-0.0002
3456.0,-0.0002
3455.0,-0.0002
3454.0,-0.0002
3453.0,-0.0002
3452.0,-0.0003
3451.0,-0.0003
3450.0,-0.0004
3449.0,-0.0004
3448.0,-0.0003
3447.0,-0.0003
3446.0,-0.0003
3445.0,-0.0002
3444.0,-0.0002
3443.0,-0.0003
3442.0,-0.0003
3441.0,-0.0004
3440.0,-0.0004
3439.0,-0.0003
3438.0,-0.0002
3437.0,-0.0002
3436.0,-0.0002
3435.0,-0.0002
3434.0,-0.0003
3433.0,-0.0003
3432.0,-0.0004
3431.0,-0.0004
3430.0,-0.0004
3429.0,-0.0004
3428.0,-0.0004
3427.0,-0.0004
3426.0,-0.0004
3425.0,-0.0004
3424.0,-0.0004
3423.0,-0.0004
3422.0,-0.0004
3421.0,-0.0003
3420.0,-0.0003
3419.0,-0.0004
3418.0,-0.0005
3417.0,-0.0005
3416.0,-0.0005
3415.0,-0.0004
3414.0,-0.0003
3413.0,-0.0003
3412.0,-0.0003
3411.0,-0.0004
3410.0,-0.0003
3409.0,-0.0003
3408.0,-0.0002
3407.0,-0.0001
3406.0,-0.0001
3405.0,-0.0001
3404.0,-0.0002
3403.0,-0.0002
3402.0,-0.0003
3401.0,-0.0003
3400.0,-0.0004
3399.0,-0.0004
3398.0,-0.0004
3397.0,-0.0004
3396.0,-0.0003
3395.0,-0.0002
3394.0,-0.0002
3393.0,-0.0001
3392.0,-0.0001
3391.0,-0.0001
3390.0,-0.0001
3389.0,-0.0001
3388.0,-0.0002
3387.0,-0.0002
3386.0,-0.0002
3385.0,-0.0002
3384.0,-0.0002
3383.0,-0.0002
3382.0,-0.0002
3381.0,-0.0002
3380.0,-0.0003
3379.0,-0.0004
3378.0,-0.0004
3377.0,-0.0005
3376.0,-0.0004
3375.0,-0.0003
3374.0,-0.0002
3373.0,-0.0002
3372.0,-0.0003
3371.0,-0.0004
3370.0,-0.0004
3369.0,-0.0004
3368.0,-0.0004
3367.0,-0.0003
3366.0,-0.0003
3365.0,-0.0003
3364.0,-0.0002
3363.0,-0.0002
3362.0,-0.0002
3361.0,-0.0002
3360.0,-0.0002
3359.0,-0.0003
3358.0,-0.0003
3357.0,-0.0004
3356.0,-0.0004
3355.0,-0.0004
3354.0,-0.0004
3353.0,-0.0003
3352.0,-0.0003
3351.0,-0.0003
3350.0,-0.0002
3349.0,-0.0002
3348.0,-0.0002
3347.0,-0.0002
3346.0,-0.0002
3345.0,-0.0002
3344.0,-0.0003
3343.0,-0.0003
3342.0,-0.0004
3341.0,-0.0004
3340.0,-0.0004
3339.0,-0.0004
3338.0,-0.0005
3337.0,-0.0005
3336.0,-0.0006
3335.0,-0.0006
3334.0,-0.0006
3333.0,-0.0006
3332.0,-0.0006
3331.0,-0.0005
3330.0,-0.0004
3329.0,-0.0004
3328.0,-0.0005
3327.0,-0.0005
3326.0,-0.0005
3325.0,-0.0004
3324.0,-0.0003
3323.0,-0.0003
3322.0,-0.0003
3321.0,-0.0004
3320.0,-0.0005
3319.0,-0.0005
3318.0,-0.0004
3317.0,-0.0003
3316.0,-0.0003
3315.0,-0.0002
3314.0,-0.0003
3313.0,-0.0004
3312.0,-0.0005
3311.0,-0.0005
3310.0,-0.0006
3309.0,-0.0006
3308.0,-0.0005
3307.0,-0.0005
3306.0,-0.0005
3305.0,-0.0006
3304.0,-0.0006
3303.0,-0.0005
3302.0,-0.0005
3301.0,-0.0005
3300.0,-0.0005
3299.0,-0.0005
3298.0,-0.0005
3297.0,-0.0005
3296.0,-0.0005
3295.0,-0.0005
3294.0,-0.0004
3293.0,-0.0003
3292.0,-0.0002
3291.0,-0.0002
3290.0,-0.0002
3289.0,-0.0002
3288.0,-0.0003
3287.0,-0.0003
3286.0,-0.0004
3285.0,-0.0004
3284.0,-0.0005
3283.0,-0.0005
3282.0,-0.0005
3281.0,-0.0005
3280.0,-0.0004
3279.0,-0.0004
3278.0,-0.0005
3277.0,-0.0006
3276.0,-0.0006
3275.0,-0.0006
3274.0,-0.0006
3273.0,-0.0006
3272.0,-0.0007
3271.0,-0.0007
3270.0,-0.0007
3269.0,-0.0006
3268.0,-0.0005
3267.0,-0.0005
3266.0,-0.0005
3265.0,-0.0004
3264.0,-0.0004
3263.0,-0.0004
3262.0,-0.0005
3261.0,-0.0006
3260.0,-0.0007
3259.0,-0.0007
3258.0,-0.0007
3257.0,-0.0006
3256.0,-0.0005
3255.0,-0.0005
3254.0,-0.0005
3253.0,-0.0006
3252.0,-0.0007
3251.0,-0.0007
3250.0,-0.0008
3249.0,-0.0008
3248.0,-0.0008
3247.0,-0.0007
3246.0,-0.0007
3245.0,-0.0007
3244.0,-0.0006
3243.0,-0.0006
3242.0,-0.0006
3241.0,-0.0007
3240.0,-0.0008
3239.0,-0.0009
3238.0,-0.0009
3237.0,-0.0009
3236.0,-0.0008
3235.0,-0.0007
3234.0,-0.0005
3233.0,-0.0004
3232.0,-0.0004
3231.0,-0.0004
3230.0,-0.0004
3229.0,-0.0005
3228.0,-0.0007
3227.0,-0.0008
3226.0,-0.0009
3225.0,-0.0009
3224.0,-0.0008
3223.0,-0.0007
3222.0,-0.0006
3221.0,-0.0007
3220.0,-0.0007
3219.0,-0.0007
3218.0,-0.0007
3217.0,-0.0007
3216.0,-0.0006
3215.0,-0.0007
3214.0,-0.0008
3213.0,-0.001
3212.0,-0.0011
3211.0,-0.0011
3210.0,-0.001
3209.0,-0.0009
3208.0,-0.0007
3207.0,-0.0006
3206.0,-0.0006
3205.0,-0.0007
3204.0,-0.0008
3203.0,-0.001
3202.0,-0.0011
3201.0,-0.0011
3200.0,-0.001
3199.0,-0.001
3198.0,-0.0011
3197.0,-0.0011
3196.0,-0.0012
3195.0,-0.0011
3194.0,-0.0011
3193.0,-0.001
3192.0,-0.001
3191.0,-0.0011
3190.0,-0.0011
3189.0,-0.0011
3188.0,-0.0011
3187.0,-0.0011
3186.0,-0.0011
3185.0,-0.0011
3184.0,-0.0011
3183.0,-0.0012
3182.0,-0.0011
3181.0,-0.0011
3180.0,-0.0011
3179.0,-0.001
3178.0,-0.0009
3177.0,-0.0009
3176.0,-0.0009
3175.0,-0.0009
3174.0,-0.0009
3173.0,-0.0009
3172.0,-0.0008
3171.0,-0.0008
3170.0,-0.0008
3169.0,-0.0008
3168.0,-0.0009
3167.0,-0.0009
3166.0,-0.001
3165.0,-0.001
3164.0,-0.0011
3163.0,-0.0011
3162.0,-0.0011
3161.0,-0.0011
3160.0,-0.0011
3159.0,-0.0011
3158.0,-0.0011
3157.0,-0.0012
3156.0,-0.0012
3155.0,-0.0012
3154.0,-0.0012
3153.0,-0.0012
3152.0,-0.0013
3151.0,-0.0013
3150.0,-0.0014
3149.0,-0.0013
3148.0,-0.0013
3147.0,-0.0012
3146.0,-0.0012
3145.0,-0.0011
3144.0,-0.0012
3143.0,-0.0012
3142.0,-0.0012
3141.0,-0.0012
3140.0,-0.0012
3139.0,-0.0012
3138.0,-0.0012
3137.0,-0.0013
3136.0,-0.0013
3135.0,-0.0014
3134.0,-0.0014
3133.0,-0.0014
3132.0,-0.0014
3131.0,-0.0015
3130.0,-0.0015
3129.0,-0.0015
3128.0,-0.0015
3127.0,-0.0014
3126.0,-0.0014
3125.0,-0.0014
3124.0,-0.0015
3123.0,-0.0015
3122.0,-0.0016
3121.0,-0.0016
3120.0,-0.0015
3119.0,-0.0014
3118.0,-0.0014
3117.0,-0.0014
3116.0,-0.0015
3115.0,-0.0015
3114.0,-0.0015
3113.0,-0.0015
3112.0,-0.0015
3111.0,-0.0015
3110.0,-0.0015
3109.0,-0.0015
3108.0,-0.0016
3107.0,-0.0016
3106.0,-0.0017
3105.0,-0.0016
3104.0,-0.0015
3103.0,-0.0014
3102.0,-0.0014
3101.0,-0.0014
3100.0,-0.0015
3099.0,-0.0015
3098.0,-0.0015
3097.0,-0.0015
3096.0,-0.0014
3095.0,-0.0014
3094.0,-0.0015
3093.0,-0.0015
3092.0,-0.0016
3091.0,-0.0017
3090.0,-0.0017
3089.0,-0.0016
3088.0,-0.0016
3087.0,-0.0016
3086.0,-0.0016
3085.0,-0.0016
3084.0,-0.0016
3083.0,-0.0016
3082.0,-0.0016
3081.0,-0.0016
3080.0,-0.0015
3079.0,-0.0016
3078.0,-0.0016
3077.0,-0.0016
3076.0,-0.0017
3075.0,-0.0017
3074.0,-0.0016
3073.0,-0.0017
3072.0,-0.0017
3071.0,-0.0017
3070.0,-0.0017
3069.0,-0.0016
3068.0,-0.0016
3067.0,-0.0016
3066.0,-0.0015
3065.0,-0.0015
3064.0,-0.0015
3063.0,-0.0015
3062.0,-0.0015
3061.0,-0.0015
3060.0,-0.0015
3059.0,-0.0015
3058.0,-0.0015
3057.0,-0.0016
3056.0,-0.0016
3055.0,-0.0016
3054.0,-0.0016
3053.0,-0.0016
3052.0,-0.0016
3051.0,-0.0016
3050.0,-0.0016
3049.0,-0.0015
3048.0,-0.0015
3047.0,-0.0016
3046.0,-0.0017
3045.0,-0.0018
3044.0,-0.0019
3043.0,-0.0018
3042.0,-0.0018
3041.0,-0.0017
3040.0,-0.0016
3039.0,-0.0016
3038.0,-0.0015
3037.0,-0.0015
3036.0,-0.0015
3035.0,-0.0015
3034.0,-0.0014
3033.0,-0.0014
3032.0,-0.0013
3031.0,-0.0011
3030.0,-0.001
3029.0,-0.0008
3028.0,-0.0007
3027.0,-0.0006
3026.0,-0.0004
3025.0,-0.0002
3024.0,0.0001
3023.0,0.0004
3022.0,0.0008
3021.0,0.0011
3020.0,0.0015
3019.0,0.002
3018.0,0.0025
3017.0,0.003
3016.0,0.0036
3015.0,0.0042
3014.0,0.0048
3013.0,0.0055
3012.0,0.0063
3011.0,0.0072
3010.0,0.0081
3009.0,0.0091
3008.0,0.0101
3007.0,0.0111
3006.0,0.0122
3005.0,0.0133
3004.0,0.0144
3003.0,0.0155
3002.0,0.0165
3001.0,0.0176
3000.0,0.0186
2999.0,0.0195
2998.0,0.0203
2997.0,0.0208
2996.0,0.021
2995.0,0.0208
2994.0,0.0203
2993.0,0.0196
2992.0,0.0187
2991.0,0.0176
2990.0,0.0164
2989.0,0.0151
2988.0,0.0138
2987.0,0.0126
2986.0,0.0115
2985.0,0.0106
2984.0,0.0098
2983.0,0.009
2982.0,0.0084
2981.0,0.0079
2980.0,0.0075
2979.0,0.0072
2978.0,0.0068
2977.0,0.0066
2976.0,0.0064
2975.0,0.0063
2974.0,0.0063
2973.0,0.0063
2972.0,0.0064
2971.0,0.0064
2970.0,0.0064
2969.0,0.0065
2968.0,0.0066
2967.0,0.0067
2966.0,0.0069
2965.0,0.0071
2964.0,0.0072
2963.0,0.0074
2962.0,0.0076
2961.0,0.0079
2960.0,0.0083
2959.0,0.0086
2958.0,0.009
2957.0,0.0094
2956.0,0.0099
2955.0,0.0105
2954.0,0.0111
2953.0,0.0118
2952.0,0.0126
2951.0,0.0135
2950.0,0.0143
2949.0,0.0152
2948.0,0.0159
2947.0,0.0163
2946.0,0.0165
2945.0,0.0164
2944.0,0.0161
2943.0,0.0155
2942.0,0.0147
2941.0,0.0138
2940.0,0.0128
2939.0,0.0118
2938.0,0.0107
2937.0,0.0098
2936.0,0.009
2935.0,0.0082
2934.0,0.0076
2933.0,0.0071
2932.0,0.0067
2931.0,0.0063
2930.0,0.006
2929.0,0.0056
2928.0,0.0053
2927.0,0.005
2926.0,0.0047
2925.0,0.0044
2924.0,0.0042
2923.0,0.004
2922.0,0.0038
2921.0,0.0037
2920.0,0.0035
2919.0,0.0034
2918.0,0.0032
2917.0,0.0032
2916.0,0.0031
2915.0,0.003
2914.0,0.0029
2913.0,0.0028
2912.0,0.0028
2911.0,0.0027
2910.0,0.0026
2909.0,0.0026
2908.0,0.0026
2907.0,0.0026
2906.0,0.0026
2905.0,0.0025
2904.0,0.0025
2903.0,0.0025
2902.0,0.0024
2901.0,0.0024
2900.0,0.0025
2899.0,0.0025
2898.0,0.0024
2897.0,0.0023
2896.0,0.0023
2895.0,0.0023
2894.0,0.0023
2893.0,0.0023
2892.0,0.0023
2891.0,0.0023
2890.0,0.0024
2889.0,0.0026
2888.0,0.0028
2887.0,0.003
2886.0,0.0031
2885.0,0.0033
2884.0,0.0035
2883.0,0.0036
2882.0,0.0037
2881.0,0.0038
2880.0,0.0037
2879.0,0.0036
2878.0,0.0034
2877.0,0.0031
2876.0,0.0029
2875.0,0.0026
2874.0,0.0023
2873.0,0.002
2872.0,0.0017
2871.0,0.0014
2870.0,0.0012
2869.0,0.001
2868.0,0.0009
2867.0,0.0007
2866.0,0.0006
2865.0,0.0005
2864.0,0.0004
2863.0,0.0004
2862.0,0.0003
2861.0,0.0003
2860.0,0.0003
2859.0,0.0002
2858.0,0.0001
2857.0,0.0001
2856.0,0.0001
2855.0,0.0001
2854.0,0.0
2853.0,-0.0
2852.0,-0.0001
2851.0,-0.0002
2850.0,-0.0002
2849.0,-0.0002
2848.0,-0.0002
2847.0,-0.0001
2846.0,-0.0002
2845.0,-0.0002
2844.0,-0.0003
2843.0,-0.0003
2842.0,-0.0003
2841.0,-0.0004
2840.0,-0.0004
2839.0,-0.0004
2838.0,-0.0004
2837.0,-0.0004
2836.0,-0.0004
2835.0,-0.0004
2834.0,-0.0005
2833.0,-0.0005
2832.0,-0.0005
2831.0,-0.0004
2830.0,-0.0005
2829.0,-0.0005
2828.0,-0.0005
2827.0,-0.0005
2826.0,-0.0005
2825.0,-0.0006
2824.0,-0.0006
2823.0,-0.0006
2822.0,-0.0007
2821.0,-0.0007
2820.0,-0.0008
2819.0,-0.0008
2818.0,-0.0009
2817.0,-0.0009
2816.0,-0.0009
2815.0,-0.0009
2814.0,-0.001
2813.0,-0.001
2812.0,-0.001
2811.0,-0.0011
2810.0,-0.0012
2809.0,-0.0013
2808.0,-0.0014
2807.0,-0.0014
2806.0,-0.0013
2805.0,-0.0013
2804.0,-0.0012
2803.0,-0.0012
2802.0,-0.0012
2801.0,-0.0012
2800.0,-0.0013
2799.0,-0.0013
2798.0,-0.0014
2797.0,-0.0014
2796.0,-0.0014
2795.0,-0.0015
2794.0,-0.0015
2793.0,-0.0015
2792.0,-0.0015
2791.0,-0.0015
2790.0,-0.0015
2789.0,-0.0015
2788.0,-0.0015
2787.0,-0.0016
2786.0,-0.0017
2785.0,-0.0018
2784.0,-0.0018
2783.0,-0.0018
2782.0,-0.0018
2781.0,-0.0018
2780.0,-0.0018
2779.0,-0.0018
2778.0,-0.0018
2777.0,-0.0018
2776.0,-0.0017
2775.0,-0.0017
2774.0,-0.0017
2773.0,-0.0018
2772.0,-0.0018
2771.0,-0.0018
2770.0,-0.0018
2769.0,-0.0018
2768.0,-0.0018
2767.0,-0.0018
2766.0,-0.0019
2765.0,-0.0019
2764.0,-0.0019
2763.0,-0.0019
2762.0,-0.0019
2761.0,-0.0019
2760.0,-0.0019
2759.0,-0.0019
2758.0,-0.0019
2757.0,-0.0019
2756.0,-0.0019
2755.0,-0.0019
2754.0,-0.0019
2753.0,-0.0018
2752.0,-0.0018
2751.0,-0.0018
2750.0,-0.0018
2749.0,-0.0019
2748.0,-0.0019
2747.0,-0.0019
2746.0,-0.0019
2745.0,-0.0019
2744.0,-0.0019
2743.0,-0.0019
2742.0,-0.0019
2741.0,-0.0018
2740.0,-0.0017
2739.0,-0.0017
2738.0,-0.0018
2737.0,-0.0018
2736.0,-0.0019
2735.0,-0.002
2734.0,-0.002
2733.0,-0.002
2732.0,-0.0019
2731.0,-0.0019
2730.0,-0.0019
2729.0,-0.0019
2728.0,-0.002
2727.0,-0.002
2726.0,-0.002
2725.0,-0.0021
2724.0,-0.0021
2723.0,-0.002
2722.0,-0.002
2721.0,-0.002
2720.0,-0.0019
2719.0,-0.0019
2718.0,-0.0019
2717.0,-0.002
2716.0,-0.002
2715.0,-0.002
2714.0,-0.002
2713.0,-0.002
2712.0,-0.002
2711.0,-0.002
2710.0,-0.0019
2709.0,-0.0019
2708.0,-0.0019
2707.0,-0.0019
2706.0,-0.002
2705.0,-0.002
2704.0,-0.0021
2703.0,-0.0021
2702.0,-0.0021
2701.0,-0.0021
2700.0,-0.002
2699.0,-0.002
2698.0,-0.002
2697.0,-0.002
2696.0,-0.002
2695.0,-0.002
2694.0,-0.002
2693.0,-0.0019
2692.0,-0.0019
2691.0,-0.0019
2690.0,-0.0019
2689.0,-0.002
2688.0,-0.002
2687.0,-0.0019
2686.0,-0.0019
2685.0,-0.0019
2684.0,-0.0019
2683.0,-0.0019
2682.0,-0.002
2681.0,-0.002
2680.0,-0.002
2679.0,-0.0019
2678.0,-0.0019
2677.0,-0.0018
2676.0,-0.0018
2675.0,-0.0018
2674.0,-0.0019
2673.0,-0.0019
2672.0,-0.0019
2671.0,-0.0019
2670.0,-0.0019
2669.0,-0.0019
2668.0,-0.0019
2667.0,-0.0019
2666.0,-0.0019
2665.0,-0.0019
2664.0,-0.0019
2663.0,-0.0019
2662.0,-0.0019
2661.0,-0.0019
2660.0,-0.0019
2659.0,-0.0018
2658.0,-0.0018
2657.0,-0.0018
2656.0,-0.0017
2655.0,-0.0017
2654.0,-0.0018
2653.0,-0.0018
2652.0,-0.0019
2651.0,-0.0019
2650.0,-0.0019
2649.0,-0.0019
2648.0,-0.0018
2647.0,-0.0018
2646.0,-0.0018
2645.0,-0.0017
2644.0,-0.0017
2643.0,-0.0018
2642.0,-0.0019
2641.0,-0.0019
2640.0,-0.002
2639.0,-0.002
2638.0,-0.002
2637.0,-0.002
2636.0,-0.002
2635.0,-0.002
2634.0,-0.002
2633.0,-0.002
2632.0,-0.002
2631.0,-0.0019
2630.0,-0.0019
2629.0,-0.0019
2628.0,-0.0019
2627.0,-0.0019
2626.0,-0.002
2625.0,-0.002
2624.0,-0.0021
2623.0,-0.0021
2622.0,-0.0022
2621.0,-0.0022
2620.0,-0.0022
2619.0,-0.0022
2618.0,-0.0022
2617.0,-0.0022
2616.0,-0.0022
2615.0,-0.0022
2614.0,-0.0022
2613.0,-0.0022
2612.0,-0.0022
2611.0,-0.0022
2610.0,-0.0022
2609.0,-0.0023
2608.0,-0.0023
2607.0,-0.0023
2606.0,-0.0023
2605.0,-0.0023
2604.0,-0.0023
2603.0,-0.0023
2602.0,-0.0022
2601.0,-0.0022
2600.0,-0.0022
2599.0,-0.0022
2598.0,-0.0022
2597.0,-0.0022
2596.0,-0.0022
2595.0,-0.0022
2594.0,-0.0022
2593.0,-0.0022
2592.0,-0.0022
2591.0,-0.0021
2590.0,-0.0021
2589.0,-0.0022
2588.0,-0.0022
2587.0,-0.0022
2586.0,-0.0021
2585.0,-0.0021
2584.0,-0.0021
2583.0,-0.0021
2582.0,-0.0022
2581.0,-0.0022
2580.0,-0.0022
2579.0,-0.0022
2578.0,-0.0022
2577.0,-0.0022
2576.0,-0.0023
2575.0,-0.0023
2574.0,-0.0024
2573.0,-0.0024
2572.0,-0.0024
2571.0,-0.0024
2570.0,-0.0023
2569.0,-0.0023
2568.0,-0.0022
2567.0,-0.0022
2566.0,-0.0022
2565.0,-0.0023
2564.0,-0.0023
2563.0,-0.0024
2562.0,-0.0024
2561.0,-0.0025
2560.0,-0.0025
2559.0,-0.0025
2558.0,-0.0025
2557.0,-0.0026
2556.0,-0.0026
2555.0,-0.0027
2554.0,-0.0026
2553.0,-0.0026
2552.0,-0.0025
2551.0,-0.0025
2550.0,-0.0025
2549.0,-0.0025
2548.0,-0.0025
2547.0,-0.0026
2546.0,-0.0026
2545.0,-0.0026
2544.0,-0.0025
2543.0,-0.0024
2542.0,-0.0024
2541.0,-0.0024
2540.0,-0.0024
2539.0,-0.0024
2538.0,-0.0024
2537.0,-0.0025
2536.0,-0.0025
2535.0,-0.0026
2534.0,-0.0026
2533.0,-0.0026
2532.0,-0.0026
2531.0,-0.0026
2530.0,-0.0026
2529.0,-0.0026
2528.0,-0.0025
2527.0,-0.0025
2526.0,-0.0025
2525.0,-0.0025
2524.0,-0.0025
2523.0,-0.0026
2522.0,-0.0026
2521.0,-0.0027
2520.0,-0.0027
2519.0,-0.0027
2518.0,-0.0027
2517.0,-0.0026
2516.0,-0.0026
2515.0,-0.0027
2514.0,-0.0027
2513.0,-0.0027
2512.0,-0.0026
2511.0,-0.0025
2510.0,-0.0025
2509.0,-0.0025
2508.0,-0.0024
2507.0,-0.0025
2506.0,-0.0025
2505.0,-0.0025
2504.0,-0.0026
2503.0,-0.0026
2502.0,-0.0026
2501.0,-0.0027
2500.0,-0.0027
2499.0,-0.0027
2498.0,-0.0028
2497.0,-0.0028
2496.0,-0.0028
2495.0,-0.0027
2494.0,-0.0027
2493.0,-0.0027
2492.0,-0.0027
2491.0,-0.0027
2490.0,-0.0027
2489.0,-0.0027
2488.0,-0.0027
2487.0,-0.0027
2486.0,-0.0028
2485.0,-0.0028
2484.0,-0.0029
2483.0,-0.0029
2482.0,-0.0029
2481.0,-0.0029
2480.0,-0.0029
2479.0,-0.003
2478.0,-0.003
2477.0,-0.003
2476.0,-0.003
2475.0,-0.0029
2474.0,-0.003
2473.0,-0.003
2472.0,-0.003
2471.0,-0.003
2470.0,-0.003
2469.0,-0.003
2468.0,-0.003
2467.0,-0.003
2466.0,-0.003
2465.0,-0.003
2464.0,-0.003
2463.0,-0.003
2462.0,-0.003
2461.0,-0.003
2460.0,-0.0031
2459.0,-0.0032
2458.0,-0.0032
2457.0,-0.0032
2456.0,-0.0031
2455.0,-0.0031
2454.0,-0.0032
2453.0,-0.0032
2452.0,-0.0032
2451.0,-0.0032
2450.0,-0.0032
2449.0,-0.0032
2448.0,-0.0031
2447.0,-0.0031
2446.0,-0.0031
2445.0,-0.003
2444.0,-0.003
2443.0,-0.003
2442.0,-0.003
2441.0,-0.0031
2440.0,-0.003
2439.0,-0.003
2438.0,-0.0029
2437.0,-0.0028
2436.0,-0.0027
2435.0,-0.0027
2434.0,-0.0027
2433.0,-0.0027
2432.0,-0.0027
2431.0,-0.0027
2430.0,-0.0026
2429.0,-0.0026
2428.0,-0.0026
2427.0,-0.0026
2426.0,-0.0025
2425.0,-0.0025
2424.0,-0.0024
2423.0,-0.0024
2422.0,-0.0025
2421.0,-0.0025
2420.0,-0.0025
2419.0,-0.0025
2418.0,-0.0024
2417.0,-0.0024
2416.0,-0.0024
2415.0,-0.0024
2414.0,-0.0024
2413.0,-0.0025
2412.0,-0.0025
2411.0,-0.0025
2410.0,-0.0024
2409.0,-0.0024
2408.0,-0.0023
2407.0,-0.0023
2406.0,-0.0023
2405.0,-0.0023
2404.0,-0.0023
2403.0,-0.0023
2402.0,-0.0023
2401.0,-0.0023
2400.0,-0.0023
2399.0,-0.0024
2398.0,-0.0024
2397.0,-0.0024
2396.0,-0.0023
2395.0,-0.0023
2394.0,-0.0023
2393.0,-0.0023
2392.0,-0.0023
2391.0,-0.0024
2390.0,-0.0025
2389.0,-0.0026
2388.0,-0.0028
2387.0,-0.003
2386.0,-0.0033
2385.0,-0.0038
2384.0,-0.0044
2383.0,-0.0051
2382.0,-0.006
2381.0,-0.0068
2380.0,-0.0076
2379.0,-0.0084
2378.0,-0.009
2377.0,-0.0095
2376.0,-0.0097
2375.0,-0.0095
2374.0,-0.0093
2373.0,-0.0092
2372.0,-0.0092
2371.0,-0.0097
2370.0,-0.0105
2369.0,-0.0109
2368.0,-0.0111
2367.0,-0.0114
2366.0,-0.0119
2365.0,-0.0115
2364.0,-0.0101
2363.0,-0.0098
2362.0,-0.0109
2361.0,-0.0119
2360.0,-0.0118
2359.0,-0.012
2358.0,-0.0128
2357.0,-0.0132
2356.0,-0.0133
2355.0,-0.0137
2354.0,-0.0139
2353.0,-0.0137
2352.0,-0.0134
2351.0,-0.0135
2350.0,-0.0138
2349.0,-0.0139
2348.0,-0.0137
2347.0,-0.0136
2346.0,-0.0137
2345.0,-0.0139
2344.0,-0.0138
2343.0,-0.0136
2342.0,-0.0137
2341.0,-0.0138
2340.0,-0.014
2339.0,-0.0144
2338.0,-0.015
2337.0,-0.015
2336.0,-0.0148
2335.0,-0.0147
2334.0,-0.0149
2333.0,-0.0149
2332.0,-0.0147
2331.0,-0.0147
2330.0,-0.0147
2329.0,-0.0144
2328.0,-0.0135
2327.0,-0.0126
2326.0,-0.012
2325.0,-0.0115
2324.0,-0.0111
2323.0,-0.0107
2322.0,-0.0104
2321.0,-0.0101
2320.0,-0.0097
2319.0,-0.0094
2318.0,-0.0091
2317.0,-0.0088
2316.0,-0.0086
2315.0,-0.0086
2314.0,-0.0089
2313.0,-0.0094
2312.0,-0.0098
2311.0,-0.0101
2310.0,-0.0101
2309.0,-0.01
2308.0,-0.0097
2307.0,-0.0093
2306.0,-0.0091
2305.0,-0.0088
2304.0,-0.0086
2303.0,-0.0085
2302.0,-0.0083
2301.0,-0.0081
2300.0,-0.0078
2299.0,-0.0075
2298.0,-0.0073
2297.0,-0.0071
2296.0,-0.0069
2295.0,-0.0067
2294.0,-0.0064
2293.0,-0.0062
2292.0,-0.0059
2291.0,-0.0057
2290.0,-0.0055
2289.0,-0.0053
2288.0,-0.0051
2287.0,-0.0049
2286.0,-0.0048
2285.0,-0.0047
2284.0,-0.0046
2283.0,-0.0046
2282.0,-0.0046
2281.0,-0.0047
2280.0,-0.0047
2279.0,-0.0048
2278.0,-0.0048
2277.0,-0.0049
2276.0,-0.0049
2275.0,-0.005
2274.0,-0.005
2273.0,-0.0051
2272.0,-0.0051
2271.0,-0.005
2270.0,-0.005
2269.0,-0.0049
2268.0,-0.0049
2267.0,-0.0049
2266.0,-0.0049
2265.0,-0.0049
2264.0,-0.0049
2263.0,-0.0049
2262.0,-0.0049
2261.0,-0.0049
2260.0,-0.0048
2259.0,-0.0047
2258.0,-0.0047
2257.0,-0.0048
2256.0,-0.0048
2255.0,-0.0048
2254.0,-0.0047
2253.0,-0.0046
2252.0,-0.0046
2251.0,-0.0045
2250.0,-0.0046
2249.0,-0.0046
2248.0,-0.0046
2247.0,-0.0046
2246.0,-0.0046
2245.0,-0.0046
2244.0,-0.0045
2243.0,-0.0045
2242.0,-0.0045
2241.0,-0.0046
2240.0,-0.0046
2239.0,-0.0046
2238.0,-0.0047
2237.0,-0.0047
2236.0,-0.0046
2235.0,-0.0046
2234.0,-0.0046
2233.0,-0.0047
2232.0,-0.0047
2231.0,-0.0048
2230.0,-0.0048
2229.0,-0.0048
2228.0,-0.0048
2227.0,-0.0048
2226.0,-0.0049
2225.0,-0.0049
2224.0,-0.0048
2223.0,-0.0048
2222.0,-0.0048
2221.0,-0.0048
2220.0,-0.0049
2219.0,-0.0049
2218.0,-0.005
2217.0,-0.005
2216.0,-0.0051
2215.0,-0.0051
2214.0,-0.0052
2213.0,-0.0052
2212.0,-0.0052
2211.0,-0.0052
2210.0,-0.0051
2209.0,-0.0052
2208.0,-0.0052
2207.0,-0.0052
2206.0,-0.0053
2205.0,-0.0054
2204.0,-0.0054
2203.0,-0.0054
2202.0,-0.0054
2201.0,-0.0054
2200.0,-0.0054
2199.0,-0.0054
2198.0,-0.0053
2197.0,-0.0054
2196.0,-0.0053
2195.0,-0.0053
2194.0,-0.0053
2193.0,-0.0053
2192.0,-0.0053
2191.0,-0.0053
2190.0,-0.0054
2189.0,-0.0054
2188.0,-0.0054
2187.0,-0.0054
2186.0,-0.0054
2185.0,-0.0054
2184.0,-0.0054
2183.0,-0.0053
2182.0,-0.0053
2181.0,-0.0053
2180.0,-0.0053
2179.0,-0.0053
2178.0,-0.0053
2177.0,-0.0053
2176.0,-0.0053
2175.0,-0.0053
2174.0,-0.0053
2173.0,-0.0053
2172.0,-0.0053
2171.0,-0.0054
2170.0,-0.0054
2169.0,-0.0054
2168.0,-0.0054
2167.0,-0.0055
2166.0,-0.0055
2165.0,-0.0055
2164.0,-0.0055
2163.0,-0.0055
2162.0,-0.0056
2161.0,-0.0056
2160.0,-0.0056
2159.0,-0.0056
2158.0,-0.0056
2157.0,-0.0056
2156.0,-0.0055
2155.0,-0.0055
2154.0,-0.0055
2153.0,-0.0055
2152.0,-0.0055
2151.0,-0.0056
2150.0,-0.0056
2149.0,-0.0056
2148.0,-0.0055
2147.0,-0.0055
2146.0,-0.0055
2145.0,-0.0055
2144.0,-0.0054
2143.0,-0.0054
2142.0,-0.0055
2141.0,-0.0055
2140.0,-0.0054
2139.0,-0.0054
2138.0,-0.0053
2137.0,-0.0052
2136.0,-0.0052
2135.0,-0.0052
2134.0,-0.0052
2133.0,-0.0052
2132.0,-0.0052
2131.0,-0.0052
2130.0,-0.0051
2129.0,-0.0051
2128.0,-0.0051
2127.0,-0.0052
2126.0,-0.0052
2125.0,-0.0052
2124.0,-0.0051
2123.0,-0.0051
2122.0,-0.0051
2121.0,-0.005
2120.0,-0.005
2119.0,-0.0051
2118.0,-0.0051
2117.0,-0.0052
2116.0,-0.0052
2115.0,-0.0052
2114.0,-0.0053
2113.0,-0.0053
2112.0,-0.0053
2111.0,-0.0053
2110.0,-0.0053
2109.0,-0.0053
2108.0,-0.0052
2107.0,-0.0052
2106.0,-0.0052
2105.0,-0.0052
2104.0,-0.0052
2103.0,-0.0052
2102.0,-0.0052
2101.0,-0.0052
2100.0,-0.0051
2099.0,-0.0051
2098.0,-0.0051
2097.0,-0.005
2096.0,-0.0049
2095.0,-0.0049
2094.0,-0.0049
2093.0,-0.0049
2092.0,-0.0049
2091.0,-0.0048
2090.0,-0.0048
2089.0,-0.0048
2088.0,-0.0048
2087.0,-0.0048
2086.0,-0.0048
2085.0,-0.0048
2084.0,-0.0048
2083.0,-0.0049
2082.0,-0.0049
2081.0,-0.005
2080.0,-0.005
2079.0,-0.005
2078.0,-0.0051
2077.0,-0.0051
2076.0,-0.0051
2075.0,-0.0051
2074.0,-0.0052
2073.0,-0.0053
2072.0,-0.0053
2071.0,-0.0054
2070.0,-0.0054
2069.0,-0.0055
2068.0,-0.0055
2067.0,-0.0055
2066.0,-0.0055
2065.0,-0.0056
2064.0,-0.0056
2063.0,-0.0057
2062.0,-0.0057
2061.0,-0.0058
2060.0,-0.0058
2059.0,-0.0059
2058.0,-0.006
2057.0,-0.006
2056.0,-0.006
2055.0,-0.006
2054.0,-0.0061
2053.0,-0.0062
2052.0,-0.0062
2051.0,-0.0062
2050.0,-0.0063
2049.0,-0.0064
2048.0,-0.0065
2047.0,-0.0066
2046.0,-0.0067
2045.0,-0.0068
2044.0,-0.0068
2043.0,-0.0069
2042.0,-0.0069
2041.0,-0.007
2040.0,-0.007
2039.0,-0.0071
2038.0,-0.0071
2037.0,-0.0072
2036.0,-0.0071
2035.0,-0.0072
2034.0,-0.0072
2033.0,-0.0072
2032.0,-0.0072
2031.0,-0.0073
2030.0,-0.0073
2029.0,-0.0073
2028.0,-0.0073
2027.0,-0.0073
2026.0,-0.0073
2025.0,-0.0073
2024.0,-0.0073
2023.0,-0.0073
2022.0,-0.0074
2021.0,-0.0074
2020.0,-0.0074
2019.0,-0.0074
2018.0,-0.0074
2017.0,-0.0073
2016.0,-0.0073
2015.0,-0.0073
2014.0,-0.0073
2013.0,-0.0073
2012.0,-0.0072
2011.0,-0.0072
2010.0,-0.0071
2009.0,-0.0071
2008.0,-0.007
2007.0,-0.007
2006.0,-0.007
2005.0,-0.007
2004.0,-0.007
2003.0,-0.007
2002.0,-0.007
2001.0,-0.0071
2000.0,-0.0071
1999.0,-0.0071
1998.0,-0.0071
1997.0,-0.0072
1996.0,-0.0072
1995.0,-0.0072
1994.0,-0.0073
1993.0,-0.0073
1992.0,-0.0073
1991.0,-0.0073
1990.0,-0.0073
1989.0,-0.0072
1988.0,-0.0072
1987.0,-0.0072
1986.0,-0.0072
1985.0,-0.0072
1984.0,-0.0072
1983.0,-0.0072
1982.0,-0.0072
1981.0,-0.0072
1980.0,-0.0073
1979.0,-0.0073
1978.0,-0.0073
1977.0,-0.0072
1976.0,-0.0072
1975.0,-0.0071
1974.0,-0.0071
1973.0,-0.0072
1972.0,-0.0071
1971.0,-0.0071
1970.0,-0.0071
1969.0,-0.0071
1968.0,-0.007
1967.0,-0.0071
1966.0,-0.0071
1965.0,-0.0071
1964.0,-0.0071
1963.0,-0.0071
1962.0,-0.0072
1961.0,-0.0073
1960.0,-0.0073
1959.0,-0.0074
1958.0,-0.0074
1957.0,-0.0075
1956.0,-0.0075
1955.0,-0.0075
1954.0,-0.0077
1953.0,-0.0078
1952.0,-0.0078
1951.0,-0.0079
1950.0,-0.008
1949.0,-0.008
1948.0,-0.008
1947.0,-0.008
1946.0,-0.008
1945.0,-0.0081
1944.0,-0.0082
1943.0,-0.0083
1942.0,-0.0084
1941.0,-0.0085
1940.0,-0.0085
1939.0,-0.0085
1938.0,-0.0086
1937.0,-0.0086
1936.0,-0.0086
1935.0,-0.0086
1934.0,-0.0087
1933.0,-0.0087
1932.0,-0.0086
1931.0,-0.0086
1930.0,-0.0087
1929.0,-0.0088
1928.0,-0.0088
1927.0,-0.0088
1926.0,-0.0089
1925.0,-0.0088
1924.0,-0.0087
1923.0,-0.0087
1922.0,-0.0088
1921.0,-0.0088
1920.0,-0.0087
1919.0,-0.0087
1918.0,-0.0088
1917.0,-0.0088
1916.0,-0.0088
1915.0,-0.0088
1914.0,-0.0088
1913.0,-0.0088
1912.0,-0.0088
1911.0,-0.0088
1910.0,-0.0088
1909.0,-0.0088
1908.0,-0.0088
1907.0,-0.0088
1906.0,-0.0088
1905.0,-0.0088
1904.0,-0.0088
1903.0,-0.0089
1902.0,-0.0089
1901.0,-0.0089
1900.0,-0.0089
1899.0,-0.0089
1898.0,-0.009
1897.0,-0.009
1896.0,-0.0089
1895.0,-0.0089
1894.0,-0.0089
1893.0,-0.0089
1892.0,-0.0089
1891.0,-0.0089
1890.0,-0.009
1889.0,-0.009
1888.0,-0.009
1887.0,-0.009
1886.0,-0.0091
1885.0,-0.0091
1884.0,-0.0091
1883.0,-0.0091
1882.0,-0.0091
1881.0,-0.009
1880.0,-0.009
1879.0,-0.009
1878.0,-0.0091
1877.0,-0.0092
1876.0,-0.0091
1875.0,-0.0091
1874.0,-0.0091
1873.0,-0.0091
1872.0,-0.009
1871.0,-0.0089
1870.0,-0.009
1869.0,-0.009
1868.0,-0.0089
1867.0,-0.0089
1866.0,-0.0089
1865.0,-0.0088
1864.0,-0.0088
1863.0,-0.0088
1862.0,-0.0088
1861.0,-0.0088
1860.0,-0.0087
1859.0,-0.0086
1858.0,-0.0085
1857.0,-0.0085
1856.0,-0.0084
1855.0,-0.0083
1854.0,-0.0084
1853.0,-0.0084
1852.0,-0.0082
1851.0,-0.0081
1850.0,-0.008
1849.0,-0.0078
1848.0,-0.0076
1847.0,-0.0075
1846.0,-0.0075
1845.0,-0.0074
1844.0,-0.0073
1843.0,-0.0071
1842.0,-0.007
1841.0,-0.0068
1840.0,-0.0066
1839.0,-0.0064
1838.0,-0.0062
1837.0,-0.006
1836.0,-0.0058
1835.0,-0.0055
1834.0,-0.0053
1833.0,-0.0051
1832.0,-0.0048
1831.0,-0.0046
1830.0,-0.0043
1829.0,-0.004
1828.0,-0.0036
1827.0,-0.0034
1826.0,-0.0033
1825.0,-0.0031
1824.0,-0.0028
1823.0,-0.0026
1822.0,-0.0025
1821.0,-0.0023
1820.0,-0.002
1819.0,-0.0018
1818.0,-0.0016
1817.0,-0.0014
1816.0,-0.0011
1815.0,-0.0008
1814.0,-0.0006
1813.0,-0.0004
1812.0,-0.0
1811.0,0.0003
1810.0,0.0005
1809.0,0.0009
1808.0,0.0013
1807.0,0.0016
1806.0,0.0019
1805.0,0.0022
1804.0,0.0027
1803.0,0.0031
1802.0,0.0035
1801.0,0.0041
1800.0,0.0048
1799.0,0.0055
1798.0,0.0061
1797.0,0.0069
1796.0,0.008
1795.0,0.009
1794.0,0.0101
1793.0,0.0117
1792.0,0.0141
1791.0,0.0164
1790.0,0.0185
1789.0,0.0209
1788.0,0.0238
1787.0,0.0271
1786.0,0.031
1785.0,0.0357
1784.0,0.0408
1783.0,0.0458
1782.0,0.0511
1781.0,0.0575
1780.0,0.0645
1779.0,0.0708
1778.0,0.0764
1777.0,0.082
1776.0,0.0875
1775.0,0.0927
1774.0,0.0983
1773.0,0.1062
1772.0,0.1158
1771.0,0.1243
1770.0,0.1318
1769.0,0.1409
1768.0,0.1523
1767.0,0.1645
1766.0,0.1763
1765.0,0.1885
1764.0,0.2032
1763.0,0.2229
1762.0,0.2479
1761.0,0.2737
1760.0,0.2954
1759.0,0.3134
1758.0,0.3314
1757.0,0.3505
1756.0,0.3658
1755.0,0.3741
1754.0,0.3777
1753.0,0.3801
1752.0,0.3822
1751.0,0.3827
1750.0,0.3811
1749.0,0.3773
1748.0,0.37
1747.0,0.3587
1746.0,0.3448
1745.0,0.3287
1744.0,0.3102
1743.0,0.2906
1742.0,0.2714
1741.0,0.2514
1740.0,0.2295
1739.0,0.2093
1738.0,0.1942
1737.0,0.1825
1736.0,0.1703
1735.0,0.1543
1734.0,0.1378
1733.0,0.1264
1732.0,0.1188
1731.0,0.1123
1730.0,0.1062
1729.0,0.1006
1728.0,0.0958
1727.0,0.0918
1726.0,0.0884
1725.0,0.0852
1724.0,0.082
1723.0,0.0792
1722.0,0.0768
1721.0,0.0747
1720.0,0.0722
1719.0,0.0694
1718.0,0.0669
1717.0,0.0646
1716.0,0.062
1715.0,0.0595
1714.0,0.0572
1713.0,0.0549
1712.0,0.0524
1711.0,0.05
1710.0,0.0478
1709.0,0.0458
1708.0,0.0438
1707.0,0.0418
1706.0,0.0401
1705.0,0.0386
1704.0,0.0372
1703.0,0.0359
1702.0,0.0348
1701.0,0.0336
1700.0,0.0324
1699.0,0.0314
1698.0,0.0307
1697.0,0.0298
1696.0,0.0287
1695.0,0.0278
1694.0,0.0272
1693.0,0.0266
1692.0,0.0258
1691.0,0.025
1690.0,0.0244
1689.0,0.0239
1688.0,0.0233
1687.0,0.0227
1686.0,0.022
1685.0,0.0216
1684.0,0.0212
1683.0,0.0209
1682.0,0.0208
1681.0,0.0205
1680.0,0.02
1679.0,0.0195
1678.0,0.019
1677.0,0.0187
1676.0,0.0183
1675.0,0.0181
1674.0,0.0179
1673.0,0.0177
1672.0,0.0173
1671.0,0.0169
1670.0,0.0167
1669.0,0.0165
1668.0,0.0162
1667.0,0.0159
1666.0,0.0156
1665.0,0.0153
1664.0,0.015
1663.0,0.0147
1662.0,0.0146
1661.0,0.0145
1660.0,0.0142
1659.0,0.0139
1658.0,0.0136
1657.0,0.0133
1656.0,0.0129
1655.0,0.0126
1654.0,0.0128
1653.0,0.013
1652.0,0.0127
1651.0,0.0124
1650.0,0.0121
1649.0,0.0118
1648.0,0.0116
1647.0,0.0115
1646.0,0.0114
1645.0,0.0113
1644.0,0.0111
1643.0,0.0109
1642.0,0.0107
1641.0,0.0106
1640.0,0.0104
1639.0,0.0102
1638.0,0.0101
1637.0,0.01
1636.0,0.01
1635.0,0.01
1634.0,0.01
1633.0,0.01
1632.0,0.0098
1631.0,0.0096
1630.0,0.0094
1629.0,0.0094
1628.0,0.0092
1627.0,0.0091
1626.0,0.0091
1625.0,0.009
1624.0,0.009
1623.0,0.0089
1622.0,0.0088
1621.0,0.0087
1620.0,0.0085
1619.0,0.0083
1618.0,0.0082
1617.0,0.0081
1616.0,0.0079
1615.0,0.0077
1614.0,0.0075
1613.0,0.0073
1612.0,0.0071
1611.0,0.0069
1610.0,0.0068
1609.0,0.0067
1608.0,0.0064
1607.0,0.0062
1606.0,0.0061
1605.0,0.0059
1604.0,0.0057
1603.0,0.0055
1602.0,0.0053
1601.0,0.0052
1600.0,0.005
1599.0,0.0048
1598.0,0.0047
1597.0,0.0046
1596.0,0.0045
1595.0,0.0044
1594.0,0.0042
1593.0,0.0041
1592.0,0.0039
1591.0,0.0037
1590.0,0.0036
1589.0,0.0034
1588.0,0.0033
1587.0,0.0032
1586.0,0.0031
1585.0,0.0029
1584.0,0.0028
1583.0,0.0027
1582.0,0.0026
1581.0,0.0025
1580.0,0.0024
1579.0,0.0023
1578.0,0.0021
1577.0,0.002
1576.0,0.0018
1575.0,0.0018
1574.0,0.0017
1573.0,0.0017
1572.0,0.0015
1571.0,0.0014
1570.0,0.0013
1569.0,0.0012
1568.0,0.0011
1567.0,0.001
1566.0,0.001
1565.0,0.001
1564.0,0.001
1563.0,0.0009
1562.0,0.0008
1561.0,0.0007
1560.0,0.0007
1559.0,0.0007
1558.0,0.0006
1557.0,0.0006
1556.0,0.0006
1555.0,0.0005
1554.0,0.0005
1553.0,0.0004
1552.0,0.0004
1551.0,0.0003
1550.0,0.0002
1549.0,0.0002
1548.0,0.0003
1547.0,0.0003
1546.0,0.0003
1545.0,0.0002
1544.0,0.0002
1543.0,0.0001
1542.0,0.0
1541.0,-0.0
1540.0,-0.0001
1539.0,-0.0001
1538.0,-0.0
1537.0,0.0001
1536.0,0.0
1535.0,-0.0
1534.0,-0.0001
1533.0,-0.0001
1532.0,-0.0002
1531.0,-0.0003
1530.0,-0.0003
1529.0,-0.0004
1528.0,-0.0004
1527.0,-0.0004
1526.0,-0.0003
1525.0,-0.0002
1524.0,-0.0001
1523.0,-0.0001
1522.0,-0.0002
1521.0,-0.0003
1520.0,-0.0003
1519.0,-0.0004
1518.0,-0.0005
1517.0,-0.0006
1516.0,-0.0007
1515.0,-0.0007
1514.0,-0.0007
1513.0,-0.0007
1512.0,-0.0007
1511.0,-0.0008
1510.0,-0.0009
1509.0,-0.001
1508.0,-0.0009
1507.0,-0.0011
1506.0,-0.0014
1505.0,-0.0013
1504.0,-0.0012
1503.0,-0.0012
1502.0,-0.0012
1501.0,-0.0013
1500.0,-0.0013
1499.0,-0.0013
1498.0,-0.0014
1497.0,-0.0014
1496.0,-0.0014
1495.0,-0.0014
1494.0,-0.0014
1493.0,-0.0013
1492.0,-0.0013
1491.0,-0.0013
1490.0,-0.0014
1489.0,-0.0014
1488.0,-0.0013
1487.0,-0.0013
1486.0,-0.0013
1485.0,-0.0011
1484.0,-0.0009
1483.0,-0.0007
1482.0,-0.0005
1481.0,-0.0002
1480.0,0.0002
1479.0,0.0006
1478.0,0.0011
1477.0,0.0017
1476.0,0.0026
1475.0,0.0035
1474.0,0.0049
1473.0,0.0072
1472.0,0.0101
1471.0,0.0127
1470.0,0.0153
1469.0,0.0182
1468.0,0.0217
1467.0,0.026
1466.0,0.032
1465.0,0.0398
1464.0,0.048
1463.0,0.0547
1462.0,0.0605
1461.0,0.066
1460.0,0.0715
1459.0,0.0776
1458.0,0.0855
1457.0,0.094
1456.0,0.0989
1455.0,0.1004
1454.0,0.1007
1453.0,0.1006
1452.0,0.1001
1451.0,0.099
1450.0,0.0975
1449.0,0.0952
1448.0,0.0919
1447.0,0.0877
1446.0,0.0832
1445.0,0.078
1444.0,0.072
1443.0,0.0653
1442.0,0.0585
1441.0,0.052
1440.0,0.0461
1439.0,0.0408
1438.0,0.0355
1437.0,0.0299
1436.0,0.0249
1435.0,0.0217
1434.0,0.0195
1433.0,0.0176
1432.0,0.0158
1431.0,0.0141
1430.0,0.0126
1429.0,0.0113
1428.0,0.0102
1427.0,0.0094
1426.0,0.0087
1425.0,0.0079
1424.0,0.0072
1423.0,0.0067
1422.0,0.0063
1421.0,0.0059
1420.0,0.0053
1419.0,0.0049
1418.0,0.0047
1417.0,0.0044
1416.0,0.0042
1415.0,0.0041
1414.0,0.004
1413.0,0.0039
1412.0,0.0038
1411.0,0.0038
1410.0,0.0039
1409.0,0.004
1408.0,0.004
1407.0,0.0043
1406.0,0.0047
1405.0,0.0051
1404.0,0.0056
1403.0,0.0063
1402.0,0.0071
1401.0,0.0081
1400.0,0.0096
1399.0,0.0118
1398.0,0.0143
1397.0,0.017
1396.0,0.0206
1395.0,0.0255
1394.0,0.0308
1393.0,0.0359
1392.0,0.041
1391.0,0.0462
1390.0,0.0519
1389.0,0.0584
1388.0,0.0657
1387.0,0.0728
1386.0,0.0781
1385.0,0.0814
1384.0,0.0833
1383.0,0.0839
1382.0,0.0831
1381.0,0.0807
1380.0,0.0768
1379.0,0.0719
1378.0,0.0669
1377.0,0.0627
1376.0,0.0598
1375.0,0.0589
1374.0,0.0603
1373.0,0.0633
1372.0,0.0669
1371.0,0.0705
1370.0,0.0737
1369.0,0.0765
1368.0,0.0786
1367.0,0.0801
1366.0,0.0814
1365.0,0.0829
1364.0,0.085
1363.0,0.0876
1362.0,0.0904
1361.0,0.0926
1360.0,0.094
1359.0,0.0946
1358.0,0.0943
1357.0,0.093
1356.0,0.0908
1355.0,0.0877
1354.0,0.0841
1353.0,0.0802
1352.0,0.0761
1351.0,0.072
1350.0,0.068
1349.0,0.0642
1348.0,0.0606
1347.0,0.0573
1346.0,0.0542
1345.0,0.0514
1344.0,0.0489
1343.0,0.0466
1342.0,0.0445
1341.0,0.0425
1340.0,0.0407
1339.0,0.039
1338.0,0.0375
1337.0,0.0363
1336.0,0.0352
1335.0,0.0341
1334.0,0.0331
1333.0,0.0322
1332.0,0.0314
1331.0,0.0307
1330.0,0.0301
1329.0,0.0296
1328.0,0.0292
1327.0,0.029
1326.0,0.0288
1325.0,0.0287
1324.0,0.0286
1323.0,0.0285
1322.0,0.0285
1321.0,0.0285
1320.0,0.0285
1319.0,0.0284
1318.0,0.0285
1317.0,0.0285
1316.0,0.0286
1315.0,0.0287
1314.0,0.0289
1313.0,0.0292
1312.0,0.0296
1311.0,0.03
1310.0,0.0305
1309.0,0.0311
1308.0,0.0316
1307.0,0.0321
1306.0,0.0325
1305.0,0.0327
1304.0,0.0327
1303.0,0.0325
1302.0,0.0322
1301.0,0.0319
1300.0,0.0315
1299.0,0.0312
1298.0,0.0309
1297.0,0.0305
1296.0,0.03
1295.0,0.0293
1294.0,0.0286
1293.0,0.0277
1292.0,0.0267
1291.0,0.0257
1290.0,0.025
1289.0,0.0246
1288.0,0.0248
1287.0,0.0256
1286.0,0.0269
1285.0,0.0287
1284.0,0.0308
1283.0,0.0333
1282.0,0.0359
1281.0,0.0387
1280.0,0.0416
1279.0,0.0444
1278.0,0.0471
1277.0,0.0497
1276.0,0.0521
1275.0,0.0543
1274.0,0.0562
1273.0,0.0579
1272.0,0.0594
1271.0,0.0605
1270.0,0.0614
1269.0,0.062
1268.0,0.0623
1267.0,0.0623
1266.0,0.0621
1265.0,0.0617
1264.0,0.0611
1263.0,0.0603
1262.0,0.0593
1261.0,0.0583
1260.0,0.0572
1259.0,0.056
1258.0,0.0549
1257.0,0.0537
1256.0,0.0527
1255.0,0.0518
1254.0,0.0509
1253.0,0.0502
1252.0,0.0496
1251.0,0.0491
1250.0,0.0487
1249.0,0.0484
1248.0,0.0483
1247.0,0.0483
1246.0,0.0484
1245.0,0.0486
1244.0,0.0489
1243.0,0.0494
1242.0,0.0499
1241.0,0.0505
1240.0,0.0513
1239.0,0.0522
1238.0,0.0532
1237.0,0.0544
1236.0,0.0558
1235.0,0.0574
1234.0,0.0593
1233.0,0.0615
1232.0,0.0641
1231.0,0.067
1230.0,0.0702
1229.0,0.074
1228.0,0.0782
1227.0,0.083
1226.0,0.0884
1225.0,0.0943
1224.0,0.1007
1223.0,0.1074
1222.0,0.1144
1221.0,0.1218
1220.0,0.1295
1219.0,0.1375
1218.0,0.1455
1217.0,0.1538
1216.0,0.1621
1215.0,0.17
1214.0,0.1772
1213.0,0.1834
1212.0,0.1883
1211.0,0.1916
1210.0,0.1933
1209.0,0.194
1208.0,0.1939
1207.0,0.1934
1206.0,0.1928
1205.0,0.1925
1204.0,0.1929
1203.0,0.1938
1202.0,0.1955
1201.0,0.198
1200.0,0.2013
1199.0,0.2053
1198.0,0.21
1197.0,0.2155
1196.0,0.2221
1195.0,0.2295
1194.0,0.238
1193.0,0.2478
1192.0,0.259
1191.0,0.2716
1190.0,0.2856
1189.0,0.3015
1188.0,0.3193
1187.0,0.3385
1186.0,0.3586
1185.0,0.3792
1184.0,0.399
1183.0,0.4158
1182.0,0.4273
1181.0,0.4314
1180.0,0.4263
1179.0,0.411
1178.0,0.3867
1177.0,0.3566
1176.0,0.3236
1175.0,0.2901
1174.0,0.2582
1173.0,0.2294
1172.0,0.204
1171.0,0.1818
1170.0,0.1625
1169.0,0.1461
1168.0,0.1321
1167.0,0.1204
1166.0,0.1104
1165.0,0.102
1164.0,0.0949
1163.0,0.0887
1162.0,0.0833
1161.0,0.0786
1160.0,0.0746
1159.0,0.0711
1158.0,0.0682
1157.0,0.0658
1156.0,0.0639
1155.0,0.0624
1154.0,0.0616
1153.0,0.0615
1152.0,0.062
1151.0,0.0634
1150.0,0.0656
1149.0,0.069
1148.0,0.0736
1147.0,0.0796
1146.0,0.087
1145.0,0.0959
1144.0,0.1063
1143.0,0.1179
1142.0,0.1307
1141.0,0.1446
1140.0,0.1594
1139.0,0.1749
1138.0,0.1907
1137.0,0.2066
1136.0,0.2221
1135.0,0.2366
1134.0,0.2495
1133.0,0.2608
1132.0,0.2701
1131.0,0.2772
1130.0,0.2816
1129.0,0.2834
1128.0,0.2824
1127.0,0.2783
1126.0,0.2713
1125.0,0.2623
1124.0,0.252
1123.0,0.2411
1122.0,0.2306
1121.0,0.2211
1120.0,0.2129
1119.0,0.2059
1118.0,0.2004
1117.0,0.1966
1116.0,0.1945
1115.0,0.194
1114.0,0.1953
1113.0,0.1985
1112.0,0.2035
1111.0,0.21
1110.0,0.2178
1109.0,0.2269
1108.0,0.2372
1107.0,0.2482
1106.0,0.2597
1105.0,0.2719
1104.0,0.2845
1103.0,0.2973
1102.0,0.3103
1101.0,0.3238
1100.0,0.3378
1099.0,0.352
1098.0,0.3664
1097.0,0.3812
1096.0,0.3964
1095.0,0.4117
1094.0,0.4272
1093.0,0.4431
1092.0,0.4596
1091.0,0.4758
1090.0,0.4916
1089.0,0.5072
1088.0,0.522
1087.0,0.5348
1086.0,0.5449
1085.0,0.5525
1084.0,0.557
1083.0,0.5575
1082.0,0.5538
1081.0,0.5468
1080.0,0.5368
1079.0,0.5235
1078.0,0.5073
1077.0,0.4894
1076.0,0.4701
1075.0,0.4493
1074.0,0.4276
1073.0,0.4059
1072.0,0.3844
1071.0,0.3632
1070.0,0.3425
1069.0,0.3229
1068.0,0.3046
1067.0,0.2876
1066.0,0.2722
1065.0,0.2589
1064.0,0.2478
1063.0,0.2387
1062.0,0.2318
1061.0,0.2271
1060.0,0.2245
1059.0,0.2236
1058.0,0.2241
1057.0,0.2259
1056.0,0.2287
1055.0,0.2322
1054.0,0.236
1053.0,0.2403
1052.0,0.2452
1051.0,0.2505
1050.0,0.2562
1049.0,0.2623
1048.0,0.2687
1047.0,0.2746
1046.0,0.2796
1045.0,0.2832
1044.0,0.2851
1043.0,0.2848
1042.0,0.2824
1041.0,0.2782
1040.0,0.2724
1039.0,0.2648
1038.0,0.2558
1037.0,0.246
1036.0,0.2358
1035.0,0.2256
1034.0,0.2159
1033.0,0.2071
1032.0,0.1993
1031.0,0.1924
1030.0,0.1862
1029.0,0.1807
1028.0,0.1759
1027.0,0.1714
1026.0,0.167
1025.0,0.1627
1024.0,0.1584
1023.0,0.1538
1022.0,0.1491
1021.0,0.1443
1020.0,0.1394
1019.0,0.1344
1018.0,0.1295
1017.0,0.1248
1016.0,0.1202
1015.0,0.1159
1014.0,0.1118
1013.0,0.1081
1012.0,0.1047
1011.0,0.1016
1010.0,0.0987
1009.0,0.0961
1008.0,0.0937
1007.0,0.0914
1006.0,0.0894
1005.0,0.0875
1004.0,0.0857
1003.0,0.084
1002.0,0.0824
1001.0,0.0808
1000.0,0.0794
999.0,0.0781
998.0,0.0768
997.0,0.0757
996.0,0.0746
995.0,0.0736
994.0,0.0726
993.0,0.0716
992.0,0.0707
991.0,0.0697
990.0,0.0688
989.0,0.068
988.0,0.0672
987.0,0.0664
986.0,0.0656
985.0,0.0649
984.0,0.0641
983.0,0.0634
982.0,0.0627
981.0,0.062
980.0,0.0613
979.0,0.0607
978.0,0.06
977.0,0.0593
976.0,0.0586
975.0,0.0579
974.0,0.0572
973.0,0.0566
972.0,0.0559
971.0,0.0553
970.0,0.0547
969.0,0.0543
968.0,0.0541
967.0,0.054
966.0,0.054
965.0,0.0542
964.0,0.0546
963.0,0.0553
962.0,0.0562
961.0,0.0575
960.0,0.0589
959.0,0.0603
958.0,0.0614
957.0,0.062
956.0,0.0622
955.0,0.0619
954.0,0.0614
953.0,0.0607
952.0,0.0598
951.0,0.0589
950.0,0.0579
949.0,0.0569
948.0,0.0561
947.0,0.0554
946.0,0.0548
945.0,0.0542
944.0,0.0536
943.0,0.0531
942.0,0.0526
941.0,0.0521
940.0,0.0516
939.0,0.0513
938.0,0.0509
937.0,0.0507
936.0,0.0505
935.0,0.0505
934.0,0.0505
933.0,0.0507
932.0,0.0509
931.0,0.0511
930.0,0.0514
929.0,0.0518
928.0,0.0523
927.0,0.0529
926.0,0.0534
925.0,0.0539
924.0,0.0542
923.0,0.0544
922.0,0.0546
921.0,0.0548
920.0,0.0549
919.0,0.0548
918.0,0.0546
917.0,0.0544
916.0,0.0539
915.0,0.0534
914.0,0.0528
913.0,0.0522
912.0,0.0518
911.0,0.0513
910.0,0.051
909.0,0.0507
908.0,0.0504
907.0,0.0501
906.0,0.0499
905.0,0.0497
904.0,0.0495
903.0,0.0493
902.0,0.049
901.0,0.0488
900.0,0.0486
899.0,0.0485
898.0,0.0484
897.0,0.0483
896.0,0.0482
895.0,0.0481
894.0,0.048
893.0,0.0477
892.0,0.0473
891.0,0.0467
890.0,0.046
889.0,0.0454
888.0,0.0448
887.0,0.0444
886.0,0.0443
885.0,0.0446
884.0,0.0454
883.0,0.0468
882.0,0.0487
881.0,0.0514
880.0,0.0548
879.0,0.0589
878.0,0.0636
877.0,0.0689
876.0,0.0745
875.0,0.0802
874.0,0.0854
873.0,0.0899
872.0,0.0932
871.0,0.0951
870.0,0.0955
869.0,0.0948
868.0,0.0934
867.0,0.0916
866.0,0.0896
865.0,0.0876
864.0,0.0853
863.0,0.0828
862.0,0.08
861.0,0.0769
860.0,0.0735
859.0,0.0699
858.0,0.0663
857.0,0.0627
856.0,0.0595
855.0,0.0565
854.0,0.054
853.0,0.0521
852.0,0.0507
851.0,0.0498
850.0,0.0491
849.0,0.0487
848.0,0.0482
847.0,0.0476
846.0,0.0468
845.0,0.0457
844.0,0.0443
843.0,0.043
842.0,0.0417
841.0,0.0406
840.0,0.0397
839.0,0.0389
838.0,0.0381
837.0,0.0374
836.0,0.0368
835.0,0.0362
834.0,0.0357
833.0,0.0351
832.0,0.0346
831.0,0.0342
830.0,0.0338
829.0,0.0336
828.0,0.0333
827.0,0.0331
826.0,0.0329
825.0,0.0326
824.0,0.0324
823.0,0.0321
822.0,0.0319
821.0,0.0318
820.0,0.0317
819.0,0.0316
818.0,0.0314
817.0,0.0313
816.0,0.0312
815.0,0.0309
814.0,0.0306
813.0,0.0303
812.0,0.0301
811.0,0.03
810.0,0.0299
809.0,0.0297
808.0,0.0295
807.0,0.0293
806.0,0.0293
805.0,0.0292
804.0,0.0291
803.0,0.0289
802.0,0.0287
801.0,0.0286
800.0,0.0285
799.0,0.0283
798.0,0.0282
797.0,0.0283
796.0,0.0284
795.0,0.0285
794.0,0.0286
793.0,0.0287
792.0,0.0288
791.0,0.029
790.0,0.0293
789.0,0.0298
788.0,0.0304
787.0,0.031
786.0,0.0317
785.0,0.0324
784.0,0.0331
783.0,0.0338
782.0,0.0345
781.0,0.0353
780.0,0.0362
779.0,0.0371
778.0,0.038
777.0,0.0389
776.0,0.0399
775.0,0.0411
774.0,0.0424
773.0,0.0438
772.0,0.0452
771.0,0.0468
770.0,0.0486
769.0,0.0506
768.0,0.0529
767.0,0.0555
766.0,0.0584
765.0,0.0617
764.0,0.0654
763.0,0.0696
762.0,0.0743
761.0,0.0794
760.0,0.0847
759.0,0.09
758.0,0.0947
757.0,0.0983
756.0,0.1004
755.0,0.1008
754.0,0.0995
753.0,0.097
752.0,0.0937
751.0,0.0902
750.0,0.087
749.0,0.0844
748.0,0.0821
747.0,0.0802
746.0,0.0786
745.0,0.0772
744.0,0.076
743.0,0.0749
742.0,0.0738
741.0,0.0728
740.0,0.0718
739.0,0.0706
738.0,0.0694
737.0,0.0679
736.0,0.0661
735.0,0.0635
734.0,0.0604
733.0,0.0569
732.0,0.0534
731.0,0.0503
730.0,0.048
729.0,0.0465
728.0,0.0458
727.0,0.0456
726.0,0.0457
725.0,0.0462
724.0,0.0468
723.0,0.0476
722.0,0.0488
721.0,0.0506
720.0,0.053
719.0,0.0558
718.0,0.0585
717.0,0.0608
716.0,0.0629
715.0,0.0647
714.0,0.0664
713.0,0.068
712.0,0.0695
711.0,0.0707
710.0,0.0715
709.0,0.0719
708.0,0.0721
707.0,0.0721
706.0,0.0722
705.0,0.0726
704.0,0.0733
703.0,0.074
702.0,0.0748
701.0,0.0757
700.0,0.0763
699.0,0.0764
698.0,0.0762
697.0,0.076
696.0,0.0762
695.0,0.0763
694.0,0.0761
693.0,0.0758
692.0,0.0756
691.0,0.0754
690.0,0.075
689.0,0.0744
688.0,0.0737
687.0,0.0734
686.0,0.0732
685.0,0.0731
684.0,0.0729
683.0,0.0725
682.0,0.072
681.0,0.0713
680.0,0.0702
679.0,0.0692
678.0,0.0683
677.0,0.0677
676.0,0.0666
675.0,0.0649
674.0,0.0634
673.0,0.0621
672.0,0.0609
671.0,0.06
670.0,0.06
669.0,0.0621
668.0,0.0662
667.0,0.0692
666.0,0.0674
665.0,0.063
664.0,0.0598
663.0,0.0586
662.0,0.0585
661.0,0.0586
660.0,0.0585
659.0,0.0578
658.0,0.0565
657.0,0.0551
656.0,0.054
655.0,0.0533
654.0,0.0529
653.0,0.0524
652.0,0.0517
651.0,0.051
650.0,0.0507
649.0,0.0507
648.0,0.0509
647.0,0.051
646.0,0.0509
645.0,0.0508
644.0,0.0505
643.0,0.0503
642.0,0.0503
641.0,0.0506
640.0,0.051
639.0,0.0511
638.0,0.0509
637.0,0.0507
636.0,0.0506
635.0,0.0506
634.0,0.0505
633.0,0.0503
632.0,0.0498
631.0,0.0494
630.0,0.0492
629.0,0.0492
628.0,0.0489
627.0,0.0483
626.0,0.0475
625.0,0.0468
624.0,0.0462
623.0,0.0456
622.0,0.0449
621.0,0.0443
620.0,0.0437
619.0,0.0433
618.0,0.0431
617.0,0.043
616.0,0.0427
615.0,0.0425
614.0,0.0424
613.0,0.0425
612.0,0.0425
611.0,0.0423
610.0,0.0419
609.0,0.0415
608.0,0.041
607.0,0.0401
606.0,0.039
605.0,0.0385
604.0,0.0389
603.0,0.0402
602.0,0.0417
601.0,0.0423
600.0,0.0413
