nm,Intensity
791.588,4906.06
791.862,4877.21
792.136,4873.42
792.411,4850.87
792.685,4832.21
792.959,4825.39
793.233,4814.62
793.507,4807.69
793.781,4815.49
794.056,4812.68
794.33,4809.83
794.604,4795.56
794.878,4799.17
795.152,4801.49
795.426,4782.44
795.701,4777.86
795.975,4784.02
796.249,4782.9
796.523,4772.22
796.797,4788.63
797.071,4766.65
797.345,4780.38
797.619,4782.37
797.894,4778.94
798.168,4774.74
798.442,4765.3
798.716,4756.67
798.99,4762.85
799.264,4763.39
799.538,4772.38
799.812,4760.24
800.086,4748.16
800.36,4746.48
800.634,4747.93
800.908,4749.43
801.182,4742.91
801.456,4747.48
801.73,4741.89
802.004,4734.18
802.278,4721.09
802.552,4731.9
802.826,4727.98
803.1,4727.79
803.374,4710.94
803.648,4712.58
803.922,4709.31
804.196,4705.5
804.47,4706.64
804.744,4704.14
805.018,4709.89
805.292,4701.31
805.566,4696.87
805.84,4708.91
806.114,4712.59
806.388,4694.43
806.662,4693.74
806.936,4692.1
807.209,4681.52
807.483,4685.36
807.757,4680.29
808.031,4687.05
808.305,4677.84
808.579,4677.56
808.853,4680.97
809.127,4691.4
809.4,4670.55
809.674,4656.92
809.948,4654.97
810.222,4647.81
810.496,4666.24
810.77,4658.98
811.043,4649.01
811.317,4639.69
811.591,4645.81
811.865,4642.13
812.139,4638.71
812.412,4635.67
812.686,4645.65
812.96,4630.01
813.234,4620.47
813.507,4628.5
813.781,4614.36
814.055,4611.48
814.329,4616.72
814.602,4613.47
814.876,4617.21
815.15,4609.8
815.424,4599.99
815.697,4598.52
815.971,4611.79
816.245,4597.83
816.518,4593.5
816.792,4602.02
817.066,4589.7
817.34,4597.2
817.613,4579.65
817.887,4583.85
818.161,4592.15
818.434,4593.13
818.708,4599.91
818.981,4597.45
819.255,4583.06
819.529,4588.79
819.802,4584.44
820.076,4584.54
820.35,4575.25
820.623,4580.52
820.897,4586.04
821.17,4582.85
821.444,4578.59
821.718,4570.82
821.991,4570.73
822.265,4542.79
822.538,4557.48
822.812,4543.91
823.085,4549.29
823.359,4545.13
823.632,4546.17
823.906,4561.27
824.18,4554.4
824.453,4564.08
824.727,4555.89
825.0,4541.19
825.274,4553.31
825.547,4543.56
825.821,4533.59
826.094,4543.16
826.367,4543.88
826.641,4542.35
826.914,4537.71
827.188,4530.09
827.461,4526.62
827.735,4534.05
828.008,4532.49
828.282,4531.14
828.555,4525.31
828.828,4533.36
829.102,4527.66
829.375,4551.93
829.649,4555.86
829.922,4543.28
830.195,4525.14
830.469,4520.84
830.742,4508.82
831.016,4514.43
831.289,4517.18
831.562,4499.49
831.836,4512.0
832.109,4511.57
832.382,4513.13
832.656,4508.59
832.929,4532.49
833.202,4526.79
833.476,4519.15
833.749,4504.28
834.022,4501.54
834.295,4494.4
834.569,4485.44
834.842,4491.63
835.115,4496.68
835.388,4498.07
835.662,4493.15
835.935,4493.91
836.208,4497.33
836.481,4492.66
836.755,4485.73
837.028,4471.45
837.301,4471.55
837.574,4484.88
837.848,4484.26
838.121,4478.45
838.394,4481.54
838.667,4475.64
838.94,4480.17
839.213,4467.46
839.487,4458.22
839.76,4463.98
840.033,4449.74
840.306,4449.82
840.579,4464.19
840.852,4461.14
841.125,4453.09
841.399,4449.98
841.672,4446.2
841.945,4451.93
842.218,4463.4
842.491,4460.86
842.764,4466.21
843.037,4462.12
843.31,4448.77
843.583,4438.86
843.856,4446.82
844.129,4445.49
844.402,4430.48
844.675,4433.47
844.948,4425.91
845.221,4440.27
845.495,4426.39
845.768,4423.6
846.041,4425.99
846.314,4417.56
846.586,4419.19
846.859,4404.87
847.132,4414.39
847.405,4410.87
847.678,4409.29
847.951,4410.63
848.224,4417.33
848.497,4409.16
848.77,4396.3
849.043,4379.32
849.316,4386.17
849.589,4399.73
849.862,4403.66
850.135,4392.9
850.408,4399.01
850.681,4392.21
850.953,4384.22
851.226,4385.56
851.499,4383.7
851.772,4391.61
852.045,4378.91
852.318,4380.97
852.591,4387.52
852.863,4378.92
853.136,4379.35
853.409,4383.69
853.682,4381.8
853.955,4376.31
854.227,4365.73
854.5,4366.76
854.773,4368.52
855.046,4382.05
855.318,4400.27
855.591,4441.22
855.864,4487.43
856.137,4518.39
856.409,4506.89
856.682,4463.97
856.955,4441.82
857.228,4420.64
857.5,4401.58
857.773,4399.15
858.046,4393.85
858.318,4391.83
858.591,4377.66
858.864,4374.4
859.137,4373.37
859.409,4366.59
859.682,4374.77
859.954,4374.53
860.227,4399.12
860.5,4442.85
860.772,4485.03
861.045,4495.85
861.318,4478.6
861.59,4434.62
861.863,4401.09
862.135,4370.85
862.408,4356.36
862.681,4350.47
862.953,4339.16
863.226,4336.08
863.498,4338.13
863.771,4338.1
864.043,4346.84
864.316,4325.87
864.588,4327.86
864.861,4330.09
865.133,4316.14
865.406,4320.1
865.678,4316.8
865.951,4308.22
866.223,4299.57
866.496,4306.83
866.768,4300.55
867.041,4299.41
867.313,4303.46
867.586,4305.22
867.858,4300.59
868.131,4304.17
868.403,4301.54
868.675,4288.33
868.948,4288.82
869.22,4294.29
869.493,4283.61
869.765,4282.49
870.037,4290.55
870.31,4287.37
870.582,4291.67
870.854,4285.39
871.127,4287.19
871.399,4296.25
871.672,4309.5
871.944,4311.55
872.216,4302.08
872.488,4328.14
872.761,4382.6
873.033,4421.2
873.305,4468.88
873.578,4473.75
873.85,4451.42
874.122,4432.76
874.394,4392.74
874.667,4354.11
874.939,4320.35
875.211,4297.99
875.483,4284.33
875.756,4280.62
876.028,4277.32
876.3,4275.82
876.572,4260.74
876.845,4250.6
877.117,4253.37
877.389,4253.55
877.661,4251.51
877.933,4250.09
878.205,4250.93
878.478,4252.9
878.75,4250.93
879.022,4237.25
879.294,4243.99
879.566,4248.95
879.838,4236.42
880.11,4229.62
880.382,4218.38
880.654,4231.4
880.927,4230.77
881.199,4211.32
881.471,4221.86
881.743,4234.43
882.015,4235.03
882.287,4245.63
882.559,4265.68
882.831,4267.01
883.103,4274.2
883.375,4293.1
883.647,4295.59
883.919,4319.25
884.191,4356.21
884.463,4372.58
884.735,4370.03
885.007,4358.15
885.279,4350.64
885.551,4346.2
885.823,4338.19
886.095,4326.81
886.367,4318.19
886.639,4299.53
886.91,4289.07
887.182,4265.8
887.454,4260.92
887.726,4241.01
887.998,4219.45
888.27,4197.62
888.542,4190.55
888.814,4180.79
889.085,4172.82
889.357,4176.27
889.629,4183.21
889.901,4178.05
890.173,4161.7
890.445,4159.19
890.716,4161.06
890.988,4161.26
891.26,4170.16
891.532,4170.47
891.804,4174.08
892.075,4177.35
892.347,4164.71
892.619,4165.18
892.891,4161.38
893.162,4166.89
893.434,4166.64
893.706,4162.43
893.978,4143.52
894.249,4140.92
894.521,4133.95
894.793,4132.31
895.064,4136.87
895.336,4125.31
895.608,4122.4
895.879,4118.71
896.151,4120.44
896.423,4112.45
896.694,4109.98
896.966,4113.15
897.237,4107.32
897.509,4102.34
897.781,4097.42
898.052,4097.41
898.324,4098.32
898.595,4099.62
898.867,4091.39
899.139,4088.34
899.41,4088.2
899.682,4086.66
899.953,4084.54
900.225,4082.63
900.496,4085.46
900.768,4085.04
901.039,4081.49
901.311,4083.5
901.582,4087.1
901.854,4081.21
902.125,4081.25
902.397,4074.08
902.668,4075.15
902.94,4074.76
903.211,4074.65
903.482,4068.27
903.754,4069.5
904.025,4069.22
904.297,4072.14
904.568,4071.46
904.839,4068.51
905.111,4069.51
905.382,4068.02
905.654,4061.29
905.925,4054.55
906.196,4049.44
906.468,4047.51
906.739,4047.43
907.01,4052.21
907.282,4052.9
907.553,4053.86
907.824,4046.12
908.096,4045.18
908.367,4036.62
908.638,4041.45
908.909,4033.88
909.181,4038.3
909.452,4035.78
909.723,4037.77
909.994,4037.37
910.266,4030.02
910.537,4030.68
910.808,4036.87
911.079,4034.08
911.35,4028.61
911.622,4024.29
911.893,4021.64
912.164,4023.8
912.435,4020.69
912.706,4016.03
912.977,4015.11
913.249,4013.2
913.52,4012.81
913.791,4007.54
914.062,4009.72
914.333,4013.97
914.604,4005.07
914.875,4002.94
915.146,4005.17
915.417,4011.43
915.688,4011.84
915.959,4006.76
916.231,4005.4
916.502,4000.19
916.773,3996.75
917.044,3995.68
917.315,3994.09
917.586,3996.55
917.857,3999.73
918.128,4005.04
918.399,4002.61
918.67,3997.65
918.941,3991.88
919.211,3991.89
919.482,3983.13
919.753,3982.76
920.024,3984.34
920.295,3983.19
920.566,3989.76
920.837,3983.11
921.108,3982.52
921.379,3974.14
921.65,3973.34
921.921,3973.78
922.191,3971.9
922.462,3972.82
922.733,3970.63
923.004,3972.57
923.275,3973.39
923.546,3968.86
923.816,3964.62
924.087,3964.73
924.358,3966.71
924.629,3967.43
924.9,3962.97
925.17,3958.6
925.441,3956.12
925.712,3955.94
925.983,3961.01
926.253,3955.14
926.524,3958.98
926.795,3959.15
927.065,3962.7
927.336,3951.75
927.607,3949.55
927.877,3946.82
928.148,3939.97
928.419,3938.8
928.689,3936.14
928.96,3935.2
929.231,3936.68
929.501,3936.58
929.772,3936.91
930.043,3933.44
930.313,3931.15
930.584,3926.43
930.854,3929.87
931.125,3929.89
931.396,3927.21
931.666,3925.22
931.937,3922.63
932.207,3918.57
932.478,3920.58
932.748,3916.15
933.019,3919.04
933.289,3919.01
933.56,3916.3
933.83,3918.22
934.101,3920.57
934.371,3918.83
934.642,3915.44
934.912,3911.32
935.183,3912.23
935.453,3908.88
935.723,3908.04
935.994,3909.16
936.264,3904.51
936.535,3902.55
936.805,3899.15
937.075,3900.02
937.346,3906.18
937.616,3901.28
937.886,3900.56
938.157,3901.24
938.427,3900.94
938.697,3896.29
938.968,3893.87
939.238,3892.93
939.508,3893.25
939.779,3893.2
940.049,3891.98
940.319,3891.46
940.59,3894.15
940.86,3890.0
941.13,3890.44
941.4,3894.05
941.671,3888.63
941.941,3883.26
942.211,3885.42
942.481,3888.89
942.751,3882.83
943.022,3880.98
943.292,3881.32
943.562,3879.68
943.832,3879.65
944.102,3879.38
944.372,3874.99
944.642,3870.09
944.913,3870.01
945.183,3871.08
945.453,3869.96
945.723,3872.73
945.993,3874.26
946.263,3873.85
946.533,3872.32
946.803,3874.52
947.073,3870.81
947.343,3866.65
947.613,3865.13
947.883,3866.75
948.153,3862.07
948.423,3863.17
948.693,3867.06
948.963,3870.93
949.233,3867.79
949.503,3865.09
949.773,3862.66
950.043,3859.03
950.313,3860.21
950.583,3858.38
950.853,3856.22
951.123,3857.45
951.393,3855.93
951.663,3856.42
951.933,3856.43
952.202,3855.53
952.472,3855.66
952.742,3854.16
953.012,3854.83
953.282,3853.93
953.552,3851.02
953.822,3849.91
954.091,3847.6
954.361,3845.61
954.631,3844.25
954.901,3844.89
955.17,3846.07
955.44,3845.76
955.71,3846.37
955.98,3845.14
956.25,3843.44
956.519,3842.12
956.789,3842.18
957.059,3840.01
957.328,3840.81
957.598,3838.28
957.868,3837.0
958.137,3837.22
958.407,3835.5
958.677,3835.59
958.946,3836.37
959.216,3835.15
959.486,3834.26
959.755,3835.6
960.025,3834.35
960.294,3833.16
960.564,3834.63
960.834,3829.92
961.103,3826.22
961.373,3825.87
961.642,3826.43
961.912,3827.22
962.181,3827.59
962.451,3828.72
962.72,3827.86
962.99,3827.2
963.259,3824.81
963.529,3822.61
963.798,3822.65
964.068,3826.12
964.337,3824.13
964.607,3822.81
964.876,3822.83
965.146,3818.69
965.415,3820.47
965.684,3820.09
965.954,3821.89
966.223,3821.41
966.493,3818.34
966.762,3814.79
967.031,3815.42
967.301,3816.59
967.57,3818.62
967.839,3818.76
968.109,3818.83
968.378,3817.94
968.647,3816.06
968.917,3817.01
969.186,3813.31
969.455,3815.34
969.724,3814.59
969.994,3814.08
970.263,3812.66
970.532,3814.25
970.801,3813.59
971.071,3810.27
971.34,3806.68
971.609,3809.11
971.878,3809.46
972.147,3808.14
972.417,3807.05
972.686,3806.6
972.955,3808.39
973.224,3807.43
973.493,3804.93
973.762,3804.5
974.031,3804.06
974.3,3804.71
974.57,3803.47
974.839,3800.18
975.108,3799.55
975.377,3798.34
975.646,3800.33
975.915,3799.65
976.184,3800.18
976.453,3800.64
976.722,3799.93
976.991,3799.18
977.26,3797.51
977.529,3796.22
977.798,3797.38
978.067,3794.44
978.336,3794.07
978.605,3794.77
978.874,3795.39
979.143,3794.3
979.412,3794.09
979.68,3795.08
979.949,3795.69
980.218,3794.59
980.487,3794.28
980.756,3792.01
981.025,3791.86
981.294,3793.01
981.563,3793.34
981.831,3792.32
982.1,3793.3
982.369,3792.0
982.638,3792.27
982.907,3789.03
983.175,3788.98
983.444,3789.99
983.713,3788.54
983.982,3788.45
984.25,3788.4
984.519,3788.05
984.788,3787.87
985.057,3787.51
985.325,3789.92
985.594,3788.17
985.863,3787.85
986.131,3786.83
986.4,3787.74
986.669,3784.76
986.937,3785.84
987.206,3788.83
987.475,3787.97
987.743,3786.17
988.012,3785.06
988.28,3784.62
988.549,3783.98
988.817,3781.56
989.086,3783.0
989.355,3782.96
989.623,3781.42
989.892,3780.67
990.16,3782.99
990.429,3782.9
990.697,3782.23
990.966,3781.04
991.234,3782.84
991.503,3781.67
991.771,3780.17
992.04,3781.09
992.308,3780.23
992.576,3778.81
992.845,3778.82
993.113,3779.19
993.382,3779.08
993.65,3779.33
993.918,3777.64
994.187,3778.07
994.455,3776.43
994.723,3778.46
994.992,3779.77
995.26,3779.34
995.528,3778.01
995.797,3777.74
996.065,3778.64
996.333,3778.4
996.602,3779.71
996.87,3780.01
997.138,3780.15
997.406,3778.33
997.675,3779.41
997.943,3777.72
998.211,3776.01
998.479,3775.84
998.747,3776.98
999.016,3776.25
999.284,3776.21
999.552,3774.25
999.82,3774.13
1000.09,3773.56
1000.36,3770.99
1000.62,3770.82
1000.89,3770.9
1001.16,3770.45
1001.43,3769.44
1001.7,3768.78
1001.97,3767.92
1002.23,3767.78
1002.5,3767.82
1002.77,3766.89
1003.04,3767.01
1003.31,3765.77
1003.57,3766.12
1003.84,3765.21
1004.11,3764.22
1004.38,3765.27
1004.65,3765.19
1004.91,3763.08
1005.18,3763.25
1005.45,3764.24
1005.72,3763.31
1005.98,3761.95
1006.25,3764.09
1006.52,3763.45
1006.79,3762.79
1007.06,3764.76
1007.32,3764.22
1007.59,3763.57
1007.86,3765.79
1008.13,3767.01
1008.4,3769.41
1008.66,3774.28
1008.93,3780.7
1009.2,3784.15
1009.47,3789.86
1009.73,3796.18
1010.0,3802.63
1010.27,3805.52
1010.54,3809.37
1010.81,3810.68
1011.07,3816.68
1011.34,3817.22
1011.61,3817.11
1011.88,3819.34
1012.14,3816.9
1012.41,3817.28
1012.68,3814.25
1012.95,3815.08
1013.21,3816.84
1013.48,3815.06
1013.75,3815.78
1014.02,3815.68
1014.29,3813.17
1014.55,3811.98
1014.82,3811.8
1015.09,3808.75
1015.36,3808.97
1015.62,3807.18
1015.89,3805.05
1016.16,3799.66
1016.43,3794.53
1016.69,3790.11
1016.96,3785.73
1017.23,3784.04
1017.5,3782.77
1017.76,3781.23
1018.03,3777.71
1018.3,3776.04
1018.57,3773.68
1018.83,3772.26
1019.1,3770.1
1019.37,3767.96
1019.63,3766.69
1019.9,3764.94
1020.17,3764.56
1020.44,3762.2
1020.7,3761.76
1020.97,3758.89
1021.24,3757.47
1021.51,3755.92
1021.77,3754.12
1022.04,3752.67
1022.31,3751.45
1022.58,3749.91
1022.84,3749.86
1023.11,3750.13
1023.38,3749.64
1023.64,3747.99
1023.91,3749.09
1024.18,3747.92
1024.45,3747.07
1024.71,3747.02
1024.98,3746.69
1025.25,3747.29
1025.51,3747.47
1025.78,3746.78
1026.05,3747.23
1026.32,3746.63
1026.58,3747.27
1026.85,3746.66
1027.12,3746.08
1027.38,3745.21
1027.65,3745.8
1027.92,3746.16
1028.19,3744.46
1028.45,3743.78
1028.72,3743.63
1028.99,3742.8
1029.25,3744.18
1029.52,3743.2
1029.79,3743.44
1030.05,3743.45
1030.32,3744.5
1030.59,3742.71
1030.85,3743.59
1031.12,3742.5
1031.39,3743.42
1031.66,3742.77
1031.92,3743.61
1032.19,3743.28
1032.46,3743.06
1032.72,3741.39
1032.99,3742.54
1033.26,3742.82
1033.52,3742.29
1033.79,3742.14
1034.06,3742.37
1034.32,3741.3
1034.59,3740.98
1034.86,3741.72
1035.12,3741.92
1035.39,3741.05
1035.66,3741.95
1035.92,3741.21
1036.19,3741.09
1036.46,3741.11
1036.72,3740.83
1036.99,3739.86
1037.26,3739.98
1037.52,3739.63
1037.79,3740.45
1038.06,3740.19
1038.32,3739.88
1038.59,3738.75
1038.86,3739.92
1039.12,3739.64
1039.39,3739.55
1039.66,3740.13
1039.92,3739.65
1040.19,3739.24
1040.46,3739.24
1040.72,3739.52
1040.99,3739.24
1041.26,3738.93
1041.52,3738.69
1041.79,3738.64
1042.06,3737.89
1042.32,3738.86
1042.59,3738.18
1042.86,3739.54
1043.12,3738.35
1043.39,3738.91
1043.65,3739.22
1043.92,3738.66
1044.19,3738.33
1044.45,3738.09
1044.72,3737.89
1044.99,3737.87
1045.25,3738.07
1045.52,3737.53
1045.79,3738.11
1046.05,3736.99
1046.32,3737.61
1046.58,3737.36
1046.85,3738.17
1047.12,3737.63
1047.38,3738.15
1047.65,3737.29
1047.92,3737.7
1048.18,3736.87
1048.45,3737.63
1048.71,3737.45
1048.98,3737.18
1049.25,3736.61
1049.51,3737.04
1049.78,3736.41
1050.04,3737.2
1050.31,3736.02
1050.58,3737.18
1050.84,3737.11
1051.11,3736.85
1051.37,3736.43
1051.64,3736.95
1051.91,3736.92
1052.17,3737.87
1052.44,3736.96
1052.7,3736.84
1052.97,3736.97
1053.24,3736.85
1053.5,3737.09
1053.77,3736.19
1054.03,3737.12
1054.3,3736.22
1054.57,3736.38
1054.83,3736.94
1055.1,3736.14
1055.36,3737.51
1055.63,3736.23
1055.9,3736.2
1056.16,3736.72
1056.43,3736.48
1056.69,3736.0
1056.96,3736.32
1057.23,3736.16
1057.49,3736.33
1057.76,3735.24
1058.02,3735.86
1058.29,3735.9
1058.55,3735.86
1058.82,3735.52
1059.09,3735.76
1059.35,3735.77
1059.62,3736.41
1059.88,3735.48
1060.15,3735.45
1060.41,3735.85
1060.68,3735.51
1060.95,3735.17
1061.21,3736.04
1061.48,3735.56
1061.74,3735.81
1062.01,3735.79
1062.27,3736.37
1062.54,3735.17
1062.8,3735.87
1063.07,3735.7
1063.34,3735.59
1063.6,3735.06
1063.87,3735.32
1064.13,3735.44
1064.4,3735.02
1064.66,3735.38
1064.93,3735.11
1065.19,3734.68
1065.46,3735.4
1065.73,3735.12
1065.99,3734.86
1066.26,3734.62
1066.52,3734.97
1066.79,3735.8
1067.05,3735.55
1067.32,3734.42
1067.58,3734.91
1067.85,3734.06
1068.11,3735.02
